#   1 NUMBER                 Running object number                                     
#   2 X_IMAGE                Object position along x                                    [pixel]
#   3 Y_IMAGE                Object position along y                                    [pixel]
#   4 ALPHA_J2000            Right ascension of barycenter (J2000)                      [deg]
#   5 DELTA_J2000            Declination of barycenter (J2000)                          [deg]
#   6 FLUX_APER              Flux vector within fixed circular aperture(s)              [count]
#   9 FLUXERR_APER           RMS error vector for aperture flux(es)                     [count]
#  12 FLUX_RADIUS            Fraction-of-light radii                                    [pixel]
#  13 FWHM_IMAGE             FWHM assuming a gaussian core                              [pixel]
#  14 BACKGROUND             Background at centroid position                            [count]
#  15 THRESHOLD              Detection threshold above background                       [count]
#  16 FLUX_MAX               Peak flux above background                                 [count]
#  17 ISOAREA_IMAGE          Isophotal area above Analysis threshold                    [pixel**2]
#  18 A_IMAGE                Profile RMS along major axis                               [pixel]
#  19 B_IMAGE                Profile RMS along minor axis                               [pixel]
#  20 THETA_IMAGE            Position angle (CCW/x)                                     [deg]
#  21 FLAGS                  Extraction flags                                          
         1    731.1579     19.8525 307.6452453  +6.6898443     8613.309     11371.94     11449.19       78.325     156.3399     312.4934      1.397     2.98     828.1481     55.07657     1384.195        26     1.239     0.903  73.42   0
         2    451.5833     15.4549 307.7615526  +6.6823086     7527.454     10154.21     10470.73      77.8277     156.2157     312.2137      1.446     2.85     829.9933     55.07657     1049.104        28     1.260     0.973  72.76   0
         3     52.5028     14.9637 307.9273737  +6.6691158     9989.934     13844.39     14193.79       78.325     156.1535     312.6176      1.459     2.95     828.9941     55.07657     1406.499        32     1.276     1.013  74.30   0
         4    698.4129     14.0050 307.6590466  +6.6911646     1146.019     1392.447     1020.099     77.95232     156.0291     312.3381      1.361     3.42     827.9256     55.07657     178.2487        12     1.028     0.823  75.23   8
         5    527.1396     12.3335 307.7302651  +6.6861271     1026.147     1459.274     1115.694     78.44884     156.2156     312.4623      1.506     3.92      828.347     55.07657      171.476        12     1.137     0.765  84.17   0
         6    443.1023     11.0223 307.7652252  +6.6838544     1110.693     1417.658     1785.963       78.325     156.0291     312.2759      1.473     4.19     830.3161     55.07657     167.3982        11     1.062     0.731 -82.01   0
         7    121.6883     10.6410 307.8987759  +6.6732266      2953.67      4132.66     4685.692       78.325     156.2156     312.4934      1.495     3.19     829.2961     55.07657     423.2407        21     1.199     0.932  83.38   0
         8    113.1108      9.6165 307.9023741  +6.6733612     1698.088     2278.031     2437.834     78.07674     156.0291     312.3381      1.398     3.47     829.2274     55.07657     247.3129        14     1.144     0.787  70.67   0
         9    414.3642      8.1515 307.7772618  +6.6840767     2945.473     3894.111     3527.518     78.07674     156.2778     311.4978      1.430     3.10     831.6559     55.07657     396.8766        18     1.134     0.892 -87.70   0
        10    816.4960      9.1371 307.6101462  +6.6971170      834.113     1171.999      817.424     78.20097     156.4019     312.5245      1.515     3.73     827.8895     55.07657     141.5042         6     0.806     0.496  84.43   0
        11    482.3988      8.7768 307.7489736  +6.6860976     686.5419     957.0313     891.5538     77.95232     155.9669     312.2448      1.564     4.47      828.588     55.07657     108.5497         7     1.040     0.545  62.82   0
        12   1009.6323      5.0309 307.5300339  +6.7052506     858.8208     1365.509     1186.753      77.8277     156.0291     286.1947      1.543     4.89     827.0762     55.07657     139.9102        10     1.157     0.787 -40.30  16
        13    675.0667      3.8084 307.6690886  +6.6945940     12606.45     16938.15     17545.02      77.8277     152.8868     271.5403      1.399     2.99     827.5547     55.07657     2010.369        31     1.264     0.970  80.62  24
        14    839.7007      3.4853 307.6006937  +6.7002246      1905.53     2534.458     2848.651       78.325     150.8414     267.4341      1.464     3.45     827.6645     55.07657     250.4844        17     1.178     0.881  86.92  24
        15     93.1449      4.6296 307.9108371  +6.6747486     891.2087     1170.937     1168.952     78.07674     156.3399     281.8199      1.389     2.85     828.9091     55.07657     155.7603         7     0.731     0.681 -43.63  16
        16    552.7330      3.5563 307.7199259  +6.6906071     1643.275      2298.42     2369.701       78.325     150.9058     268.1952      1.558     3.06     827.9858     55.07657     223.9066        14     0.984     0.890  64.67  16
        17    275.1289      1.6574 307.8353292  +6.6820885     5017.993     5880.758     5784.053     72.13139     129.1378     240.4469      1.119     2.51     835.4184     55.07657     1133.582        16     1.010     0.730  11.61  24
        18    910.2941      1.6898 307.5714217  +6.7033201     1308.925     1624.917     1899.304     72.40003     129.8126     241.0114      1.269     3.22     827.5704     55.07657     221.0532         9     0.858     0.736  17.83  24
        19    451.3752      1.4980 307.7621079  +6.6880634     580.0234     621.6578      1132.49     70.22209     126.4796      237.645      1.107     4.34     829.7778     55.07657     113.8707         5     0.966     0.555  42.53  24
        20    348.1471     10.3403 307.8046999  +6.6809534     15264.51     20675.96     21036.67       78.325     156.2156     312.4623      1.450     3.03     836.4174     55.07657     2241.718        40     1.356     1.044  64.13   0
        21    667.0470      1.1634 307.6725094  +6.6954179     1818.952     2128.779     2583.517     65.50177     121.3886     232.2743      0.884     2.10     827.4615     55.07657     643.6617         6     0.820     0.360   6.63  24
        22    436.7500      1.1539 307.7681960  +6.6877156     1720.125      2057.18     2117.732     65.50177     121.1484     232.1071      0.927     2.20     830.4113     55.07657     607.4709         8     1.027     0.360  -1.47  24
        23    939.4589    988.0298 307.5263585  +6.2970796     41488.67     69251.62     73111.76     78.07674     156.2778     312.4002      1.795     3.56     857.2452     55.07657     5003.106        72     1.596     1.387  73.92   0
        24    979.3895   1023.6135 307.5085929  +6.2837184     2177.549     2547.826     2665.144     68.40147     124.7019     235.8409      1.096     2.56     857.4391     55.07657     561.4971        12     1.110     0.589  -2.22  24
        25    754.7647   1022.5197 307.6018862  +6.2766831     1082.002     1294.292     1052.959     78.20097     139.9595      253.151      1.337     4.31     859.6904     55.07657     156.5496        11     1.048     0.802 -67.94  24
        26    739.2303   1023.2097 307.6083124  +6.2758799     2317.526     3011.143     3010.178     72.93436     130.7068     242.3369      1.276     2.89     859.7836     55.07657      385.355        13     0.987     0.813  11.95  24
        27    462.2463   1023.6353 307.7232891  +6.2664479     521.6043     507.8544     426.6063     68.25941     124.5461     235.5526      0.955     3.47     862.1542     55.07657     119.7897         5     0.751     0.464 -12.54  24
        28     12.2840    987.8063 307.9112894  +6.2661491     3324.711     5165.372     5933.247     77.95232     155.9669     312.3381      1.666     3.28     853.3522     55.07657     493.2573        23     1.243     1.044  73.78   0
        29    246.7829    986.3909 307.8139880  +6.2746062      1939.83     2719.838     2996.248     78.07675     156.0291     312.3381      1.538     3.34      858.805     55.07657     272.8448        18     1.199     0.925  72.35   0
        30    645.1376    984.4736 307.6486723  +6.2887304     878.3157     1300.954     1371.096     78.57248     156.2778     312.4623      1.592     5.00     860.0564     55.07657     141.7057        10     1.163     0.784  52.41   0
        31    134.2753    985.0730 307.8607389  +6.2713753     655.0817     1021.581     595.7691     78.57248      156.526     312.5245      1.530     4.51     856.6359     55.07657     111.8223         6     0.900     0.643  52.31   0
        32    785.6605    979.7615 307.5904886  +6.2953667     6803.241     10825.08      12015.8       78.325     156.3399     312.4934      1.780     3.46     858.7925     55.07657     843.7111        45     1.729     1.195 -84.98   0
        33    837.2455    981.7990 307.5690035  +6.2962459     2325.772     3575.713     3582.199     77.70287     156.0291     312.0582      1.589     3.38     858.4659     55.07657     312.4969        22     1.295     0.992  67.66   0
        34    254.9184    978.8708 307.8108633  +6.2779835     1638.971     2514.933     2777.311     78.57248      156.588     312.4934      1.578     3.16     858.8895     55.07657     239.1447        16     1.057     0.958 -44.10   0
        35    219.2454    978.6857 307.8256791  +6.2768636     902.8852     1356.977      1490.23       78.325     156.1535     312.4623      1.568     5.34     857.6581     55.07657     121.0094        10     1.194     0.675 -73.81   0
        36    572.2584    978.7186 307.6791222  +6.2886710     1017.873      1386.09      1532.57       78.325     156.2778     312.4623      1.593     3.23     860.3929     55.07657     160.0318        10     1.001     0.718 -61.43   0
        37    973.7997    974.7038 307.5125454  +6.3037250     6345.113     10736.42     10994.38      77.8277     155.9046     312.0582      1.800     3.73     856.4116     55.07657     726.7049        41     1.468     1.332  61.53   0
        38     79.9209    976.8364 307.8835805  +6.2729504     2851.734     4090.171     4506.932     78.20097     156.3399     312.4623      1.471     3.08     855.3149     55.07657     437.7516        19     1.192     0.892 -85.87   0
        39    230.2107    970.9839 307.8213857  +6.2804109     673.9807     861.2783     1036.936     78.07675     155.9669     312.3381      1.407     5.19     857.7064     55.07657      109.002         9     1.124     0.727  79.29   0
        40    655.8813    969.1373 307.6447252  +6.2954209     884.5891     1193.227      1046.12     78.44884     156.3399     312.4623      1.498     3.90     859.7017     55.07657     120.9844         9     0.958     0.725  80.17   0
        41    947.5544    966.3356 307.5237214  +6.3063058     2062.001      2973.47     2553.038       78.325     156.2156     312.4623      1.602     3.53     856.6686     55.07657     269.4049        18     1.213     0.916  82.30   0
        42    807.2430    963.1188 307.5820842  +6.3029575     1350.356     2040.959     1973.161       78.325     156.2778     312.4313      1.657     4.47     858.2437     55.07657     205.9214        16     1.312     0.891  75.15   0
        43      5.2210    964.5874 307.9150035  +6.2754972     1171.941     1486.428     1678.131     78.07675     155.9669     288.4246      1.450     3.56     852.8524     55.07657     177.2471        12     1.001     0.863 -44.17  16
        44    668.2179    962.3698 307.6398298  +6.2986269     4929.276     6975.736     7286.796     77.95232     156.0913     312.4002      1.514     3.00     859.4998     55.07657     703.1224        23     1.151     1.042  69.69   0
        45    280.4624    962.5692 307.8008064  +6.2855699     5016.366     7197.879      7564.98     78.07675     156.3399     312.4313      1.575     3.03     859.2164     55.07657     685.8179        29     1.268     1.116  69.93   0
        46   1018.0745    961.9781 307.4945874  +6.3104527     733.4474     982.3483     1384.021     77.95232     156.1535      304.278      1.642     5.23     855.3331     55.07657     97.69348         8     1.098     0.705   8.53  16
        47    490.6263    961.0792 307.7136044  +6.2932234     1183.177     1835.077     2144.699     78.20097     156.1535     312.4313      1.680     3.80     860.2375     55.07657     159.3246        13     0.990     0.941  88.83   0
        48     49.2281    960.0711 307.8968867  +6.2788405     2382.835     3365.053     3644.285     78.07674     156.2778     312.4002      1.566     3.47     853.9668     55.07657     322.2678        20     1.228     0.947  80.79   0
        49    899.7834    958.9368 307.5438023  +6.3077691     920.0732     1449.531     1310.599      77.8277     156.2156      312.307      1.588     4.36     857.2007     55.07657     131.3123         7     0.786     0.689  46.44   0
        50    991.9789    957.3714 307.5055758  +6.3114860     567.4874     1016.304     673.9561     77.70287     156.0913     312.3691      1.778     5.06     855.6803     55.07657     121.6986         5     0.987     0.735 -62.95   0
        51    316.3573    955.9240 307.7861276  +6.2895164       841.89     1382.865     1263.867     78.20097     156.2778     312.4934      1.788     4.36     859.5469     55.07657     136.1611         9     1.112     0.624 -86.59   0
        52    972.0950    955.9093 307.5138802  +6.3114276     740.9787     1121.836     1152.379       78.325     156.7739     312.4623      1.549     5.00     856.0264     55.07657     88.39697         9     0.960     0.736 -70.30   0
        53    593.1364    954.9193 307.6712514  +6.2991944     1925.316     3056.323     3539.812     78.44884     156.3399     312.4313      1.751     4.69     859.8847     55.07657     248.4313        21     1.404     1.086  32.60   0
        54    632.1014    951.4857 307.6551890  +6.3019139     1424.577     1836.866     1937.576       78.325      156.712     312.5245      1.442     3.60     859.5456     55.07657     202.1696        13     0.977     0.952 -85.95   0
        55     82.1929    952.3067 307.8834630  +6.2831534     652.3113     1041.213     1416.905     77.95232     155.9669     312.2759      2.023     4.22     854.5953     55.07657     111.7657         5     1.113     0.456   4.05   0
        56    311.8297    948.8723 307.7882441  +6.2922759     1482.421     2043.599     2371.021     78.20097     156.2778     312.4313      1.458     3.55     859.2267     55.07657     222.0144        12     1.059     0.804  79.60   0
        57    579.8402    948.3807 307.6769907  +6.3014494     691.3705      1164.93     957.3922     77.95232     156.0913     312.1826      1.685     5.83     859.8638     55.07657     96.28326         8     1.016     0.943  62.09   0
        58    778.8015    945.4818 307.5944823  +6.3092903      971.277      1441.77     1337.312     77.57785     155.8424     312.2137      1.612     5.53     858.3245     55.07657     109.8834        11     1.227     0.703 -82.07   0
        59    916.4682    941.6379 307.5374525  +6.3154669     7039.195     10984.76     11278.41     78.20097     156.2778     312.5555      1.685     3.33     856.6672     55.07657     874.8716        35     1.356     1.209  69.67   0
        60    154.8347    942.8196 307.8536251  +6.2895090      647.337     953.6935     858.5782      77.8277     156.0913     312.2448      1.650     4.78     856.0573     55.07657     103.1493         7     1.009     0.641   2.69   0
        61    452.4799    938.7328 307.7301910  +6.3011725     2421.777     3357.413     3570.158     78.44884      156.464     312.4623      1.500     3.16     859.7789     55.07657     337.3581        17     1.130     0.880  74.76   0
        62    354.0619    937.2181 307.7711021  +6.2985023     10708.49     15069.27     15621.77     77.95232     156.2156     312.3381      1.479     2.89     859.3253     55.07657     1613.657        34     1.262     1.093  84.67   0
        63    274.1098    936.1736 307.8043305  +6.2962541      7922.59     11119.01     11758.97     78.44884     156.0291      312.307      1.468     2.84     857.9777     55.07657     1221.105        29     1.257     1.039  81.71   0
        64    192.6238    935.2063 307.8381928  +6.2939203     502.4706     626.3127     655.6318      77.8277     156.0913     312.3381      1.225     2.71     856.3066     55.07657      97.3252         5     0.725     0.447 -70.99   0
        65    602.2901    930.5928 307.6682657  +6.3095434     1228.888     2014.741     2197.654     77.95232     155.9669     312.2448      1.856     4.44     859.3265     55.07657     182.0889        13     1.163     0.863  49.96   0
        66    786.3783    930.0064 307.5918538  +6.3159321      718.736     873.7292     1077.918     77.95232     156.0913     312.2759      1.420     4.95     857.9586     55.07657     113.3094         7     1.205     0.575  52.39   0
        67    932.0623    926.8471 307.5314716  +6.3220929     1016.226     1362.801     736.0814     78.20097     156.1535     312.4934      1.365     3.77     856.2284     55.07657     161.0394        10     1.082     0.624  80.85   0
        68    164.7924    926.4102 307.8500431  +6.2966177     768.5966     1131.633     1175.701      77.8277     156.0913     312.3691      1.707     3.17     855.8859     55.07657     148.2776         9     1.001     0.743  82.11   0
        69    888.2749    925.2242 307.5497063  +6.3213039     733.3657      1139.23     552.2978     77.95232     156.0913     312.4002      1.674     5.04     856.4897     55.07657     93.23395         8     1.029     0.698  59.98   0
        70    430.9595    924.8679 307.7395908  +6.3061762     665.4983     986.4839     705.3464     78.20097     156.2156     312.5245      1.564     4.50     859.6289     55.07657     108.9904         7     1.023     0.562  60.63   0
        71    999.3299    921.8272 307.5037093  +6.3264054     661.8546     956.8895      955.358     77.95232     156.1535     312.4002      1.664     5.60     854.7317     55.07657     79.00653         9     1.434     0.617 -79.24   1
        72    768.5236    920.0110 307.5996011  +6.3194631     1778.243     2658.158      2931.17     77.95232     155.9046      312.307      1.489     3.67     858.1664     55.07657      280.881        15     1.151     0.862  51.58   0
        73    861.1534    920.2713 307.5611326  +6.3224448     733.6003       960.67     1098.895       78.325     156.2778     312.4623      1.389     2.81     856.6651     55.07657     116.6681         7     0.832     0.569 -26.88   0
        74    592.2222    920.2676 307.6727915  +6.3134697      655.019     831.6653      486.221     77.95232     156.2156     312.4313      1.508     4.40     859.3243     55.07657     95.21515         5     0.785     0.701 -60.61   0
        75    644.3177    916.2222 307.6512974  +6.3168806      618.815     653.0907     546.1315     78.07675     155.9669     312.3691      1.328     4.99     858.9041     55.07657     81.80829         7     1.009     0.699  83.98   0
        76    632.4830    916.2443 307.6562104  +6.3164761     861.5122     1055.093     1040.744       78.325     156.2778     312.4623      1.466     3.86     858.9788     55.07657     113.9794         9     0.888     0.758  59.31   0
        77    553.9070    915.7126 307.6888521  +6.3140693     1307.902     1773.929     1370.957       78.325      156.712     312.5555      1.417     4.21     859.6582     55.07657     185.8436        14     1.276     0.789  89.13   0
        78     19.0007    916.9437 307.9108879  +6.2956290     901.8214       1263.4     1016.161     77.57785     155.9669     312.1826      1.511     2.95     852.2188     55.07657     150.3992         9     0.801     0.754   0.66   0
        79    999.9256    915.4092 307.5036761  +6.3290749     1312.602     1791.593     1735.061     77.95232     155.8424     312.3381      1.532     3.25     854.5777     55.07657     202.2728        14     0.984     0.939  38.77   0
        80    687.2019    913.1227 307.6335960  +6.3195925     2698.796     3633.066     4282.283     77.70287     155.7801     312.2759      1.404     2.93     858.6435     55.07657     429.6577        18     1.155     0.860  75.49   0
        81    977.0728    910.7576 307.5133200  +6.3302345     731.6687     1083.841     1110.277     78.20097     156.3399     312.4934      1.714     4.61     854.9726     55.07657     129.2885         7     1.183     0.758  -8.34   0
        82     83.6904    909.3228 307.8842883  +6.3009487     3238.484     4832.916     4869.288     78.07675      156.526     312.4623      1.585     3.26     853.4547     55.07657     419.3298        25     1.320     1.018 -75.87   0
        83    847.6581    909.6477 307.5670908  +6.3263809     1004.893     1444.999     1730.173       78.325     156.2778     312.5866      1.734     3.97     856.8323     55.07657     136.2639        12     1.042     0.900 -78.24   0
        84    584.7795    909.7222 307.6762349  +6.3175745     605.7101     721.1421     967.3373     77.95232     156.0291     312.4313      1.391     4.19     859.2933     55.07657     87.50037         6     0.769     0.652 -67.58   0
        85    227.2092    908.2261 307.8247413  +6.3062190      2430.94     3577.178     3420.327     77.95232     156.0913     312.3381      1.511     3.49     856.3025     55.07657     367.8398        20     1.229     0.999  82.44   0
        86    101.1038    908.6107 307.8770829  +6.3018276     2169.935     3262.582     3299.386     78.07674     155.9046     312.2448      1.544     3.59      853.868     55.07657      335.885        19     1.316     0.837  74.28   0
        87    964.9224    908.3582 307.5184450  +6.3308206     883.1757     1276.762     1113.649     78.20097     156.2778     312.5245      1.381     3.83     855.1584     55.07657     133.0778         8     0.871     0.683 -52.57   0
        88    261.2536    905.1110 307.8107118  +6.3086468     794.6287     1222.931     1285.373       78.325     156.0913     312.5866      1.571     5.18     857.1751     55.07657     120.6702         9     0.988     0.767 -48.58   0
        89    365.9924    904.1296 307.7672597  +6.3125623     938.4427     1455.202      1492.82      77.8277     155.9046     312.3691      1.602     2.89     858.7368     55.07657     151.6163         9     0.921     0.656 -71.24   0
        90    681.7388    902.2369 307.6362285  +6.3239042     7766.194     10852.48     11260.44       78.325     156.3399     312.4623      1.495     2.91     858.4357     55.07657     1054.543        32     1.280     1.071  77.86   0
        91    819.2877    902.4440 307.5791110  +6.3284090     809.9201      1052.72     1589.545       78.325     156.1535     312.4934      1.571     5.01     857.2841     55.07657     102.3954         9     1.166     0.610  75.55   0
        92     41.8667    900.6453 307.9019439  +6.3031259     1400.833     2145.015     2441.869       78.325     156.2156     312.4934      1.587     3.85     852.1748     55.07657     189.4062        16     1.196     0.916 -65.17   0
        93    470.8268    900.2366 307.7238648  +6.3176795      503.398     508.3346     601.5513     77.95232     156.0913     312.2759      1.386     4.46      859.001     55.07657     100.1501         6     0.975     0.580  64.90   0
        94    919.6016    898.4747 307.5375925  +6.3333914     2918.363     4251.803     4230.611      77.8277     155.7177     312.3381      1.598     3.23     855.7969     55.07657     364.5368        23     1.208     1.051 -86.22   0
        95     54.9393    899.2299 307.8965644  +6.3041495     1288.315     1678.017     1742.117     78.07674     156.2778     312.4313      1.483     3.76     852.4528     55.07657     175.1393        13     1.073     0.830  72.24   0
        96    794.7401    898.9617 307.5894197  +6.3290280     561.5721     930.4981      505.138       78.325     156.3399     312.4934      1.872     4.56     857.6467     55.07657     102.1722         5     0.859     0.687 -47.96   0
        97    364.7835    895.4711 307.7680523  +6.3160964     18566.97     25769.95     26644.59      77.8277     156.2156     312.3691      1.502     2.90     858.5616     55.07657     2450.537        41     1.297     1.109  83.45   0
        98     99.3627    896.4433 307.8782153  +6.3067922     1571.589     2356.431     2150.094     78.07675     156.2778      312.307      1.577     3.78     853.5608     55.07657      223.886        15     1.180     0.841  71.61   0
        99    372.8028    895.6366 307.7647172  +6.3162967     635.1582     832.5093     805.1885     77.45262     156.0913     312.2759      1.335     4.19     858.6309     55.07657     98.95203         6     0.731     0.684 -75.13   0
       100    235.6409    894.8207 307.8216913  +6.3120360     1461.563     1821.179     1580.293     77.95232     156.0913     312.2759      1.351     3.42     856.4422     55.07657      191.679        14     1.033     0.898  77.82   0
       101    415.7318    894.9359 307.7469173  +6.3180236     719.6887       764.39     329.1245       78.325     156.2778     312.5245      1.342     5.70     858.8743     55.07657     106.7496        10     1.293     0.707  44.30   0
       102    442.3027    886.4589 307.7361698  +6.3224128     1194.292     1744.905     2004.967     78.07675     156.2778     312.5866      1.714     4.39     858.7271     55.07657     186.0612        12     1.239     0.794 -73.14   0
       103    128.0145    886.0978 307.8666682  +6.3120254     1789.446     2475.271     2457.969     78.20097     156.0291     312.2448      1.452     3.62     854.0214     55.07657     248.7279        14     1.202     0.747 -85.51   0
       104    522.9188    883.2829 307.7028050  +6.3264215     749.2548     858.8198     1348.315     78.20097      156.526     312.5555      1.462     4.10     859.0611     55.07657     124.0204         8     1.060     0.544  59.65   0
       105    696.2556    882.4202 307.6308643  +6.3325704     1004.643     1551.096     2399.943      77.8277     156.2778     312.2759      1.727     3.60     858.0353     55.07657      147.646        10     0.889     0.821 -78.76   0
       106    880.4618    879.7361 307.5544696  +6.3398236     2243.761      3272.11     3234.399       78.325     156.2778     312.4934      1.532     3.72     856.1481     55.07657     300.4277        21     1.399     0.857  73.10   0
       107    843.8950    879.1285 307.5696730  +6.3388554     3248.195     4947.754     5249.207     78.20097     156.3399     312.4623      1.568     3.24     856.7689     55.07657     475.4419        24     1.298     1.054 -82.89   0
       108    909.8431    880.0527 307.5422595  +6.3406720     2125.393     3193.615     3778.271       78.325     156.2778     312.4934      1.640     3.51     855.6322     55.07657      272.532        18     1.105     1.006  82.46   0
       109    111.5187    879.5599 307.8737368  +6.3141705     2846.227     3904.461     4126.083       78.325     156.3399     312.4002      1.526     3.00     853.5309     55.07657     397.6608        20     1.144     1.015 -81.61   0
       110    579.8583    870.6665 307.6795865  +6.3335341     379928.9     521456.2       540434     78.44884     156.2156     312.4623      1.480     2.89      858.893     55.07657     55148.91       161     1.453     1.271  77.66   4
       111    667.6342    873.8268 307.6430356  +6.3351623      1371.28     1983.474     2164.793      77.8277     156.0291     312.2448      1.513     3.33     857.9686     55.07657     224.6426        13     1.166     0.723  74.73   0
       112    424.0708    873.2364 307.7441831  +6.3272613     8529.666     11683.91     11742.01     78.20097     156.2778     312.5245      1.441     3.08        858.3     55.07657     1240.648        31     1.227     1.068  82.53   0
       113    367.2913    871.6209 307.7678118  +6.3260268      14356.7     19629.18      20277.8     78.20097     156.0913      312.307      1.472     2.93      858.137     55.07657     2065.674        38     1.261     1.101  84.13   0
       114    918.2086    866.7358 307.5392306  +6.3464486     5508.441     8382.653     8873.697      77.8277     156.0291     312.3381      1.648     3.31      855.258     55.07657      704.916        31     1.375     1.266  20.74   2
       115    912.6906    867.2768 307.5415037  +6.3460414     567.5744     701.1298     804.2559     78.20097      156.526     312.4934      1.308     3.14     855.3604     55.07657     103.1777         5     0.751     0.493  26.35   2
       116    685.7341    867.8993 307.6357187  +6.3382140     3988.654     5605.839     6137.475       78.325     156.4019     312.4313      1.470     2.91     857.7697     55.07657     561.3785        21     1.137     0.950  70.09   0
       117    757.1757    864.6736 307.6061632  +6.3419306     714.5089     828.7574     582.6484     77.95232     156.0913     312.4002      1.198     4.23     857.6321     55.07657     124.9749         7     0.771     0.662 -11.92   0
       118    660.4988    861.9464 307.6463960  +6.3398288     3780.195     5294.448     5744.074     78.20097     156.2778     312.6797      1.468     2.93     857.8522     55.07657     544.0071        23     1.266     0.908  72.41   0
       119    848.8622    860.9671 307.5682173  +6.3465190     1730.571     2434.116     2448.288     78.07675     156.3399     312.4002      1.409     3.26     856.5681     55.07657     239.1515        15     1.098     0.893  44.54   0
       120    650.8851    860.7072 307.6504291  +6.3400193     1082.718     1730.013     2247.722     78.07675      156.712     312.5555      1.660     4.92      857.967     55.07657     182.0095        12     1.323     0.683  81.81   3
       121    653.4174    856.5283 307.6495176  +6.3418291     2471.181     3619.042     4194.711      77.8277     156.2157     312.3691      1.588     3.37     857.8123     55.07657     333.8969        19     1.227     0.915  79.08   3
       122    474.5157    877.1937 307.7231059  +6.3273160     635.8566       796.41     1537.924     77.95232     155.9669      312.307      1.725     3.50     858.7896     55.07657     103.0739         6     0.880     0.644  -5.21   0
       123    976.5072    859.9822 307.5152491  +6.3511787       875.22      1154.39     1207.133     78.20097     156.0291     312.3381      1.492     4.79     853.9348     55.07657     153.0714        11     1.289     0.656  31.45   0
       124    937.0240    854.5874 307.5318236  +6.3520910     3542.858     5278.584     6018.307     78.07674     156.0913     312.4002      1.608     3.16     854.6743     55.07657     471.3925        27     1.290     1.137  43.74   0
       125    347.3505    855.5026 307.7766322  +6.3320130     1337.214     1635.938     1264.438     78.20097     156.2157     312.6176      1.344     2.91     857.6401     55.07657     205.3391        12     0.909     0.855  85.29   0
       126    395.0879    850.5029 307.7569796  +6.3356762     3037.597     4272.896     3852.192       78.325      156.712     312.4934      1.516     3.22     857.5422     55.07657     432.5909        19     1.116     0.943  74.71   0
       127    531.3732    840.3041 307.7007353  +6.3444479      3652.45     4976.439     4550.623     78.44884     156.0291     312.3691      1.464     3.02     857.7025     55.07657     538.3761        21     1.191     0.933  76.74   0
       128    876.4347    839.3626 307.5574903  +6.3563577     1184.957     2024.538     2372.361     78.07675     156.0913     312.2448      2.002     4.71     855.8273     55.07657       171.04        16     1.194     1.078 -54.85   0
       129    596.4711    838.0695 307.6737807  +6.3475470     817.1561     1126.687     1028.864       78.325     156.4019     312.4313      1.438     2.60      857.609     55.07657     159.3098         6     0.752     0.498  86.37   0
       130    578.1752    836.4243 307.6814325  +6.3476146     7038.736     9688.063     9986.556      77.8277     156.0913     312.3691      1.445     2.87     857.5227     55.07657     1023.596        27     1.188     1.018  83.88   0
       131    585.2299    835.7168 307.6785270  +6.3481425      1445.31     2143.134      2213.93       78.325     156.0913     312.3691      1.621     3.61     857.5214     55.07657     250.0839        13     1.174     0.774 -78.59   0
       132    496.1137    835.4254 307.7155390  +6.3452826     1654.307     2227.255     2011.883     78.44884     156.0913      312.307      1.466     3.37     857.4684     55.07657     243.0468        11     1.032     0.682  69.82   0
       133    289.2852    836.2983 307.8013857  +6.3379952     654.8771     929.7404     1074.955       78.325      156.712     312.5245      1.569     4.32      856.626     55.07657     115.3997         5     0.745     0.713  74.98   0
       134    137.5694    834.4379 307.8644395  +6.3336731     1485.619     2074.777     1740.049     77.95232     156.0291      312.307      1.599     4.28     852.7747     55.07657     203.1952        14     1.246     0.780  75.73   0
       135    913.9152    834.4890 307.5420900  +6.3596188     1632.258     2066.782     2090.327     78.07674      156.526     312.5866      1.362     3.42      854.897     55.07657     205.7542        12     0.999     0.786  88.41   0
       136    713.8390    832.9527 307.6252185  +6.3535801      703.766     1208.243      1414.08     78.20097     156.2778     312.2759      1.622     4.43     857.0869     55.07657     89.57367         8     0.856     0.651 -46.81   0
       137    548.9611    830.3272 307.6937669  +6.3491550     22430.88     30567.26     30963.93     78.20097     156.2156     312.5245      1.458     2.97     857.2577     55.07657     3107.555        44     1.282     1.114  74.56   0
       138    389.9860    831.8395 307.7597244  +6.3432103     783.9913      1069.26     664.4931      77.8277     156.0913     312.2137      1.430     3.82     856.9022     55.07657     143.8766         8     1.039     0.642 -82.50   0
       139    962.6217    828.5593 307.5220634  +6.3636894     3894.848      5787.86     5803.569     77.95232     156.0913     312.2759      1.610     3.21     853.5073     55.07657     534.9703        25     1.311     1.054  78.52   0
       140    195.1791    829.9652 307.8406710  +6.3374533     673.2679     725.5689     410.8777      77.8277     156.0913     312.2448      1.233     3.10      854.152     55.07657     111.7318         6     0.874     0.475  56.97   0
       141     82.4748    826.2493 307.8875897  +6.3352033     687.4561     853.6169     808.7946       78.325     156.3399     312.4934      1.167     2.89     851.1329     55.07657     117.8817         5     0.730     0.425  63.80   0
       142     59.4187    820.7874 307.8973461  +6.3366835     1740.118     2650.875     2598.155     78.07675     155.9669     312.3691      1.685     3.91     850.4147     55.07657     246.5123        17     1.232     0.906 -86.66   0
       143    341.5052    818.9208 307.7802876  +6.3469196      3724.28     5313.427     5802.695     78.07674      156.526     312.5245      1.514     3.01     856.2858     55.07657     510.3438        23     1.245     0.949  70.79   0
       144    807.1218    814.8517 307.5870902  +6.3641660     61026.69     85889.41     88803.25       78.325     156.3399     312.4623      1.485     2.97     856.2875     55.07657     9323.991        63     1.359     1.181  72.72   0
       145     41.5123    817.1108 307.9049044  +6.3375995     2325.787     3397.911     3097.462     78.07674     156.7739     312.5555      1.561     3.14     849.9155     55.07657     357.1236        21     1.213     0.991  82.41   0
       146    745.8116    816.5235 307.6124922  +6.3614302     819.0092     1181.347     1771.245     77.95232     155.9046      312.307      1.639     3.97     856.8338     55.07657     122.3712         8     1.033     0.705  74.16   0
       147    450.3323    813.5432 307.7352819  +6.3527844     883.6856     1043.214     670.9389     78.44884     156.2157     312.4313      1.192     4.49     856.4899     55.07657     122.7585         8     1.104     0.520  68.57   0
       148    264.2649    812.7990 307.8125638  +6.3468577     5786.672     8404.168     9874.509     77.57785     155.9669     312.2137      1.590     3.02     855.3442     55.07657     843.9135        26     1.209     1.033 -80.93   0
       149    932.4462    810.0147 307.5352125  +6.3703406     9134.919     13555.47     14289.12     77.70287     156.0913     312.2448      1.570     3.06     854.1091     55.07657     1278.132        36     1.366     1.133  83.45   0
       150    735.3571    809.4481 307.6170700  +6.3640024     24402.82      34045.6     36091.75       78.325     156.2157     312.4002      1.528     2.88     856.7628     55.07657     3516.418        47     1.362     1.119  71.34   3
       151    729.0739    805.9411 307.6197963  +6.3652405      99404.6     136714.9     142260.2     78.44884     156.2778     312.4623      1.457     2.97     856.6705     55.07657     15161.32        74     1.386     1.151  74.02   3
       152    373.9216    806.8461 307.7672334  +6.3529906      23623.1     32494.75     33438.98       78.325     156.3399     312.4313      1.450     3.01     855.9928     55.07657     3401.694        44     1.319     1.078  82.74   0
       153    435.7839    804.6729 307.7416202  +6.3559594     25285.96     34440.59      35543.6      77.8277     156.1535     312.3691      1.450     2.87     856.1445     55.07657     3659.579        45     1.304     1.089  76.24   0
       154    423.2151    806.8976 307.7467644  +6.3546202     1595.548     2044.309      1944.29     78.20097     156.0291     312.2448      1.393     2.99     856.1997     55.07657      259.385        14     1.044     0.855  77.11   0
       155    662.4358    806.1759 307.6474586  +6.3629183      932.614     1394.417     1364.984     77.95232     156.0913     312.2448      1.605     4.60     856.2599     55.07657     157.9205         8     1.262     0.566  76.04   0
       156    263.9341    791.2563 307.8134252  +6.3557402     772253.7      1636833      1778567     78.44884     156.2156     312.4623      2.158     4.42     854.4453     55.07657     63920.75       550     2.289     2.017  77.32   4
       157    669.8551    800.5721 307.6445655  +6.3654797     7321.467     10018.03     10704.31     77.95232     156.3399      312.307      1.447     2.92     856.1462     55.07657     1037.525        26     1.206     0.994  75.19   0
       158    458.5837    798.6251 307.7323562  +6.3592195     1953.018     2467.104     2469.801     78.07675     156.1535     312.4002      1.333     3.09     855.9283     55.07657     269.7101        15     1.108     0.813  84.58   0
       159    184.1316    798.1689 307.8463273  +6.3502092     1020.276     1449.388     1351.831     78.20097     156.2778     312.4313      1.511     4.78     852.8776     55.07657     148.3959        11     1.138     0.870  19.26   0
       160    973.0942    803.4850 307.5185517  +6.3743902     2149.422     3204.548     3335.325     78.20097       156.65     312.5555      1.583     3.48     852.5541     55.07657     299.9634        18     1.161     0.999  42.07   0
       161    929.2949    801.4545 307.5368068  +6.3737698     7344.926     10582.26     11143.79     78.20097     156.2778     312.6797      1.547     3.00     854.0819     55.07657     1009.834        32     1.274     1.126  69.72   0
       162    757.7182    795.7037 307.6082446  +6.3704230      581.183     886.6638     1401.834     78.20097      156.588     312.5555      1.699     4.42     856.3249     55.07657     92.63483         6     1.031     0.538  34.67   0
       163    897.9427    792.4775 307.5501254  +6.3764313     731.4134     956.5753     782.0124       78.325     156.2156     312.4313      1.560     4.52     854.6353     55.07657     114.8597         8     0.922     0.658  55.19   0
       164    622.5233    792.4156 307.6644923  +6.3672658     935.3508     1324.227     1205.936      77.8277     156.0291     312.3381      1.527     4.40     855.7183     55.07657     151.6902         8     0.953     0.765  76.45   0
       165    174.2943    791.7345 307.8506282  +6.3525354     1144.702     1638.586     1206.918       78.325     156.4019     312.4934      1.563     3.93     852.2728     55.07657     180.3885        13     1.183     0.809  63.97   0
       166    704.8449    790.7000 307.6303669  +6.3707239     2907.765     4028.607     3906.163       78.325     156.1535     312.6797      1.446     3.13     856.1556     55.07657     418.4491        16     1.116     0.839  71.93   0
       167    149.0439    791.3713 307.8611245  +6.3518377     1146.505     1487.235     1535.603     77.95232     156.3399     312.3691      1.383     3.05     851.5649     55.07657     187.9603        11     1.011     0.682  72.89   0
       168    438.7237    787.3722 307.7409800  +6.3632003     61417.46     83764.41     86520.87     78.20097     156.2778     312.4313      1.462     2.83     855.3744     55.07657       8517.7        63     1.335     1.156  73.19   0
       169    982.0392    788.9062 307.5153238  +6.3807071     746.2469     1153.502      1362.09     78.44884     156.2156     312.5555      1.549     4.60     852.0058     55.07657     134.4946         8     1.008     0.596  69.73   0
       170    556.5276    786.3397 307.6920993  +6.3675681     8190.295     11179.19     11689.45     78.44884     156.2778     312.4934      1.473     2.84     855.4866     55.07657     1171.665        33     1.274     1.048  70.50   0
       171    473.2853    785.1237 307.7267046  +6.3652855      5209.13     7154.327     7933.588     78.44884      156.588     312.5245      1.476     2.89     855.4565     55.07657     783.3436        24     1.243     0.920  70.97   0
       172    801.6603    782.9471 307.5904246  +6.3771558     12993.04     18310.56      19285.9       78.325     156.2156     312.4623      1.490     2.89     855.4656     55.07657     1831.004        37     1.289     1.098  77.82   0
       173    469.8226    778.2881 307.7283717  +6.3679916     2653.016     3740.784     4147.729       78.325     156.0913     312.3381      1.478     2.90     855.1944     55.07657     379.7219        18     1.106     0.914  85.08   0
       174     30.6117    779.2954 307.9107041  +6.3528445     1228.712     1574.394     1619.446     78.07675     156.0291     312.2448      1.342     2.92     849.0087     55.07657      189.931         9     0.928     0.657  55.40   0
       175    823.5207    777.1091 307.5815423  +6.3802951     1328.298     1568.774     1778.169     78.07674      156.464     312.5245      1.320     2.88     855.2189     55.07657     217.7068        14     1.039     0.838  85.45   0
       176    901.9979    802.1107 307.5481198  +6.3725893     818.7721     1019.838     1063.683     77.70287     155.9046     312.2137      1.363     5.01     854.7786     55.07657      121.972         8     1.000     0.710  12.02   0
       177    167.5342    775.1830 307.8539919  +6.3591415     3351.213     4666.252     4718.462      77.8277     156.2156     312.3381      1.503     3.23     851.1905     55.07657     468.9644        20     1.249     0.915  88.64   0
       178    159.4415    774.9928 307.8573584  +6.3589483     12879.76     18245.87      18988.7     77.70287     155.9669     312.1826      1.486     2.93     850.9501     55.07657     1928.958        40     1.303     1.152  62.34   0
       179    991.8339    776.2793 307.5116779  +6.3862463     549.7672     773.0094     1618.885     78.20097     156.2778     312.4934      2.004     4.62     851.5139     55.07657     102.6955         5     0.969     0.627 -30.55   0
       180    151.5364    772.4335 307.8607268  +6.3597395     3328.658     4665.476     5172.713     78.20097     156.3399     312.4313      1.542     3.10     850.6843     55.07657     464.3615        23     1.280     0.987 -73.45   1
       181    947.1852    771.5233 307.5303772  +6.3867230     6890.177     9912.632     10428.34     77.95232     156.0291      312.307      1.553     3.08     852.7905     55.07657     970.2786        31     1.305     1.085  81.66   0
       182    996.3676    771.2257 307.5099639  +6.3884837     1756.427     2552.636     3301.227      77.8277     156.0913      312.307      1.574     3.35     851.3356     55.07657      232.408        16     1.114     0.886  66.08   0
       183    702.6827    769.1025 307.6319875  +6.3795683     1932.871     2684.263     2985.894       78.325       156.65     312.5245      1.454     2.87     855.5908     55.07657     288.6061        14     1.012     0.843  84.93   0
       184    589.6129    768.6227 307.6789548  +6.3759887       2676.1     3345.988     3336.874     78.07675     156.0913     312.3691      1.316     3.15     854.9608     55.07657     376.7831        14     1.091     0.763  60.13   0
       185    437.4104    767.9951 307.7421755  +6.3711561     1335.222     2055.908     2243.758      77.8277     156.0291     312.3691      1.600     3.52     854.4966     55.07657     232.0073        13     1.244     0.700  62.80   0
       186    151.6554    765.9626 307.8608951  +6.3624149     2192.618     3047.417      3347.75       78.325     156.3399     312.4934      1.485     3.20     850.3841     55.07657     310.7629        20     1.147     1.000  66.20   0
       187    941.4083    763.4163 307.5330467  +6.3898776     3249.819     4706.623     4672.506     77.95232     156.0291      312.307      1.554     3.31     852.7549     55.07657     441.0651        27     1.359     1.059  83.19   0
       188   1001.7269    762.9788 307.5080136  +6.3920669     1895.638     2935.048     2720.351     77.95232     156.0913     312.4002      1.609     3.46     851.0796     55.07657     269.2122        20     1.190     1.051  87.41   0
       189    970.9749    763.0425 307.5207814  +6.3910166     3165.452     4661.888     5074.536     77.95232     156.2156     312.2759      1.572     3.29      851.931     55.07657     447.1725        22     1.308     0.958  66.08   0
       190    693.8156    762.8090 307.6358802  +6.3818705     1613.542     2106.967     2039.326     78.07674     156.0291     312.3381      1.405     3.36     855.3102     55.07657     231.5558        14     1.144     0.786  74.45   0
       191    840.9614    760.8517 307.5748434  +6.3875886     1039.245      1311.53     1205.955     78.07675     156.2778     312.4313      1.469     4.66     854.7335     55.07657     141.5992        10     0.960     0.754  83.64   0
       192    916.1622    758.9991 307.5436778  +6.3908602     906.3931     1267.505     1923.167     77.45262     156.0913     312.2448      1.411     4.63     853.3167     55.07657     135.1348         9     1.000     0.666  54.69   0
       193    266.4953    758.1857 307.8134733  +6.3694789      2222.25     3295.603     3990.799     78.07675     156.0291     312.2759      1.743     3.99     852.7274     55.07657     281.1199        20     1.416     0.857  66.01   0
       194    703.4276    754.9713 307.6321511  +6.3854272     613.7054     980.7712     1164.321      77.8277     156.0913     312.2759      1.993     3.98     855.2433     55.07657     92.94794         5     0.917     0.494 -87.70   0
       195    959.2850    753.0281 307.5259701  +6.3947618     1324.502     1848.738      2040.42     78.44884     155.9669     312.3381      1.578     4.41     852.0646     55.07657     174.8949        15     1.057     1.037 -15.42   0
       196    181.6276    753.0322 307.8488853  +6.3687592     856.4667     1234.722     1111.013      77.8277     156.0291     312.2759      1.567     3.94     850.4426     55.07657     141.3004         9     1.082     0.770  82.55   0
       197    932.9838    752.2369 307.5369183  +6.3942124     1097.579     1479.033     1907.407     77.95232     156.0913     312.2137      1.443     3.59     852.6957     55.07657     178.2348        11     1.113     0.659  71.72   0
       198    286.2500    753.1654 307.8054394  +6.3722139     773.1071     917.9601     1178.344     78.20097     156.2778     312.3691      1.293     3.76     852.8034     55.07657     133.8095         6     0.884     0.487  58.78   0
       199    985.8691    750.7860 307.5150056  +6.3965728     2577.403     3797.733     4314.119      77.8277     156.2156     312.3691      1.538     3.09     851.3557     55.07657      405.425        21     1.192     0.978  55.39   0
       200    705.2357    749.6405 307.6315787  +6.3876884     923.7614     1284.817     1598.815     78.07675     156.2778      312.307      1.676     3.87     855.1533     55.07657     203.7699        10     1.142     0.676 -78.16   0
       201    425.9586    745.5425 307.7476841  +6.3800421     742.6201     709.2045     653.0145       78.325     156.2778     312.4934      1.384     5.17     853.2988     55.07657     104.7957         8     1.121     0.674 -76.66   0
       202    496.6161    744.8351 307.7183681  +6.3826992     711.7226     759.9376     699.1801     77.95232     156.0291     312.2759      1.287     3.03     854.2238     55.07657     116.6448         5     0.720     0.463  74.43   0
       203    829.2277    742.8478 307.5803176  +6.3946303     1273.456     1830.339      1825.36     77.95232     156.3399     312.4002      1.463     3.47     854.2502     55.07657     223.3547        13     1.076     0.928  58.44   0
       204    654.1214    743.5712 307.6530071  +6.3884870     765.5677     1165.533     645.8204     78.20097     156.2778     312.4623      1.631     4.67     854.3556     55.07657     111.6456         8     0.847     0.794  25.45   0
       205    915.0369    739.6666 307.5447907  +6.3988042     1581.681     2331.173     2231.631     78.20097     156.2156     312.5245      1.498     4.25     852.8477     55.07657     250.1223        14     1.263     0.806  65.46   0
       206    889.4556    735.1418 307.5555648  +6.3998198       966.31      1339.16     972.0574     78.44884     156.2778     312.4623      1.433     2.86     853.4029     55.07657     165.8489         9     0.875     0.723  77.19   0
       207    675.6002    734.3188 307.6443978  +6.3930243     652.4542     812.3708     799.0219     77.57785     155.7801     312.1516      1.482     4.18     854.2069     55.07657     93.35852         7     1.033     0.483  84.90   0
       208    872.0347    731.5640 307.5629186  +6.4007162     1645.063      2305.56     2359.275     78.07674     156.0291     312.2137      1.576     3.91     853.7694     55.07657     219.9849        17     1.171     0.997  43.94   0
       209    135.1255    729.5968 307.8689824  +6.3768729     989.4786      2058.27     2259.994      77.8277     155.7801     312.3691      2.089     6.30     848.7919     55.07657     133.4633        16     1.805     0.618  76.04   0
       210     71.1139    730.3405 307.8955362  +6.3744157     2790.781     4087.673     4465.522       78.325     156.3399     312.5866      1.603     3.06     848.5817     55.07657     455.5311        19     1.117     0.960 -77.22   0
       211    483.6263    729.4963 307.7242765  +6.3885970     701.0692     819.7769     1157.016     78.44884     156.0291     312.3691      1.609     4.31     853.6483     55.07657     117.6031         6     1.161     0.455 -53.95   0
       212    683.8275    718.8307 307.6414998  +6.3996933     7204.042     9833.211     10294.17      77.8277     156.0291     312.2759      1.428     2.92     854.0021     55.07657     1027.201        25     1.217     0.970  62.08   0
       213    630.7390    718.2233 307.6635656  +6.3981705     1606.868     2467.123     3373.453     77.95232     156.2156     312.3691      1.708     3.41     853.6193     55.07657     218.6511        17     1.223     0.863  80.28   0
       214    552.0590    718.8305 307.6962175  +6.3952897      807.028     1067.094     752.4493     78.07674     156.2778     312.4313      1.308     2.40     853.2772     55.07657     149.4126         8     0.804     0.631  44.44   0
       215    541.1968    718.4075 307.7007422  +6.3951010     845.1295     1254.177      444.467     77.70287     155.9669      312.307      1.494     5.09     853.2042     55.07657     132.6611        10     1.124     0.894 -68.12   0
       216   1020.8066    714.1197 307.5017205  +6.4128738     2662.225     3934.492     3785.085     77.95232     154.9679     276.3242      1.538     3.14      850.495     55.07657     372.1847        21     1.154     1.031  63.80  16
       217    657.7061    714.5843 307.6524891  +6.4005739     2441.984      3159.98     3033.185     78.07675     156.0913      312.307      1.381     2.93      853.678     55.07657     334.7441        16     1.075     0.875  67.56   0
       218    146.7894    714.7570 307.8646387  +6.3833910     4220.994     5754.471      6268.06      77.8277     156.0913     312.1826      1.446     2.99     848.5059     55.07657     581.4652        25     1.206     1.000  75.33   0
       219    333.4700    714.8201 307.7871204  +6.3896273     873.0926     1053.679     968.3436     77.95232     156.1535     312.4002      1.333     4.02     851.1828     55.07657     125.6632         9     0.911     0.720 -67.82   0
       220    800.6814    710.9337 307.5932388  +6.4068541     22506.71     30916.06     31708.22     78.57248      156.526     312.4934      1.449     2.87     853.7135     55.07657     3161.627        44     1.318     1.081  71.32   0
       221    269.3022    714.0148 307.8137924  +6.3878084     606.5701     886.0916     1261.296     78.20097     156.0291     312.2448      1.417     2.91     850.2063     55.07657     107.0026         7     0.734     0.654 -71.29   0
       222    930.7515    710.7934 307.5392291  +6.4112482     3833.427     5516.326     5690.736      77.8277     156.0913     312.0893      1.488     3.17     851.8089     55.07657     533.1572        26     1.338     0.978  74.93   0
       223    499.9301    711.4478 307.7181116  +6.3965938     1632.588     2006.363     1781.447       78.325     156.2156     312.4934      1.396     4.16     852.9217     55.07657     219.4692        13     1.173     0.751  58.90   0
       224    528.3372    710.9335 307.7063327  +6.3977565     1151.305     1652.488     1739.371       78.325     156.2778     312.4623      1.498     3.27     852.9217     55.07657     181.1396        11     0.998     0.790  88.87   0
       225    345.7786    711.2743 307.7821285  +6.3915036     767.4184     1096.624     544.0259     77.95232     156.1535     312.4002      1.544     3.62     851.2349     55.07657      120.451         9     0.933     0.666  70.21   0
       226    301.5297    710.7294 307.8005207  +6.3902454     618.8357     886.7334      473.799       78.325     156.4019     312.4313      1.304     2.33     850.4587     55.07657     131.0458         5     0.681     0.489  77.73   0
       227    571.8229    709.7151 307.6883159  +6.3997138     445.3066     541.8751     631.4819     78.20097     156.0291     312.3691      1.499     4.81     853.0695     55.07657     67.07483         6     1.186     0.553 -67.30   0
       228    681.2169    703.7662 307.6430882  +6.4058255     7823.229     10827.61     10592.04     77.95232     156.0913      312.307      1.451     3.02     853.6116     55.07657     1196.557        30     1.277     1.026  82.37   0
       229    274.1504    704.6104 307.8120953  +6.3918535     7170.969     9654.302      9900.08      77.8277     156.1535     312.1516      1.447     2.97     849.6849     55.07657     1058.651        27     1.205     1.017  89.80   0
       230    109.7657    705.9193 307.8803094  +6.3857961      516.905      713.352     1288.199     78.20097     156.3399     312.4934      1.190     3.77     848.3558     55.07657     83.13501         5     1.157     0.352 -77.67   0
       231    663.6122    704.6024 307.6503707  +6.4048922     888.0901     1172.248     1354.669     77.95232     155.9669      312.307      1.228     3.52      853.491     55.07657     151.3356         7     0.923     0.627  88.46   0
       232    376.2167    703.5388 307.7697490  +6.3957170     811.2025     813.6437     984.6682      77.8277     156.2156     312.2759      1.230     5.58     851.3707     55.07657     114.5688         9     0.969     0.907 -73.89   0
       233    941.1407    696.3733 307.5353963  +6.4175477      1437.91     2149.219      2338.24     77.95232     156.3399      312.307      1.591     3.94     851.3888     55.07657     196.8094        17     1.264     0.911 -82.99   0
       234    752.9211    692.1523 307.6137003  +6.4130144     4051.636      5850.51     6305.917       78.325     156.3399     312.4002      1.488     3.09     853.7504     55.07657     617.8284        25     1.345     0.938  76.16   0
       235    708.3339    692.5252 307.6322036  +6.4113719     1046.614     1386.573     1210.087     78.44884     156.2778     312.4313      1.471     2.58     853.6141     55.07657     220.3382        10     0.964     0.717  55.64   0
       236   1019.2551    688.8023 307.5032095  +6.4232747     9327.129     13824.56     14077.43     77.70287     156.0291      293.694      1.570     3.15     850.6087     55.07657     1334.479        36     1.331     1.124  79.23  16
       237     18.4661    691.0191 307.9187213  +6.3888792     658.6073     821.2444     419.5337     77.95232     156.2778     312.3691      1.264     3.75     847.9127     55.07657     88.13049         6     1.192     0.339  40.25   0
       238    957.6444    689.1201 307.5287848  +6.4210920     2755.786     3871.891     3087.373       78.325     156.2778     312.4623      1.492     3.11     851.1182     55.07657     365.1536        18     1.185     0.879  68.21   0
       239     38.0129    688.7611 307.9106810  +6.3904685     2096.138      3415.99     3977.386      77.8277     156.0913     312.2448      1.863     3.54     847.9422     55.07657      339.457        25     1.412     1.164 -19.47   0
       240    455.2531    687.5600 307.7374652  +6.4049605     612.3029     826.0284     481.5387     78.20097     156.2778     312.4313      1.390     4.02     851.7516     55.07657     106.9427         6     0.981     0.829  63.05   0
       241    571.8329    687.1693 307.6890674  +6.4090222     711.3061     893.1192     876.1516      77.8277     156.0291     312.1826      1.290     4.05     852.3015     55.07657     127.0726         6     0.776     0.606  84.06   0
       242    557.8202    684.6061 307.6949722  +6.4096118     2287.819     2939.745     3568.015     77.95232     156.0291     312.2759      1.456     3.11     852.0468     55.07657     350.8907        15     1.084     0.834  76.71   0
       243     96.5714    683.6668 307.8865373  +6.3945394     29115.64     40170.38     41902.72     78.07675     156.2156     312.4313      1.500     2.97     847.9823     55.07657     3909.746        52     1.330     1.158  71.97   0
       244    947.6555    680.5538 307.5332190  +6.4242959     1327.495     1833.566       896.02       78.325     156.2778     312.4934      1.514     4.21     851.0704     55.07657     166.1551        13     1.217     0.747  69.18   0
       245    526.5885    681.6219 307.7080417  +6.4097992     1565.925     1964.205     1922.865     77.95232     156.0291     312.3691      1.348     2.57     851.7512     55.07657     238.3113        13     0.953     0.776  55.08   0
       246    567.0641    678.5605 307.6913362  +6.4124168     1266.435     1596.206     1242.735       78.325     156.2156     312.5245      1.348     3.65     851.9595     55.07657     183.6537        12     1.116     0.723 -86.11   0
       247    742.5040    675.8429 307.6185719  +6.4194000     4022.301     5535.101     5281.466       78.325     156.2156     312.5866      1.463     2.96     853.2759     55.07657     617.1907        25     1.247     0.987  84.70   0
       248    764.5916    674.1061 307.6094575  +6.4208542     4472.609     5866.846     5924.224     77.95232     155.9046     312.2759      1.392     2.87     853.2012     55.07657     664.5161        21     1.143     0.927  81.95   0
       249    596.1086    672.1949 307.6794882  +6.4160158     3531.899     5017.905     4898.601     77.95232     155.9669     312.2137      1.489     2.95      852.198     55.07657     573.9796        24     1.248     0.983  77.98   0
       250    432.1761    672.3915 307.7475572  +6.4104502     1648.664     2362.061     2741.701     77.95232     156.0913      312.307      1.534     3.55      851.041     55.07657     243.1811        12     1.009     0.808  79.46   0
       251    256.4362    671.5662 307.8205619  +6.4049013     1880.989     2782.774     2745.188     78.07675     156.0291     312.2137      1.547     3.32     847.5582     55.07657     262.3856        15     1.109     0.865  81.26   0
       252   1002.9282    669.1365 307.5106461  +6.4308503     8655.247      12655.3     12882.52       78.325     156.2778     312.4934      1.537     3.18     850.4702     55.07657      1215.26        30     1.344     1.040  73.67   0
       253    340.3158    670.8935 307.7857532  +6.4079914     1522.252     2102.178     2306.887     78.07674      156.712     312.5866      1.446     3.69     849.4868     55.07657     208.4049        15     1.179     0.854  51.58   0
       254    556.6420    670.2577 307.6959424  +6.4154960     637.6938     806.7649     725.9603     78.20097     156.2778     312.5245      1.319     5.00     851.5229     55.07657     129.1953         8     1.118     0.634  53.84   0
       255    722.9188    667.7520 307.6269759  +6.4220866     1186.185     1657.576     1167.903       78.325     156.2778     312.4934      1.412     2.98     852.8816     55.07657     195.7195        10     0.913     0.717 -63.37   0
       256    114.0073    665.9196 307.8798947  +6.4024517     880.4558     1289.731     1417.353     77.95232     155.8424      312.307      1.476     3.73      847.554     55.07657     130.1703         8     0.901     0.700  -4.28   0
       257    448.2368    663.4130 307.7411891  +6.4146946     3383.241     4743.748     5142.018      77.8277     156.0913     312.1826      1.519     3.28      850.687     55.07657     511.2144        23     1.268     1.011  85.03   0
       258    161.3139    662.6105 307.8603624  +6.4054064      27569.7     37357.65     38286.23     77.95232     156.0291      312.307      1.472     2.91     847.2858     55.07657     3911.958        43     1.278     1.086  76.10   0
       259    829.7051    663.1680 307.5827828  +6.4275424     1349.167     1683.371     1807.143     78.44884     156.1535     312.5245      1.336     3.12     852.4545     55.07657     187.0276        11     0.908     0.804  55.57   0
       260    380.4720    657.3072 307.7695343  +6.4149459     835.0551     1119.841     1078.393     78.20097     156.4019     312.5245      1.486     5.00     849.5328     55.07657       105.36        11     1.140     0.817  78.76   0
       261    997.8628    652.1158 307.5133177  +6.4377088     7264.409     11276.15     12155.04     78.44884     156.3399     312.4313      1.642     3.31     849.4826     55.07657     946.1627        38     1.520     1.138  45.46   0
       262     42.3921    651.1191 307.9101308  +6.4061554     1363.752     1737.162     1377.371     77.95232     155.9046      312.307      1.394     3.75     847.4871     55.07657     194.3306        13     1.092     0.859  71.40   0
       263    591.3414    647.3664 307.6822998  +6.4261069     56268.92     74553.86      76851.2     78.20097     156.3399     312.4002      1.422     2.84     851.3398     55.07657     8736.257        55     1.299     1.082  74.76   0
       264    234.5776    648.7729 307.8304050  +6.4135779     841.6637      1227.17     1828.502      77.8277     156.0913     312.4002      1.425     4.61     846.7386     55.07657     133.6632         9     1.243     0.485  85.30   0
       265    955.3489    648.8706 307.5310818  +6.4376328     774.3192     1050.522     973.3973     78.20097     156.2156     312.4934      1.412     4.40      850.187     55.07657     129.5725         7     1.054     0.522  65.72   0
       266    816.1515    647.1560 307.5889468  +6.4337009     666.2726     955.0682     591.0795       78.325     156.2156     312.4002      1.222     3.80     851.9625     55.07657     123.4503         6     1.215     0.341  84.58   0
       267    550.4583    647.4133 307.6992761  +6.4247205     805.9256     1036.218     1211.267     77.70287     156.2157     312.1826      1.506     3.30     850.9759     55.07657     141.5471         8     1.030     0.497  87.86   0
       268    521.5292    644.5250 307.7113865  +6.4249452      799.009     1027.702     1223.318     78.57248     156.4019     312.4623      1.489     4.04      850.677     55.07657     115.3357         8     1.002     0.762  69.32   0
       269    198.7917    644.0406 307.8454245  +6.4143308     3152.445     4491.359     4834.934     77.70287     156.0913     312.1826      1.489     3.02     846.5078     55.07657      416.326        20     1.136     0.975 -89.21   0
       270     91.6432    638.2295 307.8901137  +6.4131318     1577.288     2094.578     1589.551     77.95232     156.2778     312.3381      1.357     3.44     846.9205     55.07657     221.5606        17     1.193     0.967  75.04   0
       271    488.6061    631.1758 307.7255064  +6.4293548     72905.29     98072.77     101470.2      77.8277     156.0291      312.307      1.432     2.84     849.8492     55.07657      10417.9        72     1.339     1.136  80.00   0
       272     32.1119    632.9156 307.9150129  +6.4133247     1897.667     2739.543     3048.927     78.07675      156.464     312.5245      1.515     3.24     847.3266     55.07657     262.4784        17     1.178     0.850  74.78   0
       273    674.4650    628.4185 307.6484146  +6.4367073     924.1323     1294.957     802.3329     77.95232     156.2778      312.307      1.555     3.67     850.9346     55.07657     166.6486         9     0.998     0.759  55.34   0
       274    162.9781    626.3495 307.8608915  +6.4204321     1798.172     2907.721     3452.873      77.8277     156.3399     312.3381      1.689     3.10     845.8702     55.07657     277.5464        16     1.065     0.930 -63.76   0
       275    442.0989    624.1406 307.7450559  +6.4307024     1110.589     1301.461     1361.859     78.07674     156.2156     312.5866      1.261     3.44     848.5828     55.07657     199.0607        10     0.987     0.710  69.97   0
       276    958.4766    624.0997 307.5306100  +6.4479638     757.3287     1114.267     1335.667      77.8277     156.4019     312.4934      1.454     3.60     849.3182     55.07657      115.965         7     0.915     0.593  38.40   0
       277    634.5257    622.8698 307.6651868  +6.4376637      1086.68     1365.199     1354.828     78.44884     156.4019     312.4623      1.470     4.46     850.6633     55.07657     141.7458        11     1.020     0.802  41.98   0
       278    516.3890    622.0541 307.7142746  +6.4340503     586.9329     796.9587     1485.381     77.70287     156.2156     312.1516      1.770     3.21     849.9887     55.07657     92.73981         5     0.863     0.487  87.88   0
       279    342.8427    621.6280 307.7863588  +6.4284148     662.9641     765.3362     699.1573     77.95232     156.2778     312.3381      1.308     5.41     847.1122     55.07657     128.9739         8     1.126     0.733  81.99   0
       280    334.0259    620.5227 307.7900573  +6.4285756     2358.919     3311.403     3291.765     78.07674     156.2156     312.4313      1.494     3.31      846.998     55.07657     316.4808        15     1.139     0.772  86.11   0
       281     34.9050    621.9724 307.9142218  +6.4179363     690.7012     681.5216     1381.334     78.44884     156.0291     312.3691      1.280     4.40      847.165     55.07657      114.072         7     0.971     0.568 -77.74   0
       282    486.0048    619.2672 307.7269862  +6.4341841     987.0845     1294.972     1355.694      77.8277     155.9669     312.2759      1.353     3.17     849.3544     55.07657     201.2267         9     1.009     0.659  63.39   0
       283    760.6243    614.7667 307.6130901  +6.4452202     6009.799     7964.258     8202.144      77.8277     156.0913     312.2759      1.407     2.89     850.6017     55.07657      862.601        26     1.193     0.981  79.98   0
       284    814.2207    609.9377 307.5909930  +6.4490022     15849.96     21375.62     21941.63     77.95232     156.2778     312.3381      1.429     2.85     850.4952     55.07657     2598.056        37     1.294     1.010  73.11   0
       285    556.4628    609.8771 307.6980409  +6.4404180     1248.102     1872.547     2014.826     78.57248     156.3399     312.4313      1.776     3.17     850.2599     55.07657     220.4164        11     1.100     0.679  81.79   0
       286    638.1148    607.9829 307.6641949  +6.4439296     3325.908     4521.827     4453.654     77.95232     156.0291     312.4002      1.404     2.91     850.0977     55.07657     524.8718        19     1.248     0.804  84.35   0
       287     59.3511    609.4152 307.9044935  +6.4239420     731.8773     1010.029     1170.277     77.70287     156.2156     312.1826      1.536     4.82     846.6658     55.07657     116.2346         7     0.896     0.734  61.85   0
       288    955.3408    604.2608 307.5325747  +6.4560499     1273.281       1992.6     2381.797       78.325     156.2778     312.4934      1.710     3.92     848.8335     55.07657     163.3334        13     1.170     0.753  84.70   0
       289    250.4400    601.7573 307.8253989  +6.4335199     1414.024     1773.514     1759.776     78.07675     156.2778     312.3381      1.222     2.78     845.6075     55.07657     226.7511        13     1.020     0.781  83.60   0
       290    213.9083    602.8474 307.8405328  +6.4318441     568.3503     608.1048     679.4954       78.325     156.2156     312.5866      1.137     3.92     845.1858     55.07657     96.84033         6     0.788     0.559  39.93   0
       291    396.3281    601.6320 307.7648191  +6.4384621     959.8926     1416.434     1372.488     78.20097     156.2778     312.4313      1.516     4.28     846.7139     55.07657     146.4756        11     1.129     0.784  67.76   0
       292    890.2853    593.1226 307.5599650  +6.4584807      3229.32      4580.67     5079.406       78.325      156.588     312.5555      1.575     3.09     849.9756     55.07657      474.701        22     1.177     0.994  70.43   0
       293    185.1139    593.5724 307.8528023  +6.4347067     691.5989     859.9319     1642.452     78.44884     155.9669      312.307      1.328     2.87     845.1362     55.07657     132.8453         6     0.754     0.591  48.71   0
       294    848.9009    590.6568 307.5772347  +6.4581190     2852.812     3904.763     4191.688     78.07674     156.2778     312.6487      1.441     3.00     850.2427     55.07657     424.2811        18     1.154     0.861  66.48   0
       295    819.9787    586.5775 307.5893828  +6.4588386     2849.771     4240.077     4936.819     78.07674     156.0913     312.4313      1.669     3.04     850.2448     55.07657      444.439        22     1.263     0.962  54.04   0
       296    762.8886    587.0571 307.6130768  +6.4567358     813.1557     1178.222      1645.55       78.325     156.2156     312.5866      1.616     4.37     850.1115     55.07657     109.2017        10     1.124     0.661 -89.41   0
       297    829.5688    581.8001 307.5855596  +6.4611308     178373.6     242932.5     252217.3     77.57785     156.0291     312.2759      1.455     2.94     850.1761     55.07657     26100.25       120     1.465     1.197  80.61   0
       298    276.9868    585.6404 307.8149165  +6.4410640     8902.191     12075.43     12854.55      77.8277     156.0913     312.2137      1.437     2.97     845.7225     55.07657     1323.275        29     1.200     1.027  70.58   0
       299    211.1954    580.1835 307.8424218  +6.4411096     66538.09     91343.82        95009     77.95232     155.9669      312.307      1.471     2.98     845.0489     55.07657     10050.57        67     1.349     1.158  76.08   0
       300    135.1878    576.3616 307.8741144  +6.4401355     6989.223     9736.284     9572.694      77.8277     156.0913     312.1826      1.491     3.10     845.2615     55.07657     1032.019        29     1.236     1.053  61.90   0
       301   1000.6730    573.4691 307.5147754  +6.4702721     1463.065     2094.209     2550.843     78.44884     156.4019     312.4623      1.739     3.28     846.5737     55.07657     241.1995        15     1.187     0.836  77.84   0
       302   1021.1782    572.6161 307.5062876  +6.4713069     815.3368     1199.418     1246.337     77.95232     153.0138     271.6833      1.608     3.20     845.9832     55.07657     133.3331         7     1.013     0.506  63.41  16
       303    759.5353    582.3006 307.6146286  +6.4585875     810.4025     1231.796     1319.738       78.325     156.4019     312.4313      1.634     4.01     850.0452     55.07657     110.6201         9     0.993     0.677  55.09   0
       304    249.2287    571.6454 307.8269145  +6.4459105     845.1061     1295.853     1479.819      77.8277     156.3399     312.3691      1.616     4.83     845.1909     55.07657     134.5442         8     0.941     0.702  71.94   0
       305    866.2196    569.0796 307.5707632  +6.4676047     4987.228     6694.871      7246.79     77.95232     155.9669     312.4623      1.419     2.89     849.9114     55.07657     823.5219        23     1.174     0.972  73.84   0
       306    384.5735    567.2974 307.7708536  +6.4522430     19677.58     26541.74     27866.68     78.44884     156.0291     312.4002      1.459     2.92     845.7115     55.07657     2750.915        40     1.287     1.070  74.77   0
       307    474.5650    567.3885 307.7334774  +6.4552190     843.2369      1381.73     1193.569      77.8277     156.0913     312.2759      1.755     3.64     847.4887     55.07657     144.4647         8     0.849     0.763 -87.72   0
       308    186.2863    566.3099 307.8532327  +6.4460010     2192.855     3241.675     4006.627     78.07675      156.712     312.5866      1.610     3.29     844.9761     55.07657     323.7546        19     1.190     0.967  72.30   0
       309    192.3202    563.8961 307.8508082  +6.4472000     719.1894      1459.21     2522.397     78.07674      156.526     312.5555      2.432     6.10      844.962     55.07657     111.6899        11     1.475     0.709 -85.33   0
       310    261.4533    563.8951 307.8220984  +6.4495202      891.947     1089.288     284.9851     78.20097     156.2778     312.7108      1.456     4.30      845.153     55.07657     136.3335        12     1.175     0.742  69.11   0
       311    820.0797    562.4151 307.5901488  +6.4688174     6625.134      8775.16     9423.417     77.95232     156.0291     312.2759      1.402     2.97     850.0057     55.07657     1019.688        24     1.174     0.927  74.44   0
       312    550.9615    562.2234 307.7019231  +6.4599076     7382.627     9865.457     10012.88     77.95232     156.0291     312.2759      1.400     2.89     848.6549     55.07657     1083.368        25     1.187     0.946  76.84   0
       313    123.8544    563.4238 307.8792564  +6.4450960     1075.432     1277.971     1399.655     77.95232     156.2778     312.2759      1.362     3.16     845.2006     55.07657     176.3468         9     0.924     0.651  68.57   0
       314    409.0118    558.5507 307.7609982  +6.4566727     1584.385     2252.538      2121.52     77.70287     156.2156     312.1516      1.512     3.21     845.7493     55.07657      256.631        12     1.050     0.734  85.49   0
       315    197.9090    555.3820 307.8487737  +6.4509025       7753.5     10808.41     11383.97     78.07674     156.0291     312.3691      1.476     2.91     844.9069     55.07657     1150.893        36     1.341     1.076  61.12   0
       316     69.6003    554.1411 307.9020994  +6.4471053     5496.941     7718.682     7926.166     77.57785     155.9046     312.1516      1.502     3.05      845.657     55.07657     820.6717        27     1.382     0.995  73.54   0
       317    836.6096    554.5753 307.5835457  +6.4726055     1511.804     2265.861     2534.325     77.95232     156.0913     312.3381      1.531     3.71     849.8677     55.07657     229.9474        16     1.228     0.894  71.10   0
       318    595.5823    555.2322 307.6836261  +6.4642860     2686.326     3980.586     4400.623     77.95232     156.0913     312.3381      1.599     3.67     848.7176     55.07657     391.4059        21     1.292     0.983 -40.70   0
       319    293.1749    551.8278 307.8093304  +6.4555659     97480.43     134066.1     138502.5      77.8277     156.0913     312.3381      1.464     2.99     845.0089     55.07657     14561.07        73     1.354     1.158  74.01   0
       320    582.6746    549.4771 307.6891797  +6.4662304     1024.223     1512.323     2190.387     78.57248      156.526     312.5245      1.493     3.83      848.459     55.07657     143.7624         9     1.023     0.673  69.17   0
       321    276.9340    546.7692 307.8162452  +6.4571097     1755.313     2359.223     2473.578     78.07674     156.2778     312.4002      1.473     3.06     844.8749     55.07657     250.9229        15     1.117     0.796  81.83   0
       322    816.3332    544.1946 307.5923140  +6.4762148     18321.85     24502.53     24829.09      77.8277     155.9669     312.2759      1.397     2.87     849.8258     55.07657     2829.395        36     1.260     1.017  75.98   0
       323    519.9253    542.6171 307.7154701  +6.4669637     45378.51     67319.58     70537.79      77.8277     156.0291     312.3381      1.589     3.20     847.5234     55.07657      6524.28        66     1.433     1.307  49.53   0
       324    670.3654    541.1927 307.6530380  +6.4725814     1124.398     1763.368     1942.473      77.8277     156.0913     312.2448      1.621     5.57     849.0491     55.07657     165.1534        11     1.195     0.801  83.31   0
       325    742.0301    536.9551 307.6234160  +6.4767242     1501.066     2456.122     2462.873     77.95232     156.2778     312.3381      1.663     5.28     849.2651     55.07657     270.3533        16     1.633     0.736  65.75   0
       326    232.3153    538.9841 307.8350368  +6.4588268     2105.062     2948.685     3070.209     77.95232     156.0291     312.3691      1.433     3.09     844.5889     55.07657     308.8558        17     1.097     0.903  83.95   0
       327     67.9868    539.1183 307.9032756  +6.4532529     1454.781      2006.71     1564.698     77.95232     156.0291      312.307      1.393     2.89     845.4734     55.07657     237.2952        11     0.965     0.731 -75.17   0
       328    679.8982    537.5383 307.6492012  +6.4744086     3391.773     4408.579     4783.058     78.07674     156.3399     312.5245      1.401     3.05     848.9977     55.07657     483.3441        20     1.156     0.907 -88.02   0
       329    992.7320    545.4094 307.5190101  +6.4815923     1763.425     2444.315     2777.914      77.8277     156.0913     312.3381      1.539     3.27     846.5518     55.07657     245.3342        16     1.042     0.949  51.84   0
       330    118.3150    538.9379 307.8823813  +6.4550185     688.3693     764.8412     426.6092     78.44884     156.3399     312.4623      1.341     4.33     844.8796     55.07657      102.793         7     0.892     0.597  62.32   0
       331    690.0787    537.5851 307.6449715  +6.4747293     1548.345      1918.53      2225.34     77.95232     156.0291      312.307      1.397     4.29     849.0448     55.07657     200.7773        11     1.145     0.636  56.09   0
       332     98.0071    534.6139 307.8909604  +6.4561213      772.963      1514.33     1509.058     77.95232     156.0291      312.307      2.101     6.15      844.898     55.07657     100.5114        10     1.534     0.694  23.92   0
       333    417.5500    533.2714 307.7583009  +6.4673950     1920.001     2677.498     2074.749       78.325     156.2778     312.4934      1.449     3.12      845.135     55.07657     255.8641        18     1.132     0.924 -80.09   0
       334    349.1351    531.5310 307.7867724  +6.4658213     4462.628     5832.565     5880.053       78.325     156.3399     312.4934      1.436     3.04     844.3145     55.07657     658.4082        24     1.221     0.967  83.42   0
       335    528.9766    530.8545 307.7121055  +6.4721227     2495.756     3623.298     3808.145      77.8277     156.2778     312.2759      1.487     3.39     847.0364     55.07657     395.5047        20     1.249     0.900  77.34   0
       336    164.2455    530.1903 307.8636014  +6.4601724      28744.5     39701.12     40419.19      77.8277     156.1535     312.1516      1.460     2.96     844.4172     55.07657     4260.523        43     1.276     1.102  72.17   0
       337    892.1199    530.1293 307.5613078  +6.4845489     1862.393     2465.244     2331.715     78.57248      156.526     312.4623      1.444     3.17     848.3373     55.07657     288.5718        13     1.103     0.733  83.70   0
       338    129.4173    528.3972 307.8781255  +6.4597429      3180.19     4432.736     4787.248     77.95232     155.8424     312.2759      1.515     3.00     844.5756     55.07657     437.2636        22     1.207     0.936  89.34   0
       339      9.2939    528.2728 307.9280150  +6.4557570     2356.606      3326.65     3544.539     78.20097     156.4019     312.4934      1.527     3.30     846.4451     55.07657     323.3776        18     1.113     0.967 -88.29   0
       340    989.7920    524.7122 307.5209221  +6.4900394     5500.767     7746.502     8044.643     77.95232     155.9669     312.2137      1.505     3.02     846.3201     55.07657     790.0889        30     1.364     1.007  72.64   0
       341    366.3366    526.6984 307.7797909  +6.4683929      1250.64      1780.18     2243.172     78.20097     156.3399     312.4934      1.525     4.27     844.2944     55.07657     177.5612        12     1.190     0.713  42.68   0
       342    562.9766    517.0568 307.6984474  +6.4789563     1722.335     2217.962     1955.856     77.95232     156.2778     312.2759      1.457     3.32     846.5995     55.07657      236.235        15     1.103     0.877 -70.21   0
       343     28.5068    514.5530 307.9204986  +6.4620670     28640.34     39152.53     40367.57     78.20097     156.2157     312.5866      1.496     2.91     845.9711     55.07657     3784.222        46     1.314     1.118  76.09   0
       344     11.0718    508.7923 307.9279333  +6.4638588     213631.2     298555.6     309412.6      77.8277     155.8424     312.3691      1.496     3.03     846.3134     55.07657     31608.42       115     1.414     1.248  73.34   0
       345    461.2725    511.2855 307.7408805  +6.4779358     48813.41     65614.62     67786.41     78.44884      156.588     312.4934      1.454     2.96      845.209     55.07657     7335.372        55     1.305     1.108  74.16   0
       346    669.3171    510.9273 307.6544869  +6.4850414     14082.36     18635.19     19141.41     78.57248      156.588     312.4934      1.400     2.99      847.805     55.07657     2141.638        32     1.249     0.973  81.22   0
       347    309.0239    511.5189 307.8041032  +6.4727384      1112.62     1382.406     1610.967     78.07674     156.0291     312.3691      1.376     5.04     843.2301     55.07657     151.1899        13     1.170     0.859 -52.52   0
       348    226.4655    508.9039 307.8384779  +6.4710487     21295.74     31130.21      32247.6       78.325     156.4019     312.4934      1.563     3.12     843.4233     55.07657     2890.192        48     1.417     1.153  57.70   0
       349    192.0042    510.0049 307.8527527  +6.4694375     1730.292     2129.728     1365.273     77.70287     155.9046     312.3381      1.373     3.37     843.6558     55.07657     238.4741        14     1.140     0.747  78.78   0
       350   1003.0282    509.2072 307.5159422  +6.4968814     1200.994     1922.134     1977.619      77.8277     156.0913     312.2759      1.594     3.50     845.9138     55.07657     184.2805        12     1.089     0.736 -76.69   0
       351    931.7211    509.0161 307.5455654  +6.4945853     836.7807     1265.542     1736.801     77.95232     156.0291      312.307      1.531     2.87     846.9257     55.07657     147.0642         7     0.774     0.596  78.47   0
       352    843.2289    508.9655 307.5823214  +6.4916563     930.6946     1118.258     673.6639      77.8277     156.0291     312.2448      1.274     4.62     848.4523     55.07657     141.0162         8     0.977     0.620  63.20   0
       353    591.1306    507.7284 307.6870671  +6.4837489     3122.554     4328.158     4570.993       78.325     156.4019     312.4002      1.488     3.17     846.2855     55.07657      446.107        20     1.189     0.919  78.04   0
       354    964.9478    504.8304 307.5319047  +6.4974203     5303.789     7300.463     7586.607     78.07675     156.4019     312.4002      1.450     3.03     846.3983     55.07657     849.4959        26     1.240     0.979  84.79   0
       355    638.1110    503.2647 307.6677044  +6.4871622     7464.587     10047.44      10706.4     78.20097      156.526     312.4934      1.443     3.17      846.775     55.07657     1052.501        25     1.209     0.944  77.73   0
       356    125.6698    504.2464 307.8804950  +6.4695873     1294.051      1645.57     1729.484       78.325     156.2156     312.4623      1.357     2.99     844.0505     55.07657     208.6211        11     0.922     0.766  86.00   0
       357    537.3138    502.7769 307.7095845  +6.4839933     568.5527     1229.082     1205.834       78.325     156.0913     312.3381      2.051     6.88     845.6299     55.07657     81.05267         9     1.686     0.788  37.50   0
       358    237.8363    503.2971 307.8339442  +6.4737449     684.8915     627.0561      809.446       78.325     156.1535     312.6176      1.253     4.31     843.0783     55.07657     96.90192         7     1.051     0.504  67.57   0
       359    987.5407    497.0301 307.5227813  +6.5013931     3512.996     4831.257     4899.869     78.07674     156.2778     312.4313      1.485     2.89     845.9613     55.07657     539.0149        18     1.152     0.874  77.54   0
       360    550.2769    494.5380 307.7044769  +6.4878283     8563.097     11362.03     12881.39     78.57248     156.3399     312.4623      1.470     2.90     845.2764     55.07657      1254.23        30     1.238     1.001  81.47   0
       361    426.2404    495.9781 307.7559437  +6.4830823     727.1636      1046.72     1391.778     77.95232     156.0913     312.2759      1.627     4.23     844.1353     55.07657     130.8784         7     0.882     0.580  70.99   0
       362    396.3495    494.8416 307.7683961  +6.4825502     3211.641     4383.707     4519.297     78.44884     156.2778     312.4623      1.473     3.06     843.6198     55.07657     451.4857        19     1.169     0.890  72.69   0
       363    766.1039    494.7328 307.6148303  +6.4949592     742.0977      999.793     1040.428       78.325     156.3399     312.4623      1.376     4.82     847.9537     55.07657     95.26007         9     0.961     0.685  64.51   0
       364    119.4338    494.1530 307.8834247  +6.4735447     707.6132      631.146     379.3625     78.07675     156.2778     312.4002      0.994     2.52     843.9174     55.07657     130.3285         5     0.718     0.444  67.08   0
       365   1017.8526    493.3489 307.5103142  +6.5039222     513.2525     529.7997      340.478     78.44884     156.1535     305.9958      1.201     2.89     845.4868     55.07657     97.91187         5     0.743     0.436 -18.66  16
       366    906.7379    490.4588 307.5565619  +6.5014142     3743.812     5010.497     4962.185     78.44884     156.2156     312.4934      1.455     3.19     847.0491     55.07657     512.7108        20     1.202     0.860  75.44   0
       367    559.5195    491.5309 307.7007390  +6.4893789     709.4746     957.5129     1312.448     78.57248      156.526     312.4623      1.496     3.81     845.1716     55.07657     113.7969         6     0.937     0.445 -74.01   0
       368    255.1293    489.7302 307.8272186  +6.4799260     709.3603     933.1592     1198.287       78.325     156.4019     312.4313      1.524     4.40     842.3311     55.07657     97.27014         7     0.903     0.611  34.65   0
       369    914.1625    484.6860 307.5536710  +6.5040449     2437.671     3043.699     3271.352       78.325     156.2156     312.4623      1.343     2.75     846.8365     55.07657     436.0503        15     1.118     0.768  87.89   0
       370    133.3689    484.0826 307.8779765  +6.4781701     869.0238     1101.462     1347.716     78.20097     156.0913     312.3381      1.594     5.38     843.4885     55.07657     143.1873        11     1.232     0.662  56.18   0
       371    953.4653    483.9122 307.5373725  +6.5056739     1312.769     1859.049     1869.812       78.325      156.464     312.4934      1.493     3.39     846.2648     55.07657     207.1239        10     1.044     0.651  48.60   0
       372    738.0622    480.8069 307.6269432  +6.4997725     3429.825     4661.727     4570.985     77.70287     156.0913     312.2448      1.419     2.92     847.4367     55.07657      551.342        20     1.091     0.942  75.09   0
       373     99.8701    479.8773 307.8920302  +6.4787808     2125.784     2968.279      3257.61     78.57248      156.526     312.4313      1.483     3.24     843.9143     55.07657     306.1142        19     1.153     0.966  81.03   0
       374    449.2884    479.2118 307.7469342  +6.4907759      1188.48     1395.274     1750.929     77.95232     155.9669      312.307      1.339     3.33     843.8274     55.07657     164.0604        10     1.013     0.653  75.16   0
       375    409.0708    478.9389 307.7636467  +6.4895417     4122.921     5632.466     5401.857     78.44884     156.2778     312.5555      1.438     3.09     843.3154     55.07657     628.5619        21     1.147     0.956  73.19   0
       376    636.7951    475.5622 307.6691790  +6.4985551     11339.38     15039.46     15445.43     77.45262     156.0291     312.2137      1.408     2.91     845.4543     55.07657     1655.236        29     1.229     0.976  72.47   0
       377    799.4907    472.1033 307.6017203  +6.5054159     18841.24     24895.57     25678.03       78.325     156.7739     312.4623      1.389     2.84     847.0936     55.07657     2848.614        35     1.257     0.986  80.34   2
       378    803.4968    467.5667 307.6002082  +6.5074225     1466.177     2238.914     2227.608     78.44884     156.1535     312.5555      1.522     3.43     846.9175     55.07657     225.8132        13     1.238     0.666  65.39   2
       379    319.2569    472.5218 307.8011640  +6.4891810      2930.34     3957.839     3991.572       78.325     156.2778     312.4313      1.449     2.87     841.6213     55.07657     495.4445        21     1.290     0.918  66.67   0
       380    442.7464    471.8969 307.7498968  +6.4935767     781.1782     930.9164     602.5488     78.20097     156.2778     312.7108      1.399     4.43     843.4371     55.07657     125.1516         8     0.935     0.769  19.89   0
       381    828.3417    469.1679 307.5898353  +6.5075903     1426.978     1791.883     1586.731     78.20097     156.3399     312.4002      1.302     3.00     846.9407     55.07657     228.8416        11     1.049     0.670  83.70   0
       382    402.1823    469.0074 307.7668412  +6.4934110     1823.999     2313.127     2617.904     77.95232     156.0291      312.307      1.369     3.61     842.7451     55.07657     288.3766        15     1.182     0.798  71.23   0
       383    984.5772    466.9481 307.5250165  +6.5137139     1921.205     3027.833     3380.687      77.8277     156.2778     312.3381      1.678     3.37       845.34     55.07657     278.2134        18     1.191     0.913  74.73   0
       384    390.9337    464.9961 307.7716478  +6.4946902     748.0607     1136.881     1424.863     77.70287     156.0291     312.2448      1.520     4.52     842.4069     55.07657     121.1208         7     1.015     0.647  70.39   0
       385    136.9207    464.0948 307.8771744  +6.4865410     5061.602     6905.417     6870.581     78.07675      156.526     312.5245      1.432     2.97     842.8995     55.07657     729.8207        23     1.192     0.964  72.25   0
       386    774.9155    462.9409 307.6122342  +6.5083786     2583.062     3354.479     3175.279       78.325     156.3399     312.5555      1.390     3.12      846.576     55.07657     385.0929        18     1.142     0.913 -88.74   0
       387    294.7168    461.1948 307.8117367  +6.4930343     1710.355      2298.35     2754.276      77.8277     155.9046     312.2137      1.403     3.69      840.923     55.07657      219.675        15     1.197     0.838  78.94   0
       388    372.9135    458.8230 307.7793394  +6.4966349     3702.076     5047.501     4827.515       78.325     156.0913     312.3381      1.439     3.13     841.9244     55.07657     546.9094        20     1.219     0.876  80.10   0
       389    728.8447    456.4149 307.6315880  +6.5095349     1870.579     2526.862     2633.526     77.70287     156.0913     312.2448      1.424     2.96     845.9212     55.07657     275.0999        14     0.978     0.892  83.13   0
       390   1002.4821    455.1689 307.5179728  +6.5191732     739.8124     866.2239     893.0128     78.20097     156.0913     312.4313      1.409     5.10      844.823     55.07657     96.38428         9     0.940     0.782  78.87   0
       391    260.6370    454.3788 307.8261200  +6.4947051     879.5275     1364.954     1432.592     77.95232     156.0291     312.2137      1.737     3.97     840.8548     55.07657     117.4439         9     0.966     0.695  62.13   0
       392    471.4509    450.3275 307.7386989  +6.5034425     721.3561     936.5785     760.8145       78.325     156.3399     312.4934      1.434     5.20       842.81     55.07657     104.6844         7     1.092     0.714 -51.41   0
       393    569.9272    449.2059 307.6978353  +6.5072006     1068.103     1768.095     1972.474     77.95232     155.8424     312.3691      1.690     3.00     843.8094     55.07657     168.5669         9     0.932     0.691  53.09   0
       394    492.5137    447.6286 307.7300412  +6.5052618     1567.262     2008.586     1815.785     78.44884     155.9669     312.3381      1.400     3.34     843.0174     55.07657     199.1665        14     1.071     0.814  52.99   0
       395    855.0393    446.5249 307.5795034  +6.5178289     1775.197     2447.111     2792.725     78.20097     156.2778     312.4934      1.529     3.22     845.9473     55.07657     251.9336        16     1.025     0.978 -41.75   0
       396    840.6579    445.8248 307.5855003  +6.5176383     2240.216     2874.356     3138.158     77.95232     156.2778     312.3381      1.343     2.89       845.91     55.07657     338.0962        17     1.128     0.818  77.68   0
       397    737.9828    443.8103 307.6282144  +6.5150438     16951.17     22790.04     23807.04     78.07674     155.9669     312.3381      1.397     2.89     845.3215     55.07657     2642.708        38     1.294     1.023  66.98   0
       398    640.4788    445.7979 307.6686462  +6.5109663     815.3815      1058.97     963.3648     77.70287     155.7801     312.2448      1.541     5.08     844.3347     55.07657     104.9588        12     1.020     0.931  87.75   0
       399    659.1011    439.8561 307.6611105  +6.5140416     3085.516     4033.598     4560.427     78.07674     156.2778     312.6797      1.386     3.10     844.3322     55.07657     519.6409        20     1.132     0.933  71.33   0
       400    731.8138    438.4272 307.6309569  +6.5170603     823.5615     1166.272     1487.187     77.95232     156.0913     312.3691      1.436     4.40     844.9247     55.07657     109.9707         7     0.915     0.602 -84.15   0
       401    634.3407    437.1110 307.6714867  +6.5143475      6151.86     8135.189     8693.189     78.20097     156.3399     312.5555      1.403     3.48     843.9069     55.07657     909.9143        22     1.201     0.904  84.17   3
       402    630.3242    434.3449 307.6732477  +6.5153552     16795.21      22557.7     23252.86       78.325     156.2778     312.4002      1.428     2.93     843.7537     55.07657     2502.071        35     1.275     1.058  70.23   3
       403    963.3073    433.7776 307.5349589  +6.5267001     4352.462      5882.67     5460.885       78.325     156.0913      312.307      1.467     3.09     844.3808     55.07657     645.2061        20     1.178     0.915  78.67   0
       404    615.5865    434.1427 307.6793758  +6.5149461     511.8753     478.8613      377.161     77.70287     156.1535     312.1516      0.965     3.48     843.6122     55.07657      94.8891         5     0.758     0.462 -73.58   0
       405    402.3372    429.7244 307.7680961  +6.5096338     33239.29     44559.18     45554.35     78.57248     156.2778     312.4313      1.448     2.90     841.0255     55.07657     4697.378        45     1.289     1.078  77.11   0
       406    439.3937    431.3282 307.7526512  +6.5102128     658.4077     869.9373     601.8474     77.95232     155.8424     312.3691      1.362     4.68     841.4896     55.07657     116.9802         6     1.074     0.577 -58.75   0
       407    918.7254    429.3759 307.5536238  +6.5270320     1561.793     2352.944      3242.76     77.95232     156.0913     312.4002      2.180     3.64     844.4224     55.07657     238.5504        14     1.241     0.713  63.30   2
       408    148.3315    428.9402 307.8736189  +6.5014372     2527.601     3568.635     3455.284     78.44884     156.2156     312.4623      1.480     3.20     841.8593     55.07657     388.8228        22     1.220     1.017  78.24   0
       409     81.7580    424.7363 307.9014098  +6.5009359     1674.685     2676.259     2731.261       78.325     156.2156     312.5245      1.691     4.12     842.6709     55.07657     239.8918        18     1.212     1.056  83.10   0
       410    932.0604    424.1016 307.5482610  +6.5296538     5559.158     7167.913     7283.044     78.07675     156.2156     312.5866      1.371     2.96     844.0651     55.07657     881.8419        22     1.138     0.878  72.86   0
       411    614.1262    425.5291 307.6802710  +6.5184534     764.6707     911.5687     1060.342     78.57248     156.4019     312.4934      1.373     3.22     843.3552     55.07657     156.9743         9     1.042     0.665  81.88   0
       412    987.7845    421.7515 307.5251934  +6.5324803     703.8651     749.7812     751.9991     77.70287     156.2156     312.2137      1.354     4.91     843.9191     55.07657     109.0854         8     1.182     0.577 -73.90   0
       413    259.8716    420.2285 307.8275863  +6.5087778     15776.05     21560.83      22218.5     78.07674     156.2778     312.4313      1.451     2.92     839.6174     55.07657     2284.943        37     1.271     1.066  74.63   0
       414    754.4423    413.9440 307.6223774  +6.5279236     852.0945     1049.115     1380.901     78.20097     156.2156     312.4623      1.396     4.00     843.9181     55.07657     144.7708         9     1.048     0.657 -89.32   0
       415    722.9811    413.2920 307.6354671  +6.5271423     898.2468     923.6082      1781.16     78.20097     156.0291     312.3381      1.290     3.45     843.5486     55.07657     174.9999        11     1.120     0.743 -62.16   0
       416     95.7760    414.0574 307.8959476  +6.5058156     899.3412     1245.559     1122.788     77.95232     156.2778     312.2759      1.518     3.74     841.8904     55.07657     145.9084         8     0.866     0.657  40.97   0
       417    983.4006    412.1944 307.5273334  +6.5362800     1237.089     1787.904     1879.657     77.70287     155.9669     312.2759      1.685     5.20     843.5177     55.07657     149.4187        15     1.115     0.959  74.12   0
       418    205.8492    410.0767 307.8503651  +6.5111559     939.4198     1312.119     814.8488     78.20097     156.3399     312.4623      1.536     5.44     839.8657     55.07657     131.8062        13     1.338     0.778  77.46   0
       419    372.9896    410.0189 307.7809473  +6.5167857     1459.673     1980.291     1528.046     77.95232     155.9669     312.3381      1.460     3.27     839.9926     55.07657     217.9419        12     1.075     0.707  80.95   0
       420    160.0991    408.8661 307.8694073  +6.5101196     5589.369     7868.778      8165.11       78.325     156.4019     312.4623      1.485     3.07     841.1014     55.07657     839.0214        29     1.309     1.015  79.33   0
       421    399.9364    409.6523 307.7697674  +6.5178399     701.0605      1108.71     833.6753       78.325     156.2156     312.4313      1.502     3.42     840.0746     55.07657     106.4357         7     0.729     0.678  33.87   0
       422    264.9672    407.8233 307.8258872  +6.5140701     1576.915     2324.327     2577.078      77.8277     156.0913     312.2759      1.551     3.22     839.1487     55.07657     238.4022        15     1.089     0.849  70.91   0
       423    457.3203    407.7505 307.7459969  +6.5205470     745.9015     1001.967     680.3574       78.325     156.3399     312.4623      1.433     3.28     840.6268     55.07657     110.2681         6     0.713     0.647  24.13   0
       424    653.2932    407.0424 307.6646221  +6.5273946     553.8212     728.4814     1084.249     78.44884     156.2156     312.5866      1.315     4.29      842.746     55.07657     73.53961         7     0.762     0.688  85.57   0
       425    846.3909    404.9682 307.5844851  +6.5346972     910.0062     1275.464     1608.417      77.8277     156.0913      312.307      1.383     4.70     844.2901     55.07657      127.338         9     1.074     0.627 -77.82   0
       426    182.0839    404.6869 307.8604170  +6.5125832     2627.896     3934.814     3984.064     78.07674      156.464     312.4934      1.609     3.79     840.3535     55.07657     370.6974        21     1.371     0.873  88.92   0
       427    577.8101    403.7398 307.6960855  +6.5262347     1074.984     1419.516     1352.717     77.70287     156.1535     312.1826      1.325     3.14      842.249     55.07657     180.9226        11     0.937     0.772  71.03   0
       428    293.6688    400.1864 307.8142231  +6.5181856     1047.461      1405.04      1413.47      77.8277     156.1535     312.3381      1.533     3.75     838.7325     55.07657     145.3845        12     1.023     0.846  70.38   0
       429     24.4294    399.6632 307.9260645  +6.5093594     800.0037     902.5224     711.1364     78.07675     156.2778     312.4002      1.375     4.12     843.1712     55.07657     134.9276         7     1.159     0.418 -75.79   0
       430    405.5679    399.4893 307.7677696  +6.5222242     2429.174     3221.802     3044.481     78.44884     156.0913     312.4623      1.430     2.89     839.5169     55.07657     352.2458        15     1.037     0.844  55.69   0
       431    994.0960    398.8372 307.5233368  +6.5421508     1013.671     1591.588     1893.348       78.325     156.1535     312.5866      1.546     3.89     842.7627     55.07657     140.1721        11     0.956     0.881  -3.64   0
       432    339.7113    397.3379 307.7951953  +6.5209054     663.1816     1000.545     1218.998       78.325     156.4019     312.5245      1.740     5.35     839.0076     55.07657      135.866         7     0.983     0.822 -77.73   0
       433      6.2720    397.3873 307.9336824  +6.5096883     838.6978     1069.671     1065.949      77.8277     155.9046     298.7405      1.172     3.02     843.4564     55.07657     142.4312         7     0.880     0.554  61.18  16
       434    612.8524    395.4744 307.6818073  +6.5308187     661.2282     915.4664     837.7451       78.325     156.3399     312.4623      1.570     4.58      842.022     55.07657     105.5038         7     1.048     0.569  72.77   0
       435    459.4777    393.0914 307.7455929  +6.5266711     8443.854     11426.59     11490.84     78.07674      156.526     312.4934      1.430     3.02     839.8018     55.07657     1204.958        31     1.301     0.990  79.97   0
       436    630.0663    393.8419 307.6747120  +6.5320681      534.611     656.5978     928.3928       78.325     156.2156     312.5245      1.290     4.72     842.0414     55.07657     98.49622         6     1.105     0.572 -86.41   0
       437     55.8174    393.7355 307.9132281  +6.5128619     3428.341     5465.828     5556.518      77.8277     156.2156      312.307      1.704     3.70      842.042     55.07657     442.2752        28     1.479     1.125 -69.74   0
       438    792.0442    391.9164 307.6074958  +6.5382726     2236.315     2980.713     3698.148       78.325     156.2778     312.4623      1.411     2.96      843.734     55.07657     363.3255        15     1.076     0.789  79.22   0
       439    219.8121    392.4430 307.8451592  +6.5189044     547.8666     506.6605     161.0501      77.8277     156.0913     312.1826      1.432     3.63     838.9846     55.07657      90.3609         5     1.001     0.380  84.40   0
       440    800.1027    390.4065 307.6041990  +6.5391649     14984.06     19619.62     20480.17     78.07674     155.9046     312.2448      1.408     2.97      843.747     55.07657     2271.098        32     1.206     0.977  66.84   0
       441    363.2214    388.8384 307.7857160  +6.5252024      1281.74      1829.14     1839.658     77.95232     156.0291     312.2448      1.473     2.86     838.7004     55.07657     204.8723        10     0.877     0.733 -81.21   0
       442    313.8536    388.5867 307.8062293  +6.5236513     545.4505     823.8157     933.0477     77.70287     156.2156     312.2137      1.469     2.53     838.3383     55.07657      93.6839         5     0.714     0.452  20.63   0
       443    208.2293    381.4638 307.8503394  +6.5230481     1049.305     1284.349     847.9397     78.07675     156.2778     312.4002      1.514     3.75     838.9257     55.07657     140.5817         9     1.035     0.579  69.91   0
       444    925.2768    380.6184 307.5525316  +6.5473799     661.4055     713.6204     728.9171      77.8277     156.0291     312.4313      1.134     2.98     843.1279     55.07657     109.1277         6     0.833     0.500  44.09   0
       445     13.6393    379.5963 307.9312224  +6.5172806     1093.247     2408.655     3583.149     77.45262     156.0291     312.2137      3.123     8.16     842.2558     55.07657     115.3124        19     1.717     1.083 -57.76   0
       446    507.6554    376.6088 307.7261350  +6.5350885     3460.083     4704.427     4714.337     77.70287     156.2156     312.1826      1.440     2.96     839.5406     55.07657     485.8338        21     1.170     0.921  70.21   0
       447    479.7815    377.3401 307.7376882  +6.5338536     2695.028     3715.078     3964.917     77.95232     156.1535     312.2759      1.483     3.01     839.1026     55.07657     389.0105        19     1.120     0.957  71.44   0
       448    936.1796    376.5189 307.5481397  +6.5494357     905.8262     1102.885     1379.178     78.07675     155.9669     312.4002      1.397     4.81     842.8566     55.07657     146.7872         9     1.010     0.717  53.98   0
       449    865.4625    373.3311 307.5776210  +6.5483946     37513.21     51888.96     53582.68       78.325     156.2778     312.5245      1.497     3.06     843.4775     55.07657      5328.24        54     1.438     1.057  82.53   0
       450   1010.8490    373.0685 307.5172382  +6.5533473     612.9941     1009.274     1038.708       78.325     156.2156     312.4623      1.470     4.36     840.8899     55.07657     95.06537         6     1.155     0.469 -62.43   0
       451    357.6330    369.0079 307.7887035  +6.5332019     973.4067     1294.258     845.6798      77.8277     156.1535     312.2759      1.400     3.52     837.4465     55.07657     135.3514        10     1.044     0.696  77.84   0
       452     82.6715    369.5522 307.9028896  +6.5237481     661.0392     996.4731     350.4538       78.325     156.3399     312.4934      1.641     3.92     840.3095     55.07657     96.23083         6     0.936     0.470  89.84   0
       453    604.4072    367.2586 307.6862609  +6.5421851     565.8436     662.8441     1043.197     77.70287     156.1535     312.1826      1.248     4.12     840.5532     55.07657     82.10181         7     1.008     0.480 -83.32   0
       454    637.2401    365.7296 307.6726743  +6.5439139     3209.004     4367.026     4599.377     78.20097     156.2778     312.5245      1.460     3.07     840.7358     55.07657     484.3667        20     1.086     0.930  78.92   0
       455     45.6597    366.0492 307.9183800  +6.5239501     1140.198     1557.969     1738.249       78.325     156.2778     312.5245      1.439     4.04     840.8299     55.07657     151.7858        12     1.036     0.876  40.12   0
       456    168.6413    364.1163 307.8673659  +6.5288806     654.2363     1051.095     1195.382       78.325     156.2156     312.4002      1.603     3.84     838.9878     55.07657     101.4001         6     1.051     0.403  74.46   0
       457    721.9185    359.3112 307.6377157  +6.5493927     92454.28     121851.9     125926.5     78.07674      156.464     312.5555      1.392     2.86     842.0247     55.07657     13632.73        72     1.331     1.090  72.09   0
       458    880.2000    360.6630 307.5719227  +6.5541160     1380.771      1934.55     1876.034     77.57785     156.0291     312.1826      1.432     3.78     843.0595     55.07657     219.7405        12     1.089     0.816  66.65   0
       459    101.0963    358.9075 307.8955957  +6.5287618      1490.51     2056.294     1901.766       78.325     156.7739     312.4313      1.422     3.96     839.5336     55.07657     179.1802        12     1.085     0.727  81.41   0
       460     87.3251    358.0163 307.9013455  +6.5286669     531.4665     726.4649     316.6119      77.8277     156.0291     312.3381      1.619     4.15     839.7074     55.07657     81.93396         5     0.838     0.588   1.77   0
       461    963.4286    356.7640 307.5374807  +6.5584994     819.2446      1334.74     1029.148     77.95232     156.0291     312.2759      1.822     3.85     841.4816     55.07657     116.8208         8     1.012     0.583 -69.47   0
       462    584.3628    355.9538 307.6949658  +6.5461820     2980.535     3832.462     3969.998     78.07674     156.2156     312.3381      1.363     2.73     839.5384     55.07657     456.9409        19     1.111     0.871  66.48   0
       463    121.6129    354.8488 307.8872110  +6.5311268     6828.713     9747.109     10098.71     77.70287     156.2156     312.1826      1.505     3.05     839.1368     55.07657     901.9465        29     1.284     1.007  82.94   0
       464    411.5693    356.1644 307.7667320  +6.5403115     652.9507     870.1036     949.4542     77.95232     156.0291     312.2448      1.308     3.45      837.342     55.07657     120.6373         5     0.749     0.458 -71.51   0
       465    567.6363    352.2259 307.7020386  +6.5471616     8287.521     11020.53     11277.38     77.95232     156.0913     312.2448      1.389     2.84     838.9534     55.07657     1150.709        27     1.191     0.963  68.77   0
       466    782.2360    353.8918 307.6128422  +6.5536437     612.0167     776.2499     1104.012     78.44884     156.1535     312.4934      1.350     3.30     842.5259     55.07657     114.7049         6     0.757     0.633  16.09   0
       467    296.5302    349.8337 307.8147275  +6.5390690     2939.368     4006.043     3862.267     78.20097     156.2778     312.5245      1.443     2.88     836.2994     55.07657     421.5831        20     1.163     0.942 -88.01   0
       468    430.5426    347.4268 307.7591445  +6.5445543     29896.72     40299.01     41920.62     77.95232     156.3399     312.2759      1.466     2.92     837.0587     55.07657     4152.851        42     1.287     1.065  70.31   0
       469    609.2045    346.5351 307.6849629  +6.5509011     681.2734     810.8537     790.0001     77.57785     155.9669     312.2448      1.414     3.07     839.8149     55.07657     117.9836         5     0.825     0.546  53.00   0
       470    538.5687    346.1670 307.7143157  +6.5486906     1345.286     1763.716     1548.732      77.8277     156.0291     312.2137      1.481     3.01     838.1501     55.07657     252.6137        13     1.107     0.752  44.74   0
       471    697.1001    345.8580 307.6484753  +6.5541179     536.3008     689.7949      801.009     78.07674     156.2778     312.6797      1.420     3.88     840.9511     55.07657     101.8219         6     0.949     0.454  53.61   0
       472    410.4567    345.4194 307.7675549  +6.5447102     1303.554     1809.452     2586.865      77.8277     156.2157     312.2759      1.561     3.19     836.8003     55.07657     203.6233        11     1.005     0.753  83.82   0
       473    509.8344    342.9231 307.7263601  +6.5490683     1316.652     1594.359     1510.553     78.20097     156.3399     312.4313      1.330     3.39     837.6002     55.07657     185.9728        14     1.111     0.813  67.31   0
       474    407.6300    340.3291 307.7689000  +6.5467169      778.225     1180.597     1880.214     78.20097     156.2778     312.4313      1.715     4.47     836.5514     55.07657     127.3639         8     1.130     0.502  67.43   1
       475    825.2620    339.8015 307.5954410  +6.5608965     1061.018     1439.136     1342.791     77.70287     156.0913     312.1826      1.358     4.64     842.3321     55.07657     197.0126         9     0.961     0.637  67.03   0
       476    661.4269    339.5164 307.6635058  +6.5555442     749.8607     977.0396     1280.194     78.20097     156.0291     312.4002      1.516     4.01     840.1222     55.07657     117.7719         8     1.008     0.607  43.63   0
       477    519.6182    337.8072 307.7224678  +6.5515078      9903.79     13331.63     13558.67     77.95232     155.9669      312.307      1.434     2.96      837.577     55.07657     1283.583        30     1.239     0.983  71.22   0
       478    944.3638    336.3017 307.5460836  +6.5663121     1015.069     1204.478     1801.496       78.325     156.1535     312.6487      1.526     4.64     841.4635     55.07657     134.5024        14     1.226     0.846  84.68   0
       479    788.7027    336.4680 307.6107390  +6.5610529      3620.32     4866.766     5333.388       78.325     156.3399     312.4313      1.456     2.96     842.0253     55.07657      493.894        20     1.158     0.897  89.54   0
       480    736.4891    336.0117 307.6324433  +6.5594983     826.7412      1093.01     1044.036     78.07674     155.9669     312.3381      1.424     4.71     841.7249     55.07657     123.8889         9     0.993     0.725  63.61   0
       481    346.1741    334.5272 307.7946218  +6.5470526     1200.467     1604.492     1588.328     77.95232     156.1535     312.3691      1.350     2.96     835.7339     55.07657     204.9916        10     0.949     0.682  86.75   0
       482    104.8474    331.8403 307.8949495  +6.5400620     530.5217     732.8138     752.8794     78.20097     156.2778     312.2759      1.270     3.82     838.9375     55.07657      73.4433         5     0.973     0.430  45.18   0
       483    458.4652    328.3549 307.7481865  +6.5533630     733.8297     844.5424     826.8391       78.325     156.2157     312.4623      1.261     5.19      836.261     55.07657     107.0186         9     1.201     0.634 -84.03   0
       484    181.8239    328.4471 307.8630912  +6.5440486     1345.643     2037.051     2012.958     77.95232     156.2778     312.3381      1.616     3.75     837.8032     55.07657       181.93        14     1.088     0.907  42.33   0
       485    281.6269    328.0267 307.8216511  +6.5475717     808.2122     1080.918      1278.07      77.8277     156.0913     312.3381      1.469     5.85     835.7108     55.07657     116.0417        12     1.178     0.817   8.41   0
       486    409.4960    321.9402 307.7687425  +6.5543711     8586.072     11500.35     11763.87     78.20097     156.2778     312.5555      1.416     2.93     835.7524     55.07657     1230.003        28     1.213     0.969  71.25   0
       487    265.3482    322.5409 307.8285972  +6.5492903     2570.066     3406.489     3407.735       78.325     156.2778     312.4623      1.452     3.16     835.9611     55.07657     377.3425        17     1.157     0.868  70.23   0
       488    763.1436    321.8537 307.6218452  +6.5662333     1101.154      1339.13     679.2981     78.44884     156.2778     312.4623      1.330     2.97     841.4425     55.07657     197.1567         9     0.891     0.685  85.29   0
       489    777.3921    317.8816 307.6160593  +6.5683488     62860.85     82699.61     85299.74     77.95232     155.9046      312.307      1.394     2.88     841.4143     55.07657     9872.624        58     1.291     1.062  73.80   0
       490    448.9675    317.3896 307.7524998  +6.5575718     2752.578     3647.214     3631.878      77.8277     156.0291      312.307      1.412     3.00     835.6841     55.07657       434.79        17     1.205     0.766  77.39   0
       491   1012.0552    314.9198 307.5186785  +6.5773943     1785.744     2557.047     2940.648     78.44884     156.2778     312.4934      1.517     3.18     838.9233     55.07657       284.55        15     1.066     0.938 -87.05   0
       492    595.2028    314.7483 307.6918445  +6.5635559     1378.159     1791.241     1849.021     77.70287     156.0291     312.0582      1.369     3.36       838.64     55.07657     215.1804        11     1.012     0.740  64.83   0
       493    953.2966    314.0231 307.5431172  +6.5758075     2736.364     3774.065     3752.082       78.325     156.0291     312.2759      1.439     3.09     840.4996     55.07657      392.859        16     1.083     0.923  83.03   0
       494    435.3835    312.9724 307.7582906  +6.5589405      2341.95     3255.959     3304.487     77.95232     156.0291     312.3691      1.447     3.01     835.4537     55.07657     339.3907        17     1.149     0.857  75.74   0
       495    486.0876    313.5888 307.7372084  +6.5603838     1231.215       1738.1     1893.447     77.95232     156.0291     312.3381      1.572     3.84     835.7546     55.07657     179.3967        12     1.077     0.796 -66.94   0
       496    315.4001    312.3642 307.8081494  +6.5551705      835.561     1017.567     1112.802     77.32719     156.0291     312.2759      1.335     5.12     834.9365     55.07657     122.6048         8     1.000     0.742 -61.02   0
       497    685.5117    311.5407 307.6544384  +6.5678985     622.5493     881.4392     577.4509     78.20097     156.2778     312.5555      1.444     3.73     840.2576     55.07657     93.13263         6     0.929     0.430 -71.93   0
       498    856.8809    307.2546 307.5833950  +6.5753881     1279.867     1814.921     2019.818       78.325     156.2778     312.4934      1.528     3.60     841.4885     55.07657     228.8907        16     1.230     0.902  80.98   0
       499    485.8455    307.8273 307.7375023  +6.5627543     968.0176     1269.507     1707.006      77.8277     156.3399     312.3691      1.351     3.25     835.4521     55.07657     138.3135         9     0.889     0.716  21.87   0
       500    466.0427    304.4862 307.7458403  +6.5634706     1347.166     1999.231     2072.613       78.325     156.1535     312.4623      1.676     3.09      835.069     55.07657     205.3925        12     0.991     0.776  83.92   0
       501    212.2287    304.1133 307.8512812  +6.5551151      2713.03     3734.855     3848.859     78.44884     155.9669     312.3381      1.468     3.11     836.6353     55.07657     409.2248        20     1.173     0.938  83.44   0
       502    775.8638    302.3374 307.6172144  +6.5747152     7135.871     9191.439     9403.304       78.325     156.2778     312.4934      1.367     2.82     840.9193     55.07657     1065.783        26     1.158     0.967  83.17   0
       503    247.3497    302.3166 307.8367535  +6.5570357     768.1581     1130.471     606.9519       78.325     156.2778     312.5555      1.402     4.40     835.7335     55.07657     119.8025         8     0.944     0.641  72.75   0
       504    366.4480    302.0463 307.7872921  +6.5611415     778.3807     890.8231      882.611       78.325     156.1535     312.4934      1.382     2.70     834.5727     55.07657     122.8733         6     0.763     0.497 -89.03   0
       505    108.3761    301.5706 307.8945036  +6.5526767     1242.831     1591.571     2105.465      77.8277     156.1535     312.2759      1.506     3.22     838.4603     55.07657     182.9864        13     1.096     0.748  49.32   0
       506    792.2587    300.2769 307.6104728  +6.5761130     3107.009     4128.971     3899.699     78.44884     156.2778     312.4313      1.375     2.93     840.9992     55.07657     514.8399        17     1.135     0.853  65.99   0
       507    494.7394    299.4270 307.7340898  +6.5665200     629.8718      798.595     773.8657     77.95232     156.3399     312.3691      1.384     3.76     835.3033     55.07657     110.0109         5     0.967     0.420  81.47   0
       508    381.6669    295.1126 307.7812034  +6.5645140      1815.09     3457.586     4051.032     78.44884      156.464     312.4934      1.988     5.53     834.3865     55.07657     268.1078        23     1.526     1.075  -4.85   0
       509     95.2920    295.5070 307.9001425  +6.5547401     1414.135     2000.453         1938       78.325     156.7739     312.4623      1.432     2.62     838.5748     55.07657       214.17        12     0.958     0.739  62.71   0
       510    508.4801    291.2248 307.7286573  +6.5703661      2353.77     3146.387      3064.39     78.07675     156.0913     312.4313      1.443     3.23     835.4121     55.07657     338.6053        16     1.173     0.795  68.01   0
       511    271.0787    286.7238 307.8274216  +6.5642691     6784.772      9258.39     9738.083     78.57248      156.526     312.5555      1.458     2.97     834.6396     55.07657     1037.088        27     1.226     1.017  75.03   0
       512    836.1425    284.9688 307.5927553  +6.5838971     657.9622     718.1726     554.2419     78.20097     156.2778     312.4002      1.452     5.44     840.6721     55.07657     104.9493         8     1.186     0.704 -45.73   0
       513    919.3823    284.2119 307.5582017  +6.5869849     513.7994     612.9732     450.6628     78.07675     155.9669     312.3691      1.360     3.52     840.0863     55.07657     90.85059         5     0.774     0.462  75.93   0
       514      1.8053    279.5438 307.9395113  +6.5581866      65953.9     82624.77     84795.92     73.33255     131.2256     242.5771      1.314     3.41     839.6722     55.07657     10689.57        47     1.372     0.894  86.31  24
       515    961.9576    281.7945 307.5405959  +6.5894016     621.4506     751.1315     875.3788     77.70287     155.9669     312.1826      1.505     2.98     839.2384     55.07657     112.3516         5     0.779     0.488 -65.26   0
       516    142.3762    279.9707 307.8811086  +6.5627361     532.6194     734.3264     1069.884      77.8277     156.1535      312.307      1.432     4.89     837.4747     55.07657     88.08984         6     1.124     0.680  77.25   0
       517    790.1989    279.8066 307.6120134  +6.5844953     820.1705     1217.793     1227.887     77.70287     155.9669     312.2759      1.663     3.16     840.2783     55.07657     142.8474         7     1.000     0.479  68.17   0
       518    247.7118    279.4377 307.8373728  +6.5664929     648.2574     1015.744      575.736       78.325     156.1535     312.4623      1.632     3.87     835.0719     55.07657     102.7551         6     0.951     0.452 -88.41   0
       519    405.1621    277.3568 307.7720403  +6.5726315      2074.32     3309.957     3269.781     78.07674     156.2778     312.3381      1.705     3.92     834.0465     55.07657     284.4434        21     1.402     0.989  58.49   0
       520    992.0745    276.4870 307.5282620  +6.5925960     1375.834     1549.051     1382.851       78.325      156.588     312.5245      1.281     3.16     838.4467     55.07657     219.0756         9     0.911     0.643  71.40   0
       521    327.4967    273.3539 307.8044361  +6.5716809     1336.514     1561.228      1482.95       78.325     156.2157     312.6176      1.343     3.32     833.8716     55.07657      222.673        11     1.100     0.650  56.32   0
       522    174.8178    273.2986 307.8678579  +6.5665802     1981.778     2625.042     2647.988       78.325     156.1535     312.2137      1.444     3.11     836.6361     55.07657     290.4025        17     1.107     0.906  65.22   0
       523    584.4839    268.9973 307.6978311  +6.5820854     2453.875     3447.931     3728.641     77.70287     155.9046     312.1516      1.444     2.92     836.8366     55.07657     363.1353        19     1.163     0.917 -79.85   0
       524    928.5171    268.3322 307.5549375  +6.5938453     1991.193     2708.139     2982.961     78.44884      156.526     312.4934      1.452     2.86     839.1367     55.07657      289.829        17     1.163     0.789  73.01   0
       525    748.2274    266.5143 307.6298938  +6.5885820     6071.206     7818.113     8044.829     78.44884     156.0291     312.3381      1.393     2.92     839.4535     55.07657     900.6237        24     1.189     0.934  77.11   0
       526    986.5531    266.3495 307.5308943  +6.5965974     777.6801     1052.669     666.8572       78.325     156.1535     312.4934      1.571     2.88     838.1605     55.07657     165.0965         8     0.912     0.637  85.90   0
       527    689.0323    266.3422 307.6544899  +6.5866761      2442.14     3234.716     2748.606     78.20097     156.3399     312.4002      1.454     3.29       838.94     55.07657     369.5417        17     1.123     0.921  74.48   0
       528    878.9996    263.0471 307.5756848  +6.5943766     440.0172     623.4218     257.4052     77.57785     155.9669     312.0271      1.279     3.81     839.3902     55.07657     82.68213         5     1.051     0.397 -57.70   0
       529    403.7290    260.6404 307.7731971  +6.5794846     791.6245     953.2145     800.5267     78.20097     156.2778     312.5245      1.350     4.30     833.7759     55.07657     122.9814         7     0.941     0.560  63.58   0
       530    944.2084    258.7413 307.5487395  +6.5983278     1341.968     1590.408     1468.701     77.70287     156.1535     312.1826      1.310     2.89     838.4666     55.07657     235.2156        13     1.058     0.766 -76.25   0
       531    247.6442    251.7785 307.8383314  +6.5779092     2670.257     3718.016     3635.482      77.8277     156.1535     312.2759      1.449     2.90     834.4836     55.07657     388.0217        21     1.201     0.970  66.83   0
       532    890.4207    250.6594 307.5713544  +6.5998717     1988.762     2514.681     2861.762     77.95232     156.1535      312.307      1.309     3.21      838.631     55.07657     299.3003        13     1.033     0.752  64.06   0
       533    780.8483    250.1702 307.6168896  +6.5964186     1829.589     2251.533     2326.886     77.95232     156.3399     312.3691      1.341     2.84     838.9679     55.07657     294.7951        13     1.039     0.756  74.82   0
       534    601.4117    246.5276 307.6915525  +6.5919278     545.4568     819.9016     745.4152      77.8277     155.9046     312.2759      1.361     3.93     836.3055     55.07657       90.453         5     1.018     0.435 -75.52   0
       535    268.8188    245.6620 307.8297414  +6.5811448     621.0051     907.0042     997.8861     77.95232     156.2156     312.3381      1.630     4.38     833.9869     55.07657     81.00128         6     1.162     0.470  45.72   0
       536    481.6908    241.6914 307.7414480  +6.5899187     26354.05     35761.37     36450.05       78.325     156.7739     312.5555      1.445     2.93     833.5471     55.07657      3698.89        41     1.282     1.052  75.26   0
       537    342.9410    243.2517 307.7990325  +6.5846259     813.0418     1017.082     1037.436       78.325     156.2778     312.4623      1.427     4.21     833.4376     55.07657     131.2211         7     0.880     0.657  76.64   0
       538    807.7280    240.8616 307.6060346  +6.6011586     15128.67        20483     22620.48     78.44884     156.2778     312.5245      1.444     2.84     838.6125     55.07657      2213.37        45     1.350     1.240  -8.71   0
       539    746.2614    236.4594 307.6317167  +6.6009244     793.7278     1107.979     813.7137       78.325     156.2156     312.4934      1.507     3.56     838.3326     55.07657     126.7267         7     0.864     0.636  77.75   0
       540    487.4391    236.0728 307.7392487  +6.5924307     1588.147     2181.963     2913.697     78.20097     156.2778     312.5245      1.486     3.07     833.5289     55.07657     236.4532        16     1.096     0.862  89.05   0
       541    170.0231    235.1521 307.8711339  +6.5821671     2760.471     3703.714     3729.716     77.95232     156.2778     312.3381      1.401     2.68     835.7138     55.07657     445.1117        18     1.061     0.915  72.61   0
       542    144.4561    234.0228 307.8817921  +6.5817745     1301.933      1961.24     1925.846     77.95232     156.2156     312.2759      1.763     3.41     836.2261     55.07657     179.8359        12     1.066     0.756  83.55   0
       543    799.5406    233.5064 307.6096820  +6.6039220     729.0991     1118.104      1660.63     78.20097     156.2778     312.5555      1.469     3.70     838.3361     55.07657     115.5833         6     0.974     0.403  70.71   0
       544    196.5663    233.1989 307.8601739  +6.5838648     705.7782     1041.637     1358.772     77.45262     156.0913     312.2137      1.526     4.03     835.0435     55.07657     107.4626         7     1.013     0.459  77.99   0
       545    943.9352    231.3389 307.5497686  +6.6096317     1547.277     2091.383     2117.156       78.325     156.2156     312.4934      1.395     3.71     837.1071     55.07657     234.5777        15     1.154     0.895  85.78   0
       546    605.7392    227.4594 307.6903941  +6.5999447     5449.342     7358.728     7214.704       78.325     156.2778     312.4934      1.456     3.00      835.566     55.07657     729.8085        25     1.270     0.938  79.88   0
       547      7.7447    228.3650 307.9387703  +6.5795141     5446.191     7551.453     7599.758     78.20097     156.2778     309.7478      1.476     2.86     839.0716     55.07657     748.3743        27     1.220     1.019  72.29  16
       548    568.4513    227.5252 307.7058820  +6.5986705     2446.518     3151.958     3283.451       78.325     156.3399     312.4623      1.392     2.98     834.7051     55.07657     394.3398        17     1.149     0.857  58.29   0
       549    326.1592    228.1422 307.8065116  +6.5903009     1277.029     1746.481     1706.438       78.325     156.2778     312.5245      1.358     2.89     833.2957     55.07657     239.8555        10     1.001     0.641 -75.68   0
       550    410.3316    226.4645 307.7716024  +6.5938149     1806.917     2453.902     2027.938       78.325     156.3399     312.4934      1.487     3.62     833.1928     55.07657     267.4194        14     1.113     0.854  70.59   0
       551    966.5908    224.6322 307.5405807  +6.6131554     2985.707     3751.165     3583.226      77.8277     156.0291      312.307      1.374     3.02     836.7142     55.07657     407.5043        17     1.125     0.840  72.87   0
       552    912.7461    223.9960 307.5629710  +6.6116238     12888.13     17292.64     17713.35     77.70287     156.0291     312.1205      1.412     2.92     836.9736     55.07657      1780.18        32     1.239     0.974  77.32   0
       553    340.2651    224.3428 307.8007797  +6.5923425     987.5239     1652.979     1960.671     78.44884     156.2156     312.4934      1.700     3.07      833.214     55.07657      160.446        10     1.005     0.656  74.54   0
       554    231.5874    224.3887 307.8459229  +6.5886777     802.1421      1183.94     1095.645     78.20097     156.0291     312.4002      1.553     5.20      834.091     55.07657     122.3928        11     1.247     0.725 -82.79   0
       555    999.4300    221.8338 307.5270315  +6.6154045      10927.6     15044.64     15415.29      77.8277     156.0291     312.1826      1.456     2.96     836.3749     55.07657     1663.098        33     1.310     1.001  76.89   0
       556    587.8986    223.8748 307.6979256  +6.6008279     1027.182     1300.059     1118.135      77.8277     156.4019     312.4002      1.316     3.13     835.0217     55.07657     168.9024         9     0.938     0.652  37.33   0
       557    710.8468    221.8183 307.6469191  +6.6057862     3306.829     4333.492     4788.215      77.8277     156.2156     312.2448      1.418     3.10     837.3605     55.07657     437.5544        20     1.105     0.954  70.81   0
       558     38.8841    220.6766 307.9260948  +6.5837355     29188.62     39999.94     41203.07     78.44884      156.588     312.5555      1.473     2.90     838.3016     55.07657     4240.382        46     1.307     1.105  81.55   0
       559    285.2632    221.5068 307.8237230  +6.5916686     1297.863     1587.015     1464.607       78.325     156.3399     312.5245      1.397     3.92     833.4088     55.07657     172.0333        11     1.012     0.805 -72.92   0
       560    519.4890    216.7587 307.7265830  +6.6014771     2451.711     3255.453     2839.341       78.325     156.2156     312.4934      1.403     3.36      833.567     55.07657     326.3549        17     1.127     0.871  87.43   0
       561    851.2863    213.3179 307.5888606  +6.6139831     2209.788     2887.195     2712.127     78.07675      156.526     312.5555      1.381     3.19     837.1254     55.07657     346.9846        15     1.150     0.777  73.98   0
       562    531.3395    212.7226 307.7217955  +6.6035399     3099.201     4055.543     3796.651     78.44884     156.3399     312.4313      1.441     3.22     833.6297     55.07657      420.548        19     1.174     0.887  84.71   0
       563    903.5522    212.4402 307.5671768  +6.6160882     2309.208     3208.152     3506.031     78.20097     156.2778      312.307      1.480     2.87      836.472     55.07657     331.5715        16     1.054     0.852  70.87   0
       564    762.9532    210.0193 307.6256676  +6.6123973     46044.18     61487.77     62697.62     77.95232     156.2778      312.307      1.411     3.00     837.3678     55.07657     7081.126        51     1.319     1.022  73.15   0
       565    365.9672    209.3011 307.7906085  +6.5994138     6475.696     12277.89     12717.52       78.325     156.1535     312.5866      1.967     5.48     833.1635     55.07657      836.744        38     1.902     1.040 -81.08   0
       566    996.5817    208.7213 307.5286527  +6.6207232     3095.651     4347.771     4590.206     77.95232     155.9669     312.4002      1.490     3.15     835.5287     55.07657     418.6804        23     1.243     1.032  65.37   0
       567    930.8682    207.0394 307.5560091  +6.6192283     8631.761     11729.69     12124.68     78.20097     156.2778     312.5555      1.402     2.99      835.838     55.07657     1295.738        28     1.228     0.991  68.56   0
       568    474.3790    206.2337 307.7456757  +6.6043121     5813.318      7958.47     8546.995      77.8277     156.0913     312.2759      1.485     3.11     832.9761     55.07657     871.0252        28     1.360     0.951  70.01   0
       569    670.0396    204.7686 307.6644427  +6.6114617     2282.801     2101.028     1871.421     77.95232     156.0913      312.307      0.504     0.85     836.2921     55.07657     1611.984         5     0.433     0.308 -71.20   0
       570    248.8992    203.1195 307.8394473  +6.5980393     867.6906     1151.165     1217.736     78.20097      156.712     312.5245      1.345     4.27     833.7113     55.07657     116.2349         8     0.985     0.584  61.43   0
       571    131.6528    197.5457 307.8883391  +6.5964030     5567.729     7724.076     7845.484     78.57248     156.2157     312.4313      1.499     2.91     835.4938     55.07657     741.7518        30     1.236     1.089  75.08   0
       572    951.1140    196.5523 307.5479486  +6.6242325     929.9385      1167.73     1890.063       78.325     156.2156     312.4623      1.527     4.37     835.1041     55.07657     162.1575         9     1.184     0.578  73.28   0
       573    302.0321    194.2087 307.8176752  +6.6035006     38727.03     53248.82     54594.83      77.8277     156.0913      312.307      1.437     2.94     833.2459     55.07657      5848.22        47     1.293     1.095  74.27   0
       574    277.3217    195.2472 307.8279052  +6.6022429     7488.297     10174.36     10879.73       78.325     156.3399     312.4313      1.466     3.07     833.3833     55.07657     1036.458        27     1.242     0.981  67.68   0
       575    101.6374    196.8224 307.9008318  +6.5956929     522.6584     613.1393     573.6675     77.95232     156.0291     312.2448      1.263     2.82     836.2429     55.07657     96.11053         5     0.740     0.437  70.31   0
       576    628.1859    195.9599 307.6821252  +6.6136994     593.6113    -105.2384     38.27371      77.8277     156.0913     312.2137      1.099     2.36     835.0091     55.07657     134.3123         5     0.759     0.481  36.71   0
       577    731.2271    193.5445 307.6393994  +6.6181395     1018.153     1149.781     1306.462     77.95232     156.3399      312.307      1.301     3.48     836.7244     55.07657     168.3145         9     1.055     0.586  65.15   0
       578    426.0921    189.6809 307.7662909  +6.6095285      57433.5     78096.53     80240.61     78.07674      156.526     312.5245      1.458     2.95     833.0322     55.07657     8695.103        59     1.326     1.115  68.72   0
       579    182.0419    190.9758 307.8676288  +6.6008080     4623.936     6435.812     6891.847     77.95232     156.1535     312.2448      1.459     3.08     834.2933     55.07657     672.7034        23     1.155     1.027  75.25   0
       580    443.4033    190.2206 307.7590813  +6.6098856      1677.11     2110.264     1934.983     77.95232     155.9669     312.2448      1.312     2.81     832.9338     55.07657     261.2827        12     0.976     0.768  89.94   0
       581    765.3648    185.8784 307.6254739  +6.6224443     37952.09     50851.86     52325.87     78.20097     156.3399     312.4934      1.413     3.06     836.4507     55.07657     5832.191        47     1.328     1.017  71.84   0
       582    596.3782    188.8488 307.6955775  +6.6155717     611.0291     779.5435     1067.186     77.95232     156.3399     312.3691      1.379     3.41     834.0614     55.07657     92.48279         5     0.769     0.437 -70.63   0
       583    337.6300    186.8116 307.8031361  +6.6077482     2393.409     4041.698     4430.955      77.8277     156.0291      312.307      1.817     5.23     833.1829     55.07657     341.0051        26     1.828     0.901 -81.40   0
       584    330.1238    187.3447 307.8062363  +6.6072764     21257.28     29084.81      30172.8       78.325     156.2778     312.4002      1.468     3.00     833.1927     55.07657     3115.855        40     1.296     1.063  74.81   0
       585    713.5286    187.5769 307.6469518  +6.6200121      1073.69     1341.957     951.2569     77.95232     156.1535     312.4623      1.417     4.28     836.3759     55.07657     140.3009        11     1.096     0.726  62.72   0
       586    813.7065    186.3476 307.6053750  +6.6238640     1457.651     1960.502     2461.776     78.20097     156.2156     312.6797      1.378     2.88     836.3391     55.07657     235.9774        14     1.054     0.795  81.39   0
       587     52.5705    186.4597 307.9215632  +6.5983212      616.407     986.4338     1270.952     78.07675     156.2778     312.4313      1.997     4.62      837.732     55.07657     96.40155         7     0.888     0.684 -11.23   0
       588     82.1532    183.1688 307.9093856  +6.6006745     10353.31     14181.28     13931.16      77.8277     156.2778     312.3691      1.422     2.87     836.6429     55.07657     1631.562        32     1.263     1.019  76.14   0
       589    115.6553    181.2168 307.8955346  +6.6026064     1637.929     2330.108     2396.189      77.8277     156.2156     312.2137      1.516     3.24     835.4957     55.07657     218.5951        15     1.035     0.898  84.97   0
       590   1023.4255    179.7486 307.5184680  +6.6335784     1142.778     1255.662     1538.715     70.77286     127.7776     238.9485      1.209     4.20     833.3576     55.07657     200.1496        10     1.080     0.692 -84.07  24
       591    992.0959    179.0461 307.5315075  +6.6328251     576.2856     901.4318     934.2835       78.325     156.2156     312.6176      1.542     4.76      833.605     55.07657      88.7005         5     1.120     0.627  13.29   0
       592    749.7645    174.0792 307.6323500  +6.6267946     768.1091     828.0375     979.5203     78.20097     156.3399     312.4623      1.239     3.56     836.0161     55.07657     139.8615         7     0.872     0.594  57.01   0
       593    599.0486    170.4022 307.6950867  +6.6232765     855.3035      922.717     707.4436     77.70287     155.9046     312.0582      1.312     3.49     833.4688     55.07657     169.5743         9     1.097     0.555  62.59   0
       594     15.4483    168.4512 307.9375909  +6.6045069     1206.717     1645.731     1155.181     78.44884     156.1535     312.4623      1.476     3.16     839.2004     55.07657     172.0461        12     0.927     0.851  57.32   0
       595   1023.5728    166.2489 307.5188576  +6.6391566     1284.022     1510.759     1777.159     69.10738     125.7098     236.6627      1.230     2.87     832.3783     55.07657     313.7356        11     1.097     0.637  89.12  24
       596    607.7897    164.1701 307.6916643  +6.6261416      1160.27     1703.392     2173.227      77.8277     156.0913      312.307      1.654     4.41     833.3464     55.07657     173.6233        13     1.208     0.773  67.61   0
       597    616.2052    162.2673 307.6882319  +6.6272085     2296.909     2976.628     3213.297      77.8277     155.9669     312.2759      1.364     3.12     833.5332     55.07657     324.7222        17     1.173     0.824  83.13   0
       598    360.3810    162.3103 307.7945084  +6.6186259     1148.813     1512.693     1655.614     78.07675     156.0291     312.3691      1.438     3.72     833.1412     55.07657     178.7197        12     1.064     0.808  88.99   0
       599    300.9536    160.4464 307.8192586  +6.6174025     35705.72     48295.46      50044.1       78.325     156.1535     312.4623      1.458     2.91      833.177     55.07657     5188.811        51     1.319     1.102  71.43   0
       600     46.1250    158.8569 307.9251713  +6.6094995     5127.141     6952.281     7262.237     78.20097     156.2156     312.4002      1.429     3.11     837.8123     55.07657     760.1605        25     1.215     1.007  57.94   0
       601    732.6561    157.0688 307.6400272  +6.6332460     9530.388     12609.76      11462.7     78.44884     156.1535     312.4313      1.393     2.91     835.2671     55.07657     1360.792        29     1.204     0.981  77.98   0
       602    209.8417    158.1715 307.8571848  +6.6152840     1008.078     1224.379     1029.921     77.95232     156.2156     312.3381      1.336     2.90     833.4763     55.07657     167.0148        10     0.910     0.782  34.57   0
       603    286.8867    155.3922 307.8252723  +6.6190171     925.0605     1216.177      1264.54     77.95232     155.9669     312.2448      1.348     3.99     833.2831     55.07657     150.8405        10     1.079     0.684  54.64   0
       604    143.2469    154.1974 307.8849831  +6.6146878     5681.095     7828.738     8021.594     77.70287     155.9669     312.0893      1.445     3.04     833.8788     55.07657     809.2517        23     1.179     0.943  74.52   0
       605    439.1038    153.2788 307.7621081  +6.6249924     562.8809     545.3148     254.1409     78.07675      156.526     312.5245      1.294     3.99     832.6573     55.07657     115.6829         5     1.093     0.475  56.76   0
       606    605.3914    151.9918 307.6930690  +6.6310891     900.1996     1330.962     1605.593     77.70287     156.0913     312.3381      1.448     3.66     832.8987     55.07657      163.602         9     1.105     0.597  81.29   0
       607    482.2057    151.4440 307.7442637  +6.6271933     1714.823     2100.572     2099.858     77.70287     155.9669     312.1516      1.370     3.31     832.0034     55.07657     259.9388        12     1.102     0.694  74.00   0
       608    414.0523    150.3406 307.7726140  +6.6253662     4443.162     6629.445     6706.184       78.325     156.2156     312.4623      1.579     3.43     832.9808     55.07657     642.2731        28     1.433     0.982  64.63   0
       609    671.0995    150.7588 307.6658121  +6.6337946     970.9064     1418.644     1276.998       78.325     156.1535     312.6797      1.591     4.97       834.78     55.07657     149.9418         9     1.120     0.623  68.03   0
       610    378.5099    149.0495 307.7874229  +6.6247081     3580.969     4767.438     4567.977       78.325     156.0913     312.6176      1.404     2.77      833.219     55.07657     549.2136        21     1.190     0.888  68.91   0
       611    590.5285    149.0831 307.6993412  +6.6317929     788.4164      1170.26     1252.091     78.57248      156.588     312.4934      1.503     5.26     832.6767     55.07657     111.8336        10     1.231     0.634 -64.57   0
       612    132.7010    148.8927 307.8895427  +6.6165234     1926.468     2597.441     2720.193       78.325     156.8358     312.4002      1.429     3.37     833.9976     55.07657     252.7069        17     1.135     0.914  80.44   0
       613    961.1742    148.5952 307.5453714  +6.6443667     531.7958     573.7505     566.9122      77.8277     156.0913      312.307      1.304     3.51     832.5229     55.07657     86.16333         5     0.961     0.371  84.83   0
       614    694.5506    147.1195 307.6561913  +6.6360806     835.0057     1058.495     1107.098       78.325     156.3399     312.4623      1.340     5.17     834.5566     55.07657     123.8406        12     1.330     0.808  46.49   0
       615    750.9626    143.1145 307.6328889  +6.6396182     626.1631     659.3819     384.8239       78.325     156.2156     312.4623      1.183     4.70     834.2185     55.07657     98.91418         6     1.224     0.513  74.32   0
       616    868.8779    138.2036 307.5840644  +6.6455804     528.5699     780.0735     1499.508      77.8277     155.7801     312.2759      2.237     4.17     833.4959     55.07657     84.49261         6     1.211     0.410  60.76   0
       617    230.3157    137.9735 307.8493593  +6.6243096     6355.664     8759.787     8269.924     78.44884     156.0291     312.3381      1.459     2.92     833.2934     55.07657     947.1798        28     1.210     1.040  67.74   0
       618    112.9332    137.8252 307.8981274  +6.6204280     2443.933      3351.85     3498.642     77.95232     156.1535     312.3691      1.489     3.39     834.0863     55.07657     337.9269        18     1.251     0.824  77.36   0
       619    840.1716    136.8730 307.5960353  +6.6451722     1173.239     1476.125     1700.727     78.20097     156.2778     312.4313      1.348     2.92     833.5261     55.07657     191.5659        10     1.035     0.639  86.55   0
       620    692.1184    136.8099 307.6575472  +6.6402556     7178.335     9568.814      9541.41     77.95232     155.9669      312.307      1.396     2.82     833.8461     55.07657     1219.172        26     1.198     0.956  71.07   0
       621    644.3166    134.1584 307.6774954  +6.6397528     10882.85     14553.07     15913.61       78.325     156.2778     312.4002      1.395     2.90     833.0293     55.07657     1739.687        30     1.235     0.970  76.06   0
       622    279.2277    134.6959 307.8291503  +6.6273042     993.6711     1499.028     1216.154     78.44884     156.0291     312.4002      1.618     4.79     833.6101     55.07657     148.2209        11     1.240     0.770  62.31   0
       623    582.2736    133.7541 307.7032848  +6.6378452     728.6553     990.1843     1261.426     78.20097     156.3399     312.4623      1.477     4.42     832.0659     55.07657     114.9664         7     0.880     0.631  49.44   0
       624     43.2445    133.1085 307.9272360  +6.6200321     1054.426     1736.274     1447.479       78.325     156.2156     312.5866      1.720     4.57     837.0751     55.07657     138.7092        14     1.310     0.829 -61.81   0
       625    371.3532    129.8662 307.7910407  +6.6323877     4184.729     6354.223     6793.558       78.325     156.2156     312.4623      1.606     3.15     833.5261     55.07657     658.6854        28     1.317     1.110 -77.32   0
       626    552.9976    128.9996 307.7156069  +6.6388286     2044.085     2612.923     2800.019     77.70287     155.8424     312.1516      1.347     2.93     831.6314     55.07657       358.15        15     1.102     0.769  67.14   0
       627   1017.5112    128.8251 307.5226256  +6.6544051     959.0073     1170.043     1597.176     78.44884     156.0913     308.1454      1.396     4.01     832.1479     55.07657     153.9387         9     0.953     0.751 -83.07  16
       628    647.8326    125.6177 307.6763210  +6.6433963     62207.88     82939.39     85884.25     77.95232     156.0913     312.3381      1.426     2.96     832.6567     55.07657      9334.63        60     1.332     1.066  74.53   0
       629    326.9621    119.3164 307.8098371  +6.6352545     4101.677     5574.777     6366.351       78.325     156.2156     312.4002      1.461     3.08     834.0021     55.07657     595.9943        24     1.228     1.007 -86.16   0
       630     24.4499    102.4522 307.9360774  +6.6320554     756953.1      1450831      1553355     78.44884     156.1535     312.4623      2.035     2.85     837.2181     55.07657     62060.02       447     2.058     1.855  80.65   4
       631    726.8928    113.8350 307.6438695  +6.6509022      911.916     1233.361     1097.286     78.44884     156.1535     312.5245      1.353     3.64     832.2119     55.07657     136.4099         9     1.071     0.638  82.05   0
       632    698.2856    112.8626 307.6557872  +6.6503481     1433.947     2014.852     1988.467     78.44884     156.4019     312.4623      1.453     3.43     832.1409     55.07657     290.5647        12     1.194     0.684  69.94   0
       633    712.2122    109.5109 307.6501136  +6.6521970     3707.854     4941.796     4651.942     78.07675     156.0291     312.3691      1.413     3.10     831.9277     55.07657     554.7388        22     1.244     0.863  61.60   0
       634     92.7402    104.4745 307.9076399  +6.6335171     610.0887     753.8369      881.178     78.57248     156.2778     312.4313      1.608     5.01     833.0273     55.07657     90.65326         6     0.927     0.766 -71.36   0
       635    453.9839    100.5573 307.7576969  +6.6472560     4842.316      6441.03     6497.515      77.8277     156.0913     312.2448      1.422     2.96     831.5222     55.07657     728.5467        21     1.157     0.911  68.06   0
       636    908.5511     96.8938 307.5689627  +6.6639577     2377.452     3402.526     3481.969     78.20097     156.1535     312.5866      1.472     2.91     830.7116     55.07657      372.341        18     1.185     0.831  64.03   0
       637    926.5225     95.8362 307.5615314  +6.6649933     4523.798     6177.601     6488.443     78.20097     156.3399     312.4623      1.435     2.87     830.6785     55.07657     696.3379        26     1.275     1.040  73.26   0
       638    606.6143     96.3128 307.6944280  +6.6541164     768.7856     813.3693     746.2434     77.95232     156.0913     312.3691      1.378     4.60       830.95     55.07657      134.591         7     1.006     0.598  70.38   0
       639    618.6280     94.5473 307.6894959  +6.6552470     2079.669     2630.745     2837.845     78.07675     156.4019     312.3691      1.342     2.95     830.9332     55.07657     319.7112        16     1.114     0.839  83.08   0
       640    264.4659     93.9461 307.8366539  +6.6436315     891.2421     1140.698     1549.117       78.325     156.2156     312.4313      1.350     3.73     833.8278     55.07657     129.7955         6     0.810     0.493  83.44   0
       641    107.9767     94.0705 307.9016609  +6.6383243     542.9174     431.0673     209.5141     77.95232     156.1535     312.4313      1.155     3.72     832.2018     55.07657     91.25348         5     0.649     0.612  87.95   0
       642    417.4774     92.2970 307.7731411  +6.6494432     2358.164     3060.068     2413.994     77.95232      156.464     312.5245      1.436     3.12     832.6597     55.07657     332.8647        17     1.106     0.870  76.69   0
       643    165.1765     89.3579 307.8780570  +6.6421919     3691.556     5053.061     4924.743     77.95232     156.1535     312.2448      1.484     3.16     831.5873     55.07657     548.4453        23     1.187     0.967  72.39   0
       644    313.6869     87.9832 307.8164059  +6.6477446     1475.045     2449.816     3190.013     77.95232     156.0291     312.3691      1.984     5.35     834.6488     55.07657     197.6149        17     1.501     0.805  60.65   0
       645     47.1373     87.1819 307.9271675  +6.6391224     14184.91     19907.62     20381.02     77.95232     156.2156     312.3381      1.475     3.05     834.8015     55.07657     2142.601        39     1.322     1.078  69.10   0
       646    967.8638     86.2088 307.5446766  +6.6703456     535.2993     831.7103     783.9647      77.8277     156.0913     312.2759      1.401     4.23     830.8833     55.07657      91.5484         6     1.175     0.434  62.44   0
       647    781.9115     86.0943 307.6219398  +6.6641917     856.0137     1411.981     2366.603       78.325      156.712     312.5245      2.408     3.42     830.2694     55.07657     132.4874         9     0.955     0.649 -82.39   0
       648    574.3487     86.6582 307.7081569  +6.6570230     764.1374     999.3735     432.3772       78.325     156.2778     312.4623      1.355     4.21     830.3691     55.07657     106.0658         9     1.004     0.651 -87.94   0
       649    915.6228     82.8768 307.5664932  +6.6699803     582.5103     611.5865     643.6947     77.95232     156.1535     312.4002      1.282     3.48     830.2484     55.07657     90.91388         5     0.778     0.449  73.22   0
       650    848.8416     81.6844 307.5942794  +6.6682457     6962.562     9166.815     9468.552       78.325     156.1535     312.4313      1.394     2.96     830.1673     55.07657      1008.61        26     1.198     0.928  75.30   0
       651    793.9747     82.0506 307.6170631  +6.6662638     4033.805     5603.021      5840.44     77.95232     156.2778     312.3691      1.444     3.19     830.0634     55.07657     580.7856        26     1.226     1.047 -88.91   0
       652    439.0211     82.5998 307.7645164  +6.6541683     1244.726     1780.094     1620.656     77.95232     155.9669     312.1516      1.514     3.66     831.7305     55.07657     186.0055        11     0.961     0.815  59.64   0
       653    118.5004     82.2920 307.8976859  +6.6435404     674.5474     1158.519     1302.014       78.325      156.712     312.4313      1.702     4.14     831.6816     55.07657     97.91272         7     1.059     0.463  78.52   0
       654    939.9462     81.7021 307.5564265  +6.6712759     655.3093     702.5226     720.6282     78.20097     156.2778     312.6797      1.328     3.69     830.3546     55.07657     110.9941         5     0.822     0.475  48.71   0
       655    587.0014     86.7097 307.7028985  +6.6574250     740.9689     1080.996     842.9583     77.57785     155.8424     312.1826      1.495     3.52     830.4746     55.07657     116.4055         7     0.866     0.723 -75.03   0
       656    556.3659     79.9639 307.7158527  +6.6591850     1310.649     1674.692     1691.747     78.07674     156.0291     312.2137      1.358     3.19     830.0331     55.07657     191.4996        12     1.041     0.768 -85.01   0
       657     72.0745     80.1646 307.9170444  +6.6428579      1050.62     1505.081     1411.997     78.20097     156.3399     312.4623      1.522     4.39     833.0118     55.07657     191.5866        11     1.207     0.695  61.70   0
       658    676.4927     79.8187 307.6659487  +6.6632617      550.853     728.6666     718.1919     78.20097     156.0291     312.3381      1.304     2.75     830.3735     55.07657     119.8708         5     0.737     0.450  68.08   0
       659     87.4286     79.0368 307.9107038  +6.6438397     3669.498     5030.064     5097.554     77.95232     156.0291     312.2759      1.419     2.89     832.2332     55.07657     567.2345        18     1.126     0.848  75.02   0
       660    448.4453     78.5278 307.7607378  +6.6561650     1101.036     1535.076     1740.219     78.20097     156.3399     312.4623      1.485     4.69      831.332     55.07657     148.3896        12     1.273     0.717  51.42   0
       661    611.2139     75.6426 307.6932101  +6.6628036     1494.549     2285.991      2028.07     77.57785     156.0913     312.2137      1.479     3.40     830.2661     55.07657     249.5674        15     1.224     0.813  79.06   0
       662     29.7876     74.5502 307.9348010  +6.6437534      3028.34      4331.87     5336.332     77.70287     156.2156     312.1826      1.585     3.12     834.5809     55.07657      416.664        19     1.190     0.889  69.55   0
       663    738.2524     72.3466 307.6405394  +6.6684097     626.8486     676.7147     1102.703     78.57248     156.1535     312.4934      1.236     3.73     830.0714     55.07657     104.7184         6     0.979     0.541  35.49   0
       664    788.3410     69.2421 307.6198326  +6.6713636     2165.263     3011.129     3031.221       78.325     156.2778     312.4934      1.408     4.09     829.7074     55.07657     342.3444        17     1.304     0.764  61.38   0
       665    429.3484     69.7542 307.7689665  +6.6591473     1353.494     1605.332     1879.894     78.44884     156.2156     312.5245      1.212     2.94     831.8833     55.07657     251.0504        10     0.927     0.732  82.35   0
       666    102.4064     70.0704 307.9047838  +6.6480448     945.1625     1077.864     675.5562      77.8277     155.9046     312.3381      1.340     4.36     831.3843     55.07657     132.6534         8     0.877     0.683  40.81   0
       667    679.9691     68.7608 307.6648749  +6.6679430     596.7639     1103.967     1412.131     77.95232     156.0913      312.307      1.953     4.82     829.9655     55.07657     98.77417         7     1.079     0.611  68.01   0
       668    126.1943     68.3493 307.8949593  +6.6495549      1173.37     1550.269     1344.001      77.8277     156.0913     312.0893      1.457     3.90     831.1671     55.07657     156.1506         9     0.939     0.659 -72.53   0
       669    115.1800     63.3185 307.8997046  +6.6512615     10932.53     14766.75     15156.61     78.07675     155.9669     312.4002      1.441     2.97     831.0608     55.07657     1646.617        30     1.247     0.989  71.02   0
       670    444.2905     63.0742 307.7629831  +6.6624056     2981.354     4159.229     4008.549       78.325      156.526     312.4934      1.440     3.03     831.1946     55.07657     451.1633        19     1.157     0.864  77.01   0
       671    265.6377     63.2994 307.8371982  +6.6563226     756.2359     1016.211     1069.977       78.325     156.1535     312.6797      1.397     5.24     834.1444     55.07657     104.3574        10     1.175     0.680  74.64   0
       672    281.9553     57.2982 307.8306209  +6.6593476     1816.378      2641.33     3425.709       78.325     156.2156     312.6797      1.568     4.20     834.9997     55.07657     276.6894        16     1.313     0.836  49.18   0
       673    657.9849     55.3229 307.6744592  +6.6727560     21816.16     28665.98      29955.9     77.95232     155.9669      312.307      1.392     2.92     829.4661     55.07657      3336.79        39     1.263     1.005  68.27   0
       674    687.7274     56.7089 307.6620553  +6.6731777     609.7811     902.5812     933.2719       78.325      156.464     312.4623      1.707     4.35     829.5204     55.07657     93.76611         7     1.125     0.479  61.22   0
       675    557.7828     51.3272 307.7162249  +6.6710547     6133.973     8122.918     8214.362      77.8277     156.2156     312.3691      1.416     2.93     829.2524     55.07657     877.4052        24     1.224     0.918  75.90   0
       676    275.8945     51.7937 307.8333241  +6.6614166      2339.18     3323.357      4439.13     78.07674     155.9669     312.2759      1.620     3.13     834.7711     55.07657       349.73        20     1.105     1.013  73.77   0
       677    713.7894     50.0455 307.6514503  +6.6767994     729.2397     1001.149     1987.114      77.8277     156.1535     312.1826      1.676     4.55     829.2608     55.07657     112.6045         9     1.073     0.610 -89.55   0
       678     25.2023     49.6839 307.9375446  +6.6538644     1337.377     1885.298      1488.75     77.70287     155.9046     312.1516      1.549     4.55     832.2878     55.07657     165.3887        14     1.210     0.811  77.75   0
       679    283.9449     47.2976 307.8301308  +6.6635429     10596.31     14709.21     15685.01     78.20097     156.2778     312.6487      1.476     2.95     835.2961     55.07657     1554.711        33     1.307     1.034  82.07   0
       680    941.1771     47.0381 307.5570737  +6.6856277     2284.589     2994.289     3110.802     77.95232     156.0291     312.2759      1.410     3.27      829.099     55.07657     322.2997        16     1.168     0.854  80.98   0
       681    644.4015     45.8323 307.6804210  +6.6762200     3632.663      5736.99     6437.299     77.70287     156.0913     312.2137      1.803     5.60     829.1589     55.07657     566.4503        31     1.880     0.913  75.15   0
       682    463.2987     47.0008 307.7556256  +6.6696779      26335.7     35924.43     36781.57      77.8277     155.9046     312.1516      1.444     2.95     830.1475     55.07657     4122.419        43     1.305     1.050  74.12   0
       683    343.4409     47.5174 307.8054052  +6.6654479     1117.173     1199.739     1096.841       78.325     156.2778     312.4002      1.392     3.60     835.5558     55.07657     156.1317        11     1.048     0.742  65.38   0
       684     49.1181     46.9147 307.9277024  +6.6558121     2654.306     3495.401     3509.448     78.07675      156.526     312.5245      1.404     2.98     831.5082     55.07657     379.6399        18     1.066     0.944 -78.92   0
       685    576.0698     46.6629 307.7087835  +6.6735921     780.4759     995.7153     515.0593       78.325     156.2778     312.5245      1.232     2.43     829.1806     55.07657     159.1586         7     0.700     0.676  -7.91   0
       686    548.5393     46.7918 307.7202175  +6.6726177     768.4999     1075.946     1511.243     77.70287     156.0913     312.2448      1.443     4.19     829.1238     55.07657     129.8473         8     1.002     0.642 -53.97   0
       687    271.8005     43.8531 307.8352922  +6.6645573     3504.412     4946.367      5863.77     77.57785     155.9046     312.0271      1.491     3.04     834.6548     55.07657     520.6338        23     1.270     0.953  80.23   0
       688    324.9805     42.1753 307.8132544  +6.6670341     1144.639     1531.619     1831.285     77.95232     156.0913     312.4002      1.429     3.38     835.6918     55.07657     199.9109        11     1.043     0.751  57.87   0
       689    713.1702     36.7083 307.6521544  +6.6822848     2212.011     2895.763      2963.39     78.44884     156.0291     312.4002      1.416     3.11     828.7787     55.07657     340.9781        16     1.221     0.742  77.00   0
       690    118.1422     37.4092 307.8993471  +6.6620569     699.3522     1035.632     915.6773     77.70287     156.2156     312.1826      1.546     5.00     830.1632     55.07657     132.9081         7     1.112     0.637  46.45   0
       691    961.7168     36.7302 307.5488840  +6.6905677     1221.004     1750.296     1775.625     78.57248      156.526     312.4934      1.578     4.12     828.7585     55.07657     166.0128        12     1.011     0.895  85.84   0
       692    224.2848     32.2941 307.8554220  +6.6677342      977.541     1284.306     1350.129     78.20097       156.65     312.5866      1.547     3.85     831.6837     55.07657     155.1158         7     1.003     0.629  68.00   0
       693    279.1976     31.1842 307.8326452  +6.6700356     867.3716     1264.126     1304.639     77.95232     155.9046     312.2759      1.443     4.15     835.2775     55.07657     146.8043        11     1.051     0.887 -45.97   0
       694    201.3750     29.4026 307.8650375  +6.6681586     12502.33     16908.38     17330.35     77.95232     155.9669     312.2759      1.464     2.91     831.0078     55.07657     1825.317        35     1.265     1.039  74.69   0
       695     14.5869     29.3469 307.9426407  +6.6619027     1026.098     1379.661     878.1396     77.70287     156.2156     312.2137      1.451     3.86     830.2163     55.07657     142.9981        12     1.130     0.831 -72.02   0
       696    947.0331     27.0544 307.5553085  +6.6940730     4498.993      6407.34     6539.333     78.20097     156.2778     312.4002      1.488     3.10      828.365     55.07657      696.914        26     1.271     1.011  70.26   0
       697    545.5323     27.6192 307.7221102  +6.6804322     3459.755     4476.654     4536.346     77.95232     156.2157     312.3691      1.372     2.86     828.6309     55.07657     499.3973        20     1.146     0.918  61.55   0
       698    747.7783     25.6666 307.6381449  +6.6879991     2475.748     3330.788     3226.334     77.95232     156.2778     312.4002      1.456     3.20     828.3762     55.07657     354.9417        15     1.084     0.833  82.84   0
       699    483.7198     25.9303 307.7478488  +6.6790603     2331.039     2835.243     3003.368     78.57248      156.588     312.4313      1.290     2.96      828.948     55.07657      350.173        15     1.100     0.796  68.10   0
       700   1011.6976     23.2913 307.5285658  +6.6977807     2207.242     3134.324     2481.027       78.325     156.7739     312.4313      1.524     3.72     828.0453     55.07657     303.8765        22     1.316     1.012 -81.03   0
       701    102.5839     25.2274 307.9062214  +6.6665628     460.6293     422.5074     286.6418     77.95232     156.0291     312.3691      1.009     3.42     829.7355     55.07657     74.70209         5     0.743     0.454 -70.95   0
       702    806.0999     22.5753 307.6140160  +6.6912223     641.4397     840.4924     876.1777     78.44884     156.0291      312.307      1.520     5.71     828.3128     55.07657     100.7612         7     1.364     0.674  71.33   0
       703    385.8622   1021.2545 307.7550794  +6.2648739     1966.405     2855.112     2918.032     78.44884     152.4418     270.6452      1.572     3.69     862.0375     55.07657     220.5607        18     1.147     1.019  73.85  16
       704    651.4058     19.1009 307.6784069  +6.6874899     4442.335     5779.032      6284.82     78.07674     155.9046     312.1826      1.375     2.96      828.165     55.07657     681.7465        18     1.112     0.837  72.47   0
       705    353.3612     18.6796 307.8022532  +6.6776855     1043.053     1514.092     1974.863     78.20097     156.3399     312.4313      1.577     3.65     836.2133     55.07657     154.8156         9     0.976     0.712  52.64   0
       706    406.8608     17.2424 307.7800738  +6.6800723     887.8398     1185.838     973.2062       78.325     156.2778     312.5555      1.368     3.21     832.2878     55.07657     169.6238         9     0.949     0.766  57.89   0
       707    233.9852   1020.2111 307.8181643  +6.2602148     571.1027     633.0313     614.1104     77.95232     155.9669     283.5711      1.287     5.06     859.2626     55.07657     90.27698         8     1.150     0.630  36.69  16
       708    995.8094   1018.3425 307.5019516  +6.2864412     472.9936     1073.871     1162.407     77.70287     156.2156     302.1009      1.693     3.68     857.0853     55.07657      70.1369         5     1.008     0.386  85.67  16
       709    772.8033   1010.8612 307.5947870  +6.2820982     7660.211     12285.77     12899.88     77.70287     156.0291     312.1826      1.687     3.37     859.4067     55.07657     1000.432        34     1.405     1.172  80.89   0
       710    568.3242   1011.4960 307.6796576  +6.2750075      4543.65     6911.568     7374.032     77.95232     156.4019     312.5245      1.672     3.29     860.8548     55.07657     595.2593        27     1.296     1.155  59.43   0
       711    538.1571   1012.4854 307.6921485  +6.2735904     1015.966     1754.195     1948.682       78.325     156.1535     312.4623      1.763     6.58     860.9041     55.07657     141.8815        13     1.543     0.800  15.29   0
       712    318.5447   1010.1328 307.7833991  +6.2672103     15820.96     23466.17     24713.02       78.325     156.1535     312.4002      1.640     3.12     861.6556     55.07657     2291.526        57     1.644     1.298 -42.20   0
       713    833.9587   1010.4954 307.5694094  +6.2842889     1112.341     1778.728     1825.519       78.325     156.2156     312.5866      1.842     5.19     859.1921     55.07657     146.1026        13     1.198     0.849  53.87   0
       714    443.1201   1010.9017 307.7316563  +6.2710648     1086.105     1498.253     1326.216     78.20097       156.65     312.4934      1.534     4.87     861.7211     55.07657     136.3417        11     1.092     0.732 -76.27   0
       715     15.3081   1011.1031 307.9092493  +6.2566332     707.5912     1072.446     1476.486       78.325     156.7739     312.4313      1.789     6.54     853.7758     55.07657     100.2429         8     1.496     0.802 -27.80   0
       716    289.8059   1007.8356 307.7954069  +6.2671954     830.4926     1215.257     1000.179     77.57785     156.0291     312.2448      1.447     2.40     861.4109     55.07657     154.6755         8     0.774     0.667 -40.72   0
       717    934.1196   1004.2918 307.5280325  +6.2901879     8328.073     13818.54     14655.39     78.07675      156.526     312.5245      1.769     3.61     857.6199     55.07657     993.6274        41     1.474     1.258  76.63   0
       718    565.4722   1003.6016 307.6811060  +6.2781713     8806.711     12692.19     13856.35      77.8277     155.8424      312.307      1.591     3.08     860.7498     55.07657     1195.677        36     1.342     1.113  80.60   0
       719    907.7200   1000.5172 307.5391189  +6.2908668     11654.61     20052.35     21534.74       78.325      156.526     312.5245      1.863     3.65     858.0575     55.07657     1385.085        52     1.581     1.382  79.61   0
       720     64.4155   1003.2056 307.8891296  +6.2615436     555.7001     733.5674     654.1501     77.95232     155.9669      312.307      1.439     3.85     855.5111     55.07657     90.52179         5     0.816     0.686 -23.10   0
       721     17.2676   1001.9680 307.9087436  +6.2604703     668.8817     1111.354     1451.355     78.20097     156.2778     312.4313      1.803     6.19     853.7246     55.07657     103.9014        10     1.428     0.755  86.04   0
       722    620.4646   1000.9255 307.6583650  +6.2811140     1450.413     2160.064     2366.613     78.44884     156.2778     312.4313      1.630     3.13     860.6487     55.07657     234.5812        16     1.092     0.908  83.94   0
       723    552.0795    999.4996 307.6868036  +6.2794170     4488.399     6878.412     7268.252     78.07674      156.588     312.4934      1.678     3.44     860.6674     55.07657     637.9788        30     1.414     1.199  36.35   0
       724    661.4243    998.7527 307.6414328  +6.2833793     1397.351     1877.282     2575.954     77.95232     156.2778     312.3381      1.440     3.29     860.1419     55.07657     214.3257        15     1.169     0.816  83.58   0
       725     86.2901    998.1292 307.8802198  +6.2643741     979.0578     1297.717     1008.937     78.20097      156.526     312.4623      1.469     3.78     856.1791     55.07657      128.601        14     1.176     0.805  79.89   0
       726    504.9684    996.0070 307.7064792  +6.2792835     2338.598     3144.957     3083.311     77.70287     156.1535     312.2448      1.421     3.34     861.0812     55.07657     339.0824        19     1.187     0.966 -85.20   0
