#   1 NUMBER                 Running object number                                     
#   2 X_IMAGE                Object position along x                                    [pixel]
#   3 Y_IMAGE                Object position along y                                    [pixel]
#   4 ALPHA_J2000            Right ascension of barycenter (J2000)                      [deg]
#   5 DELTA_J2000            Declination of barycenter (J2000)                          [deg]
#   6 FLUX_APER              Flux vector within fixed circular aperture(s)              [count]
#   9 FLUXERR_APER           RMS error vector for aperture flux(es)                     [count]
#  12 FLUX_RADIUS            Fraction-of-light radii                                    [pixel]
#  13 FWHM_IMAGE             FWHM assuming a gaussian core                              [pixel]
#  14 BACKGROUND             Background at centroid position                            [count]
#  15 THRESHOLD              Detection threshold above background                       [count]
#  16 FLUX_MAX               Peak flux above background                                 [count]
#  17 ISOAREA_IMAGE          Isophotal area above Analysis threshold                    [pixel**2]
#  18 A_IMAGE                Profile RMS along major axis                               [pixel]
#  19 B_IMAGE                Profile RMS along minor axis                               [pixel]
#  20 THETA_IMAGE            Position angle (CCW/x)                                     [deg]
#  21 FLAGS                  Extraction flags                                          
         1    269.5504     25.3232 307.8197306  +6.6176109     11410.26      37917.9     47837.89     92.07901     184.0849     367.9139      2.884     7.55     1216.924      64.8508     1244.232        93     2.311     2.049 -50.27   0
         2     17.0076     23.0000 307.9250270  +6.6101523     1721.973     3271.907     5070.024      91.3453     183.5724     367.6577      2.675    11.85     1222.478      64.8508     193.9097        26     2.824     1.432   5.29  19
         3    701.3011     21.6905 307.6399583  +6.6334568     3603.799     10307.08     12292.26     92.22505     184.5231     367.8773      2.681     6.80     1187.842      64.8508     355.3192        57     2.005     1.824 -43.78   0
         4    112.3565     19.2208 307.8854286  +6.6148970     1988.614     6058.566     6898.149     91.63949     183.8655     367.7309      2.674     9.58     1217.522      64.8508      231.598        48     2.244     1.656 -53.40   0
         5    382.4331     16.9678 307.7729777  +6.6248235     1451.423     3320.435     4492.338     91.63949      183.719     367.6211      2.553     6.60     1204.249      64.8508     199.6691        18     1.457     1.094 -14.18   3
         6    383.3416     14.0302 307.7726976  +6.6260689     1541.869     3842.816     5198.996     91.93273     184.0118     367.8407      2.696     8.18     1204.207      64.8508      164.285        26     1.803     1.202   6.98   3
         7    348.1174     14.9412 307.7873434  +6.6245204     1160.804     3192.166     4429.305     92.22505     184.0849      367.987      2.838     8.96     1208.755      64.8508     160.5664        24     2.046     1.095 -51.47   2
         8    993.2533      7.7603 307.5187702  +6.6488817     835.4285     1682.232     1079.933     92.07901     184.0118     364.7914      2.008     5.86     1177.161      64.8508     121.6066         7     1.604     0.602  70.00  16
         9     81.7929      4.9351 307.8986422  +6.6197869     873.4272       2127.4     3049.398     91.63949      183.719     335.7844      2.897     5.52     1217.891      64.8508     113.3563        10     1.356     0.633 -42.59  24
        10    660.6833      2.5545 307.6575215  +6.6400262     2855.066     5814.005     6408.603     92.22505     165.8559     299.2034      2.106     6.58     1188.718      64.8508     286.5492        32     1.856     1.170 -17.92  24
        11    612.1780      1.4608 307.6777692  +6.6388697     1884.097     2926.669     2948.992      82.0305     148.4729     279.1449      1.655     5.80     1189.572      64.8508     328.7806        16     1.806     0.575  -6.39  24
        12    199.1761      3.2913 307.8497905  +6.6243805     2208.588     6022.302     6923.317     92.22505     174.9386     311.4568      2.543     7.91     1216.607      64.8508     300.8264        41     1.973     1.546 -15.20  24
        13    488.5180   1000.8173 307.6959013  +6.2213627     884.8304     1724.296     2162.001     91.78623     183.6458     367.8407      2.292     6.41     1253.596      64.8508     149.3413        10     1.506     0.767   7.56   0
        14    537.6169   1021.8280 307.6747588  +6.2143005     4069.905     7893.732     8026.394     91.78623     173.3155     309.5931      2.017     4.66     1253.302      64.8508     484.7595        36     1.611     1.325 -23.04  24
        15    466.0001   1021.9307 307.7045711  +6.2118815     1879.938     3531.102     3317.196     91.63949     172.1468      307.587      1.907     5.72     1254.205      64.8508     225.7815        25     1.675     1.130 -37.83  24
        16    300.8384    997.5654 307.7741456  +6.2164734      22100.4     48353.94     52842.15     91.93274     183.8655     367.6577      2.235     4.99     1254.848      64.8508     2132.987        75     1.909     1.606 -51.31   0
        17    407.1534    996.8301 307.7299089  +6.2203106     1016.879      2498.84     2965.382     91.63949     184.0118     367.8041      2.546     8.84     1253.708      64.8508     117.7614        23     1.933     1.129 -29.36   0
        18    465.6148    996.0974 307.7055942  +6.2225550     1767.858      3613.12     3784.068     92.07901      183.719     367.6577      2.126     6.35     1253.644      64.8508     207.2952        26     1.604     1.313 -27.48   0
        19    215.7339    991.1898 307.8097894  +6.2162798     38752.27      83527.9     92347.48     91.63949     183.8655     367.7675      2.219     4.86     1254.656      64.8508     3944.866        90     1.939     1.633 -49.31   0
        20    990.4092    995.0579 307.4871333  +6.2403612      1086.49     1785.285     2235.232     91.49252     183.9386     367.5845      1.913     4.99      1247.85      64.8508     177.6656         9     1.375     0.513 -24.84   0
        21     11.1225    992.1281 307.8949391  +6.2090760     3792.746     7390.909     8074.566     92.51644     184.3041     367.9139      2.054     4.70     1251.465      64.8508      420.775        33     1.528     1.341 -70.03   0
        22    774.1375    992.7403 307.5772559  +6.2341700     1879.939     3646.159     3984.427     92.22505     183.9386     367.9505      2.021     5.54     1250.145      64.8508     215.6047        22     1.370     1.136 -59.18   0
        23    102.0116    985.5125 307.8573235  +6.2148418     2061.704      4663.49      5306.49     91.78623      183.719     367.7675      2.361     6.89     1252.777      64.8508     246.2935        33     1.798     1.433 -59.07   0
        24    624.1261    982.9664 307.6400383  +6.2332447     1372.528     2517.125      2360.94     92.07901     183.9386     367.9139      1.878     5.94     1251.492      64.8508     179.5215        15     1.418     0.939 -28.94   0
        25    497.3278    983.3015 307.6928183  +6.2289007     863.2245     1838.266     2052.034     91.93274      184.158     367.9139      2.057     6.97     1253.097      64.8508     127.6984        10     1.352     1.007 -39.51   0
        26    662.1127    975.5848 307.6244688  +6.2375570     995.0752     2187.182     2878.585     91.78623      183.719     367.7675      2.463     7.47     1250.777      64.8508     125.4524        16     1.772     0.883 -51.73   0
        27    469.3644    977.0247 307.7046701  +6.2305691     1225.298     2523.033     3081.564     91.78623     183.7923     367.6577      2.328     6.52      1253.24      64.8508     144.7589        18     1.512     0.886 -26.26   0
        28    999.5781    974.9600 307.4839833  +6.2489780     3030.213     4958.654     4507.767     91.78623     183.7923     367.6943      1.711     3.88      1246.65      64.8508     405.7928        24     1.437     1.021 -56.94   0
        29    142.3790    973.6905 307.8409143  +6.2210765     3179.133       6638.5     7009.595     92.07901     183.7923     367.7309      2.117     5.28     1252.827      64.8508     316.6062        37     1.559     1.522 -23.23   0
        30    210.4468    972.4672 307.8126174  +6.2238485     1682.743     3867.175     4266.547     92.22505     183.9386     367.9139      2.321     6.28     1253.859      64.8508     192.4349        31     1.573     1.418  50.05   0
        31     10.0210    972.2840 307.8960634  +6.2172477     1131.229     2096.992     2224.815     91.93274     183.6458     367.8041      2.126     5.49     1250.807      64.8508      171.894        12     1.274     0.767  34.60   0
        32    931.3295    970.5126 307.5125474  +6.2485633     1133.008     1866.918      1817.35     92.37086     184.3041     367.9139      1.898     4.56     1247.047      64.8508     149.1224        11     1.064     0.813 -59.03   0
        33    879.7266    970.4706 307.5340343  +6.2468751     1427.165      2251.76     2480.138     92.51644      184.158     367.9139      1.737     6.27     1247.541      64.8508     181.1538        15     1.291     0.925 -84.31   0
        34    959.8004    965.1010 307.5008730  +6.2517427     3270.215     5489.497     5239.698     91.63949     183.5725     367.4747      1.748     4.12     1246.422      64.8508     445.9316        27     1.561     1.014 -48.43   0
        35    743.1638    965.9242 307.5910448  +6.2442377      711.276     1146.925     757.4926     92.07901     184.0849     367.9504      1.465     4.48     1249.518      64.8508      130.421         5     1.154     0.575  15.13   0
        36    180.7291    964.0566 307.8252712  +6.2263384     725.5524      1506.94     1187.894     92.37086     183.9386     367.8773      2.038     5.17     1253.052      64.8508     128.6794         6     1.084     0.697 -20.22   0
        37    817.8710    962.9942 307.5600373  +6.2479222     854.2683     1470.946     2056.229     91.63949     183.5725     367.8041      1.777     2.54     1248.579      64.8508     154.0925         6     0.771     0.632  82.20   0
        38    275.0715    958.6535 307.7861749  +6.2317127     1525.419     3233.169     3701.342     92.07901     183.9386     367.8407      2.290     7.20     1253.666      64.8508     178.4276        26     1.625     1.350 -24.28   0
        39    640.0168    956.2646 307.6343124  +6.2448170     710.7667     1300.251     1048.465     91.63949     183.9386     367.7675      1.770     4.74     1250.597      64.8508     128.5325         5     1.095     0.582 -89.70   0
        40    592.7564    952.6930 307.6541086  +6.2447279      1420.32     2915.634     2924.316     92.22505     184.0118     368.0602      2.111     6.26     1251.165      64.8508     187.5231        22     1.534     1.211 -21.80   0
        41    149.0721    949.9453 307.8389234  +6.2311216     10929.71     24046.73     26515.74     92.07901     183.8655     367.8773      2.267     4.96     1252.245      64.8508     1154.719        62     1.878     1.584 -47.83   0
        42    463.3718    948.4387 307.7081198  +6.2421951     2377.275     5178.484     5342.947     91.78623      183.719     367.7675      2.134     5.98     1252.584      64.8508     239.0211        33     1.591     1.446 -15.69   0
        43    892.4628    950.4192 307.5293982  +6.2555909     788.4343     1225.268     1063.411     91.78623     184.0118     367.7675      1.711     2.76     1246.331      64.8508     189.2374         5     0.792     0.411 -65.38   0
        44    822.5516    947.6320 307.5585997  +6.2544319     2374.964     4177.305     4404.252     91.93274     184.0118     367.8407      1.934     4.75     1247.868      64.8508     290.5135        25     1.567     1.070 -45.81   0
        45    805.4330    945.5198 307.5657976  +6.2547394     810.9452     1585.094     1268.285     92.07901     184.0118     367.9139      2.005     5.01     1248.273      64.8508     105.3947         8     1.435     0.495 -89.18   0
        46    743.2390    946.2777 307.5916678  +6.2523674     1204.756     2191.003     2375.082     92.07901     184.0849     367.9139      1.901     7.03     1249.019      64.8508     143.8541        16     1.404     0.988 -31.72   0
        47    566.6518    943.2979 307.6652907  +6.2477487     2117.805     4616.794     4279.045     92.07901     184.0118     368.1698      2.208     6.08     1251.108      64.8508     249.0779        31     1.697     1.264 -38.55   0
        48    271.2813    933.1605 307.7886060  +6.2421319     934.6223     1707.377     2227.321     92.22505     184.0849     367.8407      2.321     4.77       1252.7      64.8508     130.4941         8     1.021     0.633 -53.35   2
        49    695.4387    931.0692 307.6120767  +6.2570758     3202.236     6718.102     7186.208     92.07901     184.0118     368.0236      2.180     4.95     1249.118      64.8508     406.1469        37     1.725     1.326 -34.69   0
        50    605.2015    929.4223 307.6497031  +6.2547668     1274.558     2611.335     2292.696     91.78623     183.6458     367.5845      2.155     6.20     1250.562      64.8508       160.41        17     1.380     1.171 -36.40   0
        51    225.4292    927.6890 307.8078791  +6.2428698     786.8264     1501.975     1591.315     92.37086      183.719     367.8041      2.081     5.23     1252.532      64.8508      114.545         8     1.294     0.597 -11.29   0
        52     61.4210    921.0446 307.8763835  +6.2401562     4825.521     10697.09     11400.94     91.63949     183.8655     367.6943      2.244     5.23      1250.44      64.8508     474.3392        44     1.711     1.510 -59.69   0
        53    790.5237    920.1234 307.5728507  +6.2647518     10428.13     20187.79     21988.53     92.51644     184.3041     368.0236      2.066     4.55     1247.137      64.8508     1227.825        53     1.809     1.393 -44.46   0
        54    208.1004    914.3543 307.8155402  +6.2478090      2133.75     5083.197     5860.264     92.22505     183.9386     368.1698      2.371     6.73     1251.916      64.8508     268.9647        36     1.817     1.393 -46.29   0
        55    574.1257    911.0102 307.6632561  +6.2613529     98403.48     221655.5     255923.3     91.78623     183.5725     367.7675      2.346     5.04     1249.954      64.8508     10899.57       120     2.114     1.711 -45.29   3
        56    575.8708    903.8633 307.6627680  +6.2643672     46066.26     103401.4     117257.1     92.22505     184.0118      367.987      2.295     5.40     1249.626      64.8508     4832.531        80     1.944     1.580 -28.54   3
        57    391.3321    913.6273 307.7392766  +6.2542028     578.0877     926.1666     787.9836     91.78623     183.8655     367.8041      1.486     4.03     1251.441      64.8508     112.8241         5     0.975     0.477  -5.33   0
        58    784.8784    907.9785 307.5756056  +6.2695890     4944.515     9705.757     10753.53     91.78623      183.719     367.9139      2.083     4.40     1246.236      64.8508     669.4448        44     1.693     1.394 -39.47   0
        59    883.0479    904.2000 307.5348554  +6.2743993     973.2538     1766.363     1145.965      91.3453     183.5725     367.3648      1.882     7.43     1243.951      64.8508      135.239        12     1.511     1.023 -23.83   0
        60    205.5394    904.0906 307.8169502  +6.2519694     1191.847      2554.03     2712.928     92.07901     184.0849      367.987      2.432     7.18     1251.592      64.8508     152.9556        15     1.432     1.010  69.78   2
        61    207.3710    901.6861 307.8162682  +6.2530250     903.3115     1038.033     1505.358     92.37086     183.6458     367.7309      1.287     4.64     1251.561      64.8508     132.7104         8     0.867     0.704  50.73   3
        62    708.7642    900.3731 307.6075512  +6.2702152     4948.858     10270.64     12035.85     91.63949     183.6458     367.6211      2.250     4.75     1247.176      64.8508     661.3503        45     1.774     1.401 -39.69   0
        63    423.6984    900.3310 307.7262451  +6.2607781     2361.337     5993.115     7215.053     92.22505      184.158     367.9505      2.503     7.35     1250.382      64.8508     266.0015        40     1.840     1.617 -81.18   0
        64    564.9092    899.3768 307.6674817  +6.2658596     2600.401      5513.02     6900.037     92.22505     183.7923     367.7309      2.298     5.60     1249.543      64.8508     288.3878        34     1.745     1.276 -45.35   0
        65    741.2417    895.9896 307.5941743  +6.2731040     973.6324     2016.077     2516.824     91.49252     183.7923     367.6211      2.334     6.83     1246.226      64.8508     124.8647        14     1.378     1.043 -22.85   0
        66    948.1845    889.6788 307.5082161  +6.2825593     5811.387     10135.38     10759.34     91.78623      183.719     367.7309      1.849     4.12     1242.381      64.8508      725.321        35     1.599     1.172 -45.39   0
        67    707.9385    888.1493 307.6083023  +6.2752445     1746.178     4182.874     5591.308     92.22505     183.9386     367.9139      2.600     7.85     1246.472      64.8508     203.4651        33     1.921     1.334 -41.21   0
        68    232.6061    889.5956 307.8061664  +6.2588661     774.0242     1440.742     1342.629     91.49252     183.6458     367.7309      1.695     3.43     1251.781      64.8508     112.9017         5     1.142     0.299 -69.47   0
        69    353.5252    885.5489 307.7559565  +6.2645614     994.8537     2524.238     3305.551     92.22505     184.0849     367.9139      2.729     7.56     1251.607      64.8508     130.0952        13     1.500     1.065 -23.35   2
        70    741.5061    875.0066 307.5947631  +6.2817929       5350.8     10985.08     11152.91     91.78623     183.6458     367.6943      2.122     4.88     1244.673      64.8508     636.5107        45     1.793     1.399 -48.87   0
        71    537.2830    875.7709 307.6797723  +6.2747081       2391.1     6112.396     6605.598     92.07901      183.719     367.8407      2.437     6.48     1248.992      64.8508     253.0344        40     1.747     1.572 -67.62   3
        72    534.3378    868.0155 307.6812575  +6.2778186     4652.793     11311.02     12995.26     91.63949     183.9386     367.6943      2.429     6.07     1248.688      64.8508      522.389        48     1.858     1.545 -40.56   2
        73    287.3541    874.6451 307.7838723  +6.2668718     8746.661      20979.8     24283.51     92.22505     184.0118     367.8773      2.428     5.56     1251.485      64.8508      846.098        66     1.993     1.680 -39.21   0
        74    507.8118    877.1996 307.6919957  +6.2731392     587.5827     1179.204     1294.433     91.78623     183.6458     367.6943      2.046     5.30     1249.228      64.8508     72.29675         5     1.213     0.653 -20.52   0
        75    411.6590    875.2932 307.7320945  +6.2707354      675.027     1299.147     1623.607     92.07901     183.9386     368.0602      1.297     3.43     1249.368      64.8508     131.1725         5     1.158     0.293  53.92   0
        76    803.3629    873.7307 307.5690491  +6.2843681     865.4856     1584.279       1699.6     92.07901     184.0118     368.0236      1.916     7.59     1242.933      64.8508     122.4628        11     1.747     0.923 -53.76   0
        77    902.8240    868.2773 307.5278155  +6.2899135     6802.286     12824.42      13796.2     91.78623     183.8655     367.8773      2.043     4.33     1241.703      64.8508     855.8925        48     1.785     1.314 -44.26   0
        78    876.4001    864.5273 307.5389431  +6.2905912     9606.866     18720.87     20247.25     91.34531     183.4258     367.7309      2.040     4.36     1241.654      64.8508     1182.783        53     1.798     1.392 -41.05   0
        79    520.7364    863.7670 307.6870626  +6.2791247     2397.835     5589.822     6775.763     92.07901     184.0849     367.8773      2.448     5.89     1248.536      64.8508     266.8524        34     1.587     1.491 -82.27   0
        80    998.2064    863.7874 307.4882475  +6.2949223     4252.756      7315.95     7518.865     91.78623     183.7923     367.8041      1.792     4.02     1240.514      64.8508      574.392        32     1.497     1.198 -38.44   0
        81    590.7939    864.9885 307.6578513  +6.2809433     639.7349     1274.713     1575.861     91.78623     183.7923     367.8041      3.084     4.71     1247.607      64.8508     98.12927         5     0.911     0.691 -70.48   0
        82    475.0000    859.0767 307.7062629  +6.2795469     1152.825     2713.491     3494.379      91.3453      183.279     367.5845      2.674     7.02     1248.323      64.8508     148.3571        13     1.617     0.854  83.19   2
        83    630.8063    862.1104 307.6412868  +6.2834604     989.4872     1889.339     1873.695     91.63949     183.6458     367.6943      2.074     5.59     1246.637      64.8508     134.5465         9     1.252     0.703 -22.28   0
        84    908.1344    852.0375 307.5261443  +6.2968070     33958.02     64770.86     70102.04     92.07901     183.9386     368.0236      2.028     4.22     1240.495      64.8508     4189.838        77     1.868     1.438 -43.70   0
        85    215.1284    850.3513 307.8147575  +6.2745181     879.2628     1560.567       1564.9     92.22505     184.0849     367.9505      1.675     4.58     1250.308      64.8508     118.4043         7     1.100     0.542 -30.46   1
        86    806.0046    846.0762 307.5688697  +6.2958954     1544.324     3539.534     4092.711     91.78623     183.4258     367.7309      2.373     7.78     1240.792      64.8508     200.2367        28     1.903     1.218 -33.80   0
        87    613.1629    848.7955 307.6490773  +6.2883835     549.9719     1085.043     979.3226     91.19785      183.719     367.6943      2.182     4.39     1245.674      64.8508     74.91943         5     0.763     0.717  33.93   0
        88    754.3851    843.9178 307.5904359  +6.2950798     4485.262     9521.783     11214.07     91.78623      183.719     367.7309      2.293     5.17     1242.308      64.8508     496.4114        45     1.859     1.408 -54.40   0
        89     49.2991    841.5540 307.8840965  +6.2726334     1683.867      3757.36     4438.461     92.22505     183.8655     368.1698      2.426     6.91     1248.499      64.8508     175.1599        29     1.720     1.404 -60.03   0
        90    222.7974    843.1749 307.8118047  +6.2777419     760.7814     1897.346     1859.711     91.78623     183.6458     367.6943      2.292     6.71     1250.295      64.8508     116.4912         8     2.031     0.623   5.70   2
        91    942.4260    838.7104 307.5123081  +6.3034535     5391.981     9836.362      9730.85     92.37086      183.719     367.7309      1.921     4.08     1239.123      64.8508     689.6931        35     1.577     1.274 -50.78   0
        92    916.1815    830.4571 307.5235110  +6.3060004     1541.056     3047.252     2948.923     91.63949     183.9386     367.6577      2.113     5.60     1238.673      64.8508      198.782        20     1.524     0.938 -62.39   0
        93    636.9033    826.6614 307.6399302  +6.2983267     2808.537     6237.555     7302.549     91.93274     184.0849      367.987      2.336     6.22     1243.363      64.8508     340.2886        44     1.887     1.599 -68.99   0
        94    249.5869    827.1603 307.8011865  +6.2852579     2313.241     6068.858     6706.168     91.63949     183.7923     367.6211      2.540     6.63     1249.945      64.8508     253.0261        39     1.880     1.433 -56.10   0
        95    775.7320    826.6285 307.5821227  +6.3029386     898.1242     1476.837     1412.845     91.93274     184.0118     367.8407      1.782     5.45     1240.443      64.8508     119.9343         8     1.067     0.785  -5.27   0
        96     18.4498    824.5175 307.8975124  +6.2786519     1404.572     3208.558     2897.916     92.22505     184.0118     367.9505      2.186     6.67     1248.628      64.8508     169.5447        26     1.647     1.321 -73.30   0
        97    868.7120    823.0847 307.5435230  +6.3074808     877.0168     1389.209     655.0917     91.93274     184.2311      367.987      1.764     4.77     1238.622      64.8508     150.1128         7     1.201     0.537 -10.84   0
        98    561.2563    819.1680 307.6716793  +6.2989182     1051.718     2395.345     2818.093     92.07901     184.0118     367.8773      2.500     7.41     1244.675      64.8508     116.5459        17     1.484     1.036  83.42   0
        99    280.9018    814.2129 307.7885812  +6.2916555     867.1013     1922.731     2532.971     91.93274      183.719     367.6577      2.385     6.64     1249.927      64.8508     119.4229        11     1.348     0.919  -4.93   0
       100    885.1697    805.8495 307.5372431  +6.3151547     5108.988     10217.48     10862.79     91.78623     184.0849     367.8041      2.081     4.67     1237.164      64.8508     585.0189        42     1.745     1.334 -51.18   0
       101    322.9777    801.7209 307.7714795  +6.2982222     4817.996     12491.91     14435.47     91.78623     183.6458     367.8773      2.484     6.19     1248.473      64.8508      440.306        54     1.938     1.699 -61.33   0
       102    421.0388    802.8758 307.7306093  +6.3010034     1170.912       3083.9     2801.535     92.07901     184.0118      367.987      2.376     8.06     1247.012      64.8508     159.8721        21     1.599     1.137  26.98   0
       103    243.2175    800.6095 307.8047276  +6.2960289     3589.933     9528.868     10743.52     91.93274      183.719     367.7675      2.490     6.06     1248.903      64.8508     397.7817        53     1.920     1.681 -40.38   0
       104    570.1779    794.9206 307.6687736  +6.3092445     674.8956     1460.227     1601.549     91.78623     183.6458     367.8773      2.352     4.98     1242.493      64.8508     107.3822         6     0.968     0.724 -33.46   0
       105    900.8381    790.4060 307.5312322  +6.3220614      924.126      1597.88     1757.325     91.19785      183.719     367.6211      1.987     5.88     1235.775      64.8508     144.4288         9     1.466     0.663 -73.73   0
       106    737.5125    783.7764 307.5994651  +6.3194001     918.9472     2063.219     2731.588     92.22505     183.7923     367.7675      2.748     7.50     1238.671      64.8508     110.2659        13     1.708     0.923 -43.14   0
       107    968.9689    779.4330 307.5032255  +6.3288523     792.2037     1572.111     2099.589     91.63949      183.719     367.5845      2.023     4.43     1233.782      64.8508     129.7329         7     1.223     0.457 -38.48   0
       108    655.8515    777.1464 307.6336911  +6.3194376     1381.365     3147.378     3675.562     92.37086     183.9386     367.9505      2.312     6.99      1239.34      64.8508     161.5422        22     1.536     1.218 -10.33   0
       109     52.7858    773.7722 307.8849186  +6.3007875     1607.539     3964.526     4334.937     91.78623     183.7923     367.8041      2.464     8.07      1246.63      64.8508     187.1731        24     1.595     1.209 -50.81   0
       110    196.7316    773.1282 307.8250039  +6.3058495      1094.38     2541.348     2588.794     92.22505      184.158     367.8773      2.257     7.43     1248.088      64.8508     128.8214        14     1.368     1.130  30.97   0
       111     71.0120    772.8891 307.8773593  +6.3017604      1087.27     2484.348     3126.856     91.93274     183.6458     367.8041      2.472     7.46     1246.593      64.8508     132.0441        18     1.342     1.277 -62.27   2
       112    933.3366    771.9000 307.5183143  +6.3307911     632.1239     1186.094      1059.98     91.93274     184.0118     367.9505      1.911     4.38     1233.833      64.8508     96.28772         6     0.949     0.575 -28.44   0
       113    650.4753    766.5731 307.6362823  +6.3236333     3751.419     9195.533     10673.83     92.07901     183.9386     367.8773      2.491     6.29     1238.735      64.8508     394.0013        51     2.001     1.564 -39.41   0
       114    231.6440    768.7961 307.8106119  +6.3088036     670.6527     1350.757     1765.506     91.49252     183.5725     367.5479      1.966     3.96     1248.363      64.8508     91.51501         6     1.117     0.403 -75.60   0
       115    888.3193    762.3661 307.5373780  +6.3332470     1863.826     3708.259     3649.206     92.07901     184.0118     367.9505      2.073     5.95     1234.101      64.8508     218.2075        24     1.601     1.062 -31.34   0
       116    333.5957    759.9217 307.7684566  +6.3158660      7540.39     21166.72     25319.83     91.78623     183.4258     367.6577      2.665     6.71     1246.586      64.8508     757.6377        76     2.137     1.886 -36.88   0
       117     68.9220    760.9596 307.8786297  +6.3066254     844.9517     1700.501     2080.041     92.07901     184.0118     367.9504      2.052     7.15     1246.039      64.8508     110.7688         9     1.495     0.959 -26.68   0
       118     98.3586    750.4339 307.8667258  +6.3119605     843.7087     2000.618      2521.21     91.93274     184.0118     367.7309      2.755     6.86     1245.817      64.8508     123.9659         8     1.339     0.985  -4.64   0
       119    849.5574    743.9691 307.5541319  +6.3395756     1556.088      3048.52     3359.969     91.78623     183.9386     367.7309      2.153     5.28     1233.653      64.8508     192.3755        20     1.363     1.171 -83.40   0
       120     80.6323    744.4539 307.8743073  +6.3138433     1268.992     3334.582     4003.675     92.07901     184.0849     367.8773      2.545     7.66     1245.393      64.8508     149.4658        26     1.630     1.414  32.87   0
       121    877.8806    744.2987 307.5423261  +6.3403759     1370.912      2540.11     2854.525     92.07901     184.4501      367.987      2.009     4.74     1233.161      64.8508     146.6064        15     1.102     1.020 -85.44   0
       122    812.5477    743.5317 307.5695587  +6.3385321     1849.089      3974.17     4549.507     92.07901     183.8655     367.8407      2.352     5.81     1233.973      64.8508     263.7473        28     1.574     1.275 -37.86   0
       123    548.6187    735.0105 307.6797507  +6.3333123     162181.1     434561.8     512246.7     91.78623     183.6458     367.7675      2.589     6.26     1239.313      64.8508     15765.19       177     2.257     1.926 -47.47   0
       124    392.9582    737.6564 307.7444822  +6.3270494     3693.248     10058.89     11800.29     92.07901     183.9386     367.9505      2.583     6.46     1244.072      64.8508     398.5797        53     1.943     1.733 -56.77   0
       125    336.1062    736.2179 307.7682042  +6.3257548     5763.684     16246.03     19150.91     92.07901      183.719     367.7675      2.617     6.82     1245.659      64.8508     550.6252        64     2.071     1.805 -46.60   0
       126    886.8321    731.0048 307.5390406  +6.3461713     3419.765     7712.486     9248.298     91.49252     183.8655     367.6577      2.368     5.31     1232.177      64.8508     400.8138        43     1.840     1.452 -40.79   0
       127    654.3892    732.1337 307.6358009  +6.3380096     1958.641     4453.059     4985.227     91.63949     183.7923     367.7309      2.406     6.40     1236.471      64.8508     228.2665        33     1.761     1.308 -42.77   0
       128   1020.2495    725.1495 307.4836740  +6.3530020     3629.161     6854.618     6775.865     92.22505     183.8655     333.3306      2.000     4.65     1228.808      64.8508     486.4203        36     1.832     1.175 -52.91  16
       129    631.2531    726.7365 307.6456156  +6.3394755     1244.444     2371.836     2991.225     92.22505     183.9386     367.8773      1.966     6.36     1236.337      64.8508     156.3094        12     1.670     0.681 -67.32   3
       130    628.2764    725.7576 307.6468878  +6.3397817     1507.999     3400.146     5095.455     92.07901     184.0118     367.9505      2.909     8.23     1236.302      64.8508     172.7366        23     1.943     0.973 -66.71   2
       131    817.5916    725.1219 307.5680711  +6.3463147     1079.996     2389.711     2239.395     91.78623     183.4258     367.6943      2.165     6.75     1232.932      64.8508     148.8987        13     1.274     1.004 -49.56   0
       132    624.5981    721.9885 307.6485452  +6.3412189     744.5104     1735.982     4220.605     91.78623     183.6458     367.6577      3.908    11.03     1236.092      64.8508     140.7667        17     4.210     0.804 -32.74   2
       133    621.2980    719.8016 307.6499925  +6.3420142     1053.371     2385.955     3641.659     91.63949      183.719     367.5479      2.639     8.57      1236.01      64.8508     132.2582        17     2.168     0.947 -50.10   2
       134    905.9012    718.6017 307.5315119  +6.3519327     2180.352     4747.633     5058.979     91.63949      183.719     367.5479      2.165     5.94     1231.157      64.8508       308.08        34     1.837     1.237 -44.78   0
       135    365.5840    715.2686 307.7566299  +6.3354006     1146.703     2199.152     2979.827     91.63949     183.9386     367.8041      2.416     6.06     1243.433      64.8508     157.2135        11     1.275     0.809  84.02   3
       136    362.1701    714.3057 307.7580838  +6.3356855     1059.664     2246.049      3112.53     92.37086      183.719     367.8041      2.641     7.97     1243.478      64.8508     147.0641        14     1.594     1.115 -82.62   2
       137    500.1608    704.3682 307.7009531  +6.3443799     1437.051     3791.435     4565.646     91.78623     183.7923     367.7309      2.552     9.35     1238.758      64.8508     184.2991        29     1.698     1.437 -18.34   0
       138    547.3062    700.8909 307.6814363  +6.3473830     2965.354     7915.682     10412.39     92.22505      184.596     367.9139      2.885     6.83     1236.903      64.8508     321.3486        53     2.124     1.662 -34.08   0
       139    465.6145    700.0728 307.7154827  +6.3450098     718.6615     1755.422     2060.654     91.63949      183.719     367.8041      2.548     3.98     1239.671      64.8508     106.1926         6     1.412     0.320 -47.88   0
       140    882.4030    699.4438 307.5419351  +6.3590810      831.118     1720.446     1386.372     91.49252     183.4991     367.5113      1.942     3.64     1230.907      64.8508     138.4171         8     1.126     0.771  66.63   0
       141    517.7186    694.7231 307.6939636  +6.3489526     8955.468     25028.31     30118.22     92.51644     184.3041     368.0602      2.681     6.72     1237.544      64.8508     882.1465        75     2.148     1.834 -50.81   0
       142    931.1838    692.6798 307.5218450  +6.3634918     2729.762     5655.953     6136.318     91.78623      183.719     367.7309      2.158     4.96     1229.579      64.8508     351.5426        36     1.693     1.364 -47.14   0
       143    310.6951    683.5416 307.7805483  +6.3467000     1363.522      3831.67     4094.015     92.07901     184.0118     368.0602      2.605     9.90     1242.756      64.8508     157.4879        31     2.034     1.344 -32.02   0
       144     30.3686    685.5277 307.8972139  +6.3365425     788.9084     1707.497     2024.513     92.07901     184.0118     367.9139      1.791     4.46     1244.198      64.8508     124.3744         7     1.189     0.475 -85.46   0
       145     10.5333    681.6161 307.9056046  +6.3374989     1069.799     3016.208      3174.89     91.63949     183.8655     367.8041      2.365     7.64     1244.729      64.8508     143.8591        24     1.665     1.510  55.18  16
       146    775.7914    679.0823 307.5870118  +6.3639768     30483.79     73594.93     84841.91     91.78623     183.5725     367.7309      2.411     5.53     1231.425      64.8508     3408.774        94     2.107     1.714 -46.28   0
       147    232.9707    677.3312 307.8131225  +6.3466831     2420.633     7431.529     10237.13     91.93273     184.0118     367.8407      3.246     8.16     1242.807      64.8508     231.5977        53     2.058     1.769 -73.64   1
       148    901.0320    674.1960 307.5350168  +6.3701414     5256.931     11599.23     13148.59     91.49252     183.8655     367.6577      2.259     5.26     1229.455      64.8508     596.7537        47     1.884     1.418 -47.03   2
       149    897.8408    665.7367 307.5366273  +6.3735354     4160.625     8970.767     10084.38     92.22505     183.9386     368.0236      2.263     5.09     1229.081      64.8508     494.7716        44     1.842     1.435 -54.06   2
       150    698.9576    670.9211 307.6192816  +6.3648085     37250.67     108663.4     159595.5     92.07901     184.0118     367.9139      3.231     8.70     1232.119      64.8508     4565.334       170     3.371     2.148  25.70   0
       151    342.7716    671.3710 307.7675980  +6.3528011     8746.589     26175.84     31457.15     91.63949      183.719     367.6211      2.712     7.00     1241.111      64.8508     842.0977        80     2.200     1.891 -45.61   0
       152    404.6254    669.2559 307.7419107  +6.3557319     9404.967     28071.03     34138.05     91.78623     184.0118     367.6943      2.738     6.87     1239.571      64.8508     881.8926        80     2.165     1.917 -37.23   0
       153    232.6559    655.9301 307.8139704  +6.3555253     777866.5      2585816      3241799     92.22505     183.9386     367.8407      2.928     5.74     1241.104      64.8508     63032.31       524     2.587     2.299 -57.32   4
       154    941.6368    667.6025 307.5183256  +6.3742112     1529.398     3182.348     3642.115     91.19785     183.7923     367.6943      2.160     6.20     1228.377      64.8508     174.4031        23     1.625     1.077 -47.96   0
       155    638.4342    665.1222 307.6446802  +6.3652016     2956.211     8054.956     9683.465     92.07901     184.0118     367.8773      2.687     6.65     1232.555      64.8508     368.2333        54     2.075     1.690 -46.74   0
       156    429.4445    663.2453 307.7317760  +6.3590429     716.4454     1414.595     2102.921     92.22505     184.0118     367.8773      2.220     3.47     1238.528      64.8508     108.3822         5     0.737     0.473  74.35   0
       157    672.6291    655.3755 307.6307645  +6.3703669     1189.811     2588.348     2354.231     91.63949     183.8655     367.7309      2.213     6.15     1231.423      64.8508     181.1066        16     1.635     0.868 -61.25   2
       158    676.0000    654.9536 307.6293748  +6.3706532     670.8141     1220.522     1263.371      91.3453     183.5724     367.3648      1.751     4.54     1231.369      64.8508     116.3602         5     1.102     0.531  81.73   3
       159    407.5216    651.8920 307.7412851  +6.3630110     22257.85     67083.25     81047.72     91.93274     184.3041     367.9505      2.733     6.91      1238.16      64.8508     2189.867        99     2.271     1.943 -47.24   0
       160    525.2792    650.7353 307.6922840  +6.3673999     3228.987     9034.016      10710.5     92.51644     184.0849     367.8773      2.680     7.03     1234.645      64.8508     368.3787        56     2.047     1.775 -42.34   0
       161    442.0964    649.3038 307.7269731  +6.3652303     1987.985     5805.737     8844.367     92.22505     184.7417     367.7309      3.694     9.56     1237.201      64.8508     198.8247        53     2.152     1.948  55.16   0
       162    770.3691    647.2682 307.5903297  +6.3769581     6359.992     15217.33     17138.11     92.07901     184.0118     367.8773      2.406     5.63      1229.14      64.8508     774.2374        55     1.899     1.616 -45.46   0
       163    128.4523    639.7959 307.8579044  +6.3587292      4798.77     14848.02     18807.56     91.49252     183.7923     367.4747      2.838     7.08     1239.828      64.8508     512.2845        72     2.176     1.965 -39.56   3
       164    136.8498    640.0166 307.8544001  +6.3589177     1351.097     3960.199      3866.39     91.63949     184.0849     367.5845      2.578     9.59     1239.876      64.8508     167.7573        31     1.792     1.468 -82.20   3
       165    121.1826    635.8707 307.8610633  +6.3601106     1541.433     4343.696     8008.305     91.63949     183.8655     367.8041      3.749    13.45     1239.521      64.8508     189.0626        49     3.246     1.550  81.98   3
       166    915.8083    635.7517 307.5301417  +6.3865336     4063.836     8608.934     9441.562     91.63949     183.8655     367.5113      2.169     4.93     1227.283      64.8508     459.7289        41     1.775     1.347 -37.15   0
       167    964.0145    635.8806 307.5100606  +6.3880734      940.263     1776.983     2276.302     91.78623      183.719     367.7309      2.080     5.57     1225.842      64.8508     127.1381         9     1.114     0.784  81.12   0
       168    558.8470    632.8373 307.6789020  +6.3759176     1086.147     2753.673     3746.111     92.07901     184.0118     367.8041      2.770     9.04     1232.537      64.8508     133.2273        22     1.780     1.282 -71.20   0
       169    671.6417    632.6175 307.6319346  +6.3797486     819.4365     1842.638     2527.217     91.63949     183.7923     367.6577      2.358     4.74     1230.169      64.8508     99.01672         8     1.394     0.457 -22.45   0
       170    939.4401    627.3411 307.5205793  +6.3907940     1886.214     4282.996     4832.832     92.22505     184.0118      367.987      2.418     6.97     1226.338      64.8508     199.9651        35     1.911     1.319 -48.56   0
       171    910.2025    627.7621 307.5327422  +6.3896534     2013.947     4587.307     5391.947     91.19785      183.719     367.6577      2.342     6.17     1226.914      64.8508     207.7664        29     1.610     1.262 -62.09   0
       172    969.8881    626.9928 307.5079099  +6.3919442     1295.808     2617.618      2607.19     91.63949     183.6458     367.6211      2.042     6.36     1225.014      64.8508     163.1527        16     1.349     1.014 -25.66   0
       173    809.5829    624.9313 307.5747422  +6.3874963      610.429     1398.469     1490.785     91.63949     183.8655     367.8041      2.324     5.81     1227.123      64.8508     116.2249         6     1.313     0.725  87.95   0
       174    235.1792    622.7365 307.8140314  +6.3693402     865.0217     2656.905     4772.047     91.78623     184.0118     367.7675      4.582     8.23     1238.444      64.8508     101.6637        17     1.670     1.134 -72.00   0
       175    927.6107    617.3660 307.5258378  +6.3945295     743.1422     1334.081     641.7361     91.63949      183.719     367.7309      1.692     3.51     1226.302      64.8508     104.6945         5     1.032     0.344  69.21   0
       176    954.4090    614.7858 307.5147625  +6.3964826     1528.033     3403.685     4233.793     91.93274      183.719     367.8041      2.442     5.60     1224.993      64.8508     221.0015        23     1.654     1.130 -33.94   0
       177    900.9042    615.9752 307.5370069  +6.3942220     824.2097     1747.352      1671.07     92.37086      183.719     367.7675      2.591     3.53     1226.308      64.8508     157.7285         6     0.845     0.720 -53.17   0
       178    996.1901    608.4673 307.4975712  +6.4004767     1335.582     2422.666     2270.334     91.63949     183.7923     367.8041      1.924     6.07     1222.457      64.8508     192.5795        18     1.414     1.009 -28.68   0
       179    883.3657    604.5922 307.5446901  +6.3983510     958.8657     1980.742     2256.913     91.63949     183.7923     367.6577      2.274     6.42     1225.585      64.8508     107.1428        14     1.336     0.867 -37.08   0
       180    839.5444    595.4786 307.5632444  +6.4006716     840.1277     2015.187      2146.91     92.37086     184.0118     367.9505      2.496     6.50     1224.928      64.8508     115.2382        11     1.629     0.729 -52.61   2
       181     40.6121    595.2185 307.8959791  +6.3742406     1233.672     3120.267      3863.52     91.93274     183.6458     367.8041      2.710     8.74     1238.453      64.8508     136.7571        23     1.817     1.175 -22.79   0
       182    652.4993    583.2556 307.6415532  +6.3995339     2802.738     7498.419     8342.266     91.93274     184.0118      368.243      2.541     7.09      1227.52      64.8508      286.161        47     1.994     1.593 -48.79   0
       183    115.7758    579.6330 307.8652008  +6.3831935     1424.716      4926.08     6337.998     91.63949     183.7923     367.6943      2.903    11.23     1236.373      64.8508     170.8939        44     2.124     1.653 -49.95   0
       184    989.2460    577.8801 307.5014801  +6.4129008     1716.572     3210.018       2724.5     92.22505     184.0118     367.9139      1.929     5.19     1221.893      64.8508     180.4796        23     1.494     1.081 -68.75   0
       185    769.3361    575.2642 307.5931586  +6.4067103     10376.29     26293.27     31005.93     92.22505     184.0118     367.9505      2.558     5.85     1224.615      64.8508     1073.076        77     2.145     1.769 -45.07   0
       186    626.7233    578.0037 307.6524636  +6.4008520     1028.822     2866.027     3625.698     91.63949     183.4258     367.7309      2.733     8.98     1227.448      64.8508     143.6254        20     1.590     1.414 -13.68   0
       187    899.3342    574.8358 307.5390294  +6.4111886     2276.288      4931.32     5270.044     92.07901     184.0118      367.987      2.203     5.57     1223.025      64.8508     252.7189        36     1.718     1.366 -43.31   0
       188    243.1093    569.3053 307.8125186  +6.3917065     2466.798     7741.726     9827.392     92.22505      184.596     367.9139      2.923     9.09     1233.568      64.8508     280.7803        50     1.985     1.803 -26.09   0
       189    649.9845    568.0412 307.6431080  +6.4057443      2996.13      8382.85     10007.46     91.63949     183.7923     367.6577      2.656     6.70     1226.633      64.8508     299.5339        57     2.099     1.735 -42.69   0
       190    910.0813    560.8276 307.5350194  +6.4173389     805.9415     1787.318     2163.966     92.07901     183.7923     367.8773      2.360     7.43      1221.83      64.8508     100.1034         9     1.380     1.121  22.31   0
       191    721.3262    556.4998 307.6137797  +6.4128827     1729.119     4564.348     5204.782     91.63949      184.158     367.8407      2.573     7.34     1224.847      64.8508     204.1069        40     1.858     1.661  79.17   0
       192    987.8052    552.9000 307.5029106  +6.4231870     5976.599     12393.38      13467.4     91.93274     183.5725     367.5113      2.184     4.79     1221.129      64.8508     761.6084        47     1.827     1.398 -48.66   0
       193    926.2103    553.6796 307.5285393  +6.4208291     1430.768     3225.521     3503.135     91.78623      183.719     367.7675      2.215     5.85     1221.232      64.8508      203.699        24     1.640     1.333 -45.64   0
       194      8.1115    553.4677 307.9109152  +6.3904268     954.3944     2473.534     3067.419     92.37086     184.2311     366.7048      2.505     8.39     1236.053      64.8508     118.2858        17     1.549     1.271 -74.81  16
       195     65.4837    548.4642 307.8871905  +6.3944101     10763.26     32896.32     40189.67     92.37086      184.158     367.9505      2.779     7.07     1235.604      64.8508     1173.116        82     2.144     2.002 -64.13   0
       196    528.3854    549.2819 307.6943785  +6.4094713     851.6713      1971.61     2835.438     91.78623      183.719     367.7309      2.603     5.65     1227.699      64.8508     142.1813         8     1.467     0.614 -75.37   2
       197    710.4563    539.5269 307.6188728  +6.4195440     1404.617     3986.343      4754.75     92.07901     183.9386     367.8773      2.729     8.48       1224.2      64.8508     166.0786        23     1.823     1.103 -59.42   2
       198    733.3839    538.4613 307.6093589  +6.4207442     1975.683     5067.383     5252.666     91.63949     183.9386     367.6943      2.436     6.73     1223.669      64.8508     224.3251        37     1.706     1.545 -27.40   0
       199    564.6022    538.2102 307.6796643  +6.4152531     1198.883     2547.794     3036.013     91.63949     183.6458     367.6943      2.477     6.61     1226.052      64.8508     135.1537        14     1.650     0.743  -1.34   3
       200    565.6097    535.3080 307.6793416  +6.4164871     1293.783     3033.896      3946.93     91.78623     183.5725     367.6211      2.490     8.49     1225.723      64.8508      148.576        23     1.867     1.078  -0.36   3
       201    226.4982    536.9686 307.8205197  +6.4045299     763.3389     2000.743     2844.123     92.22505     183.7923     368.0602      2.772     7.07     1230.952      64.8508     103.0146        10     1.826     0.767  89.63   2
       202    402.5015    537.2835 307.7472081  +6.4102539      603.823      1305.01     2395.268     92.22505     184.4501     368.0236      2.941     5.24     1228.138      64.8508     105.2245         5     1.103     0.703 -15.92   0
       203   1006.1226    534.3129 307.4958989  +6.4314812     3249.229     6761.433     6769.814     92.22505     184.3771     368.0236      2.103     5.14      1219.65      64.8508     367.6467        35     1.673     1.317 -44.40   0
       204    971.4890    533.2677 307.5103591  +6.4307695     5331.593     11299.47     12099.89     92.37086     184.2311     367.8407      2.190     5.11      1219.45      64.8508     621.0045        48     1.803     1.466 -48.54   0
       205    130.2167    527.3372 307.8609406  +6.4053072     9641.526     30319.57     36767.47     91.63949     183.9386     367.7309      2.755     7.33     1233.313      64.8508     1068.861        81     2.161     1.968 -55.17   0
       206    417.2950    527.9484 307.7413590  +6.4146071     1143.449     3411.187     4482.066     92.07901     183.9386     368.2064      2.866    10.40     1227.099      64.8508     129.2362        28     1.868     1.614 -34.41   0
       207    798.8650    529.3019 307.5823910  +6.4267013     604.0161     1514.779      2051.86     92.22505     184.0849     367.9505      2.040     4.18     1221.233      64.8508     94.10596         6     1.331     0.375  12.00   0
       208    966.4147    516.4042 307.5130334  +6.4375780     4321.175     9979.429      11917.9     91.78623     183.5725     367.7309      2.467     5.39     1217.619      64.8508     506.1349        55     1.941     1.651 -51.42   0
       209   1021.4583    511.3958 307.4902730  +6.4414682     61949.68     124129.1     132934.4     91.49252     177.3074     315.4497      2.080     4.74      1216.72      64.8508     7670.515        81     1.886     1.483 -64.26  24
       210    562.2496    511.7322 307.6815283  +6.4261282     16239.61     32215.79     36440.88     92.07901     183.9386     367.9139      2.108     8.75     1223.491      64.8508     1671.617        43     2.227     0.961 -66.90   3
       211    558.6012    511.1939 307.6830658  +6.4262299     17428.21     37168.05     44310.01     91.49252     183.6458     367.6943      2.334     7.55     1223.445      64.8508     1871.791        58     2.331     1.224 -73.14   3
       212    169.1552    509.8175 307.8453114  +6.4138517     890.3133     2491.307     3588.813     91.78623     183.8655     367.6211      2.913     6.80     1231.346      64.8508     120.4529        13     1.837     0.707 -64.83   2
       213     62.0030    503.1035 307.8901623  +6.4130576     697.5016     1517.618     1796.559     91.93274     183.6458     367.5479      2.252     4.90     1233.761      64.8508     89.93542         6     1.355     0.502  78.11   0
       214    457.3100    495.7263 307.7257703  +6.4292657     23460.49     76337.05     95431.27     92.22505     184.3041     367.9505      2.867     7.59     1224.589      64.8508     2261.969       108     2.342     2.041 -46.52   0
       215      2.2406    495.5815 307.9153038  +6.4141756     709.2085     1367.098     1870.973     90.60565     161.1644     293.4354      2.879     6.12     1235.409      64.8508     113.4542         9     1.691     0.623  69.40  26
       216    132.9536    488.7117 307.8610961  +6.4213761     679.0712     1486.018     2520.903     92.22505     183.8655     367.9505      3.752     4.72     1231.226      64.8508     99.89111         6     0.803     0.786  22.47   2
       217    304.6137    486.1719 307.7896873  +6.4281422     834.5441     2245.947     4006.431     91.78623      183.719     367.8041      3.469     7.14     1225.461      64.8508     129.7474        12     1.681     0.851 -71.82   2
       218    728.5871    478.6846 307.6133494  +6.4453136     2348.226     5612.456     5819.421     91.78623     183.8655     367.7309      2.372     7.19     1218.559      64.8508     238.9453        37     1.963     1.427 -80.32   2
       219    731.6702    478.6751 307.6120655  +6.4454196     1498.711     1918.871     1548.938     92.51644      184.158     367.9139      1.469     4.71      1218.49      64.8508     191.8013        10     1.083     0.609 -66.56   3
       220    782.8846    474.2171 307.5908821  +6.4489597     6471.611     17338.52      20305.1     91.78623      183.719     367.8407      2.550     6.32     1216.943      64.8508     663.6211        67     2.082     1.774 -39.23   0
       221    605.4933    472.3868 307.6648303  +6.4438389     981.1378      3170.55     4633.766     91.93274      183.719     367.6943      3.247     8.50      1219.34      64.8508     152.1875        21     2.102     0.961 -63.54   2
       222   1022.1655    472.8384 307.4912598  +6.4574421     1307.578     2356.924     2235.963     91.93274     169.5473     303.9338      1.842     4.28     1212.201      64.8508     211.1595        16     1.328     0.895 -63.18  24
       223    524.7006    473.2578 307.6984526  +6.4407979     682.5956     1538.329      2258.86     91.93274     184.0118     368.1333      2.137     4.10     1220.638      64.8508     123.1608         5     1.198     0.400 -51.71   0
       224    858.0383    457.3298 307.5601407  +6.4584328     1336.293     2984.798     3498.172     92.07901     184.0118      367.987      2.514     7.04     1214.456      64.8508     173.0315        19     1.571     1.001 -84.38   2
       225    861.0000    456.0750 307.5589488  +6.4590499     736.1104     1172.525     1844.277      91.3453      183.279     367.6577      1.300     3.79     1214.345      64.8508      137.756         5     1.137     0.363 -66.95   3
       226    817.7807    455.3770 307.5769744  +6.4579086     1221.436     3080.534     3962.238     91.93274     183.9386     367.8407      2.610     9.32     1215.014      64.8508     143.7538        25     1.771     1.367 -43.66   0
       227    245.7998    450.3975 307.8153811  +6.4409836     2827.338     9358.196     11315.07     91.49252     183.4991     367.5479      2.827     8.03     1224.846      64.8508     345.4849        62     2.165     1.925 -51.87   0
       228    798.0875    446.1845 307.5854835  +6.4610595     73622.03       201486     239889.4     91.93274      183.719     367.7675      2.630     6.46     1214.816      64.8508     7832.188       167     2.515     1.929 -35.33   0
       229    180.0216    444.9460 307.8429603  +6.4410483      21325.2     71019.99        90342     91.63949     184.0118     367.6943      2.918     7.72     1227.364      64.8508     2261.479       113     2.390     2.092 -57.48   0
       230    104.3332    441.3146 307.8746059  +6.4400283     2401.536     7776.953     10090.27     92.37086     184.3041     367.9505      2.897     8.69     1229.843      64.8508     295.4093        53     2.174     1.768 -59.48   0
       231    969.3777    437.6581 307.5144177  +6.4702518     941.4995     1840.565     1898.829     91.78623     184.0118     367.6943      1.887     6.33     1210.557      64.8508     129.1377        11     1.437     0.784  51.60   0
       232    834.8049    433.5658 307.5706095  +6.4674948      2227.73     5616.726     6389.411      91.3453     183.7923     367.6577      2.477     6.28     1213.443      64.8508     238.1095        39     1.805     1.466 -35.77   0
       233    353.3769    431.9868 307.7711909  +6.4521785     5920.893     20398.55     26661.88     91.93274     183.7923     367.8041      2.967     7.95     1219.993      64.8508     668.3109        80     2.274     2.024 -54.28   0
       234    158.1235    430.9276 307.8525508  +6.4461176     867.1515     2011.389      3819.27     92.51644     184.3041     367.9139      3.786     6.20     1227.394      64.8508     155.1881         9     1.209     1.189 -33.56   0
       235    788.7087    426.8653 307.5900337  +6.4687410     2778.404     7466.649     8881.498     92.07901     184.2311     367.9139      2.622     6.45     1213.877      64.8508     298.3394        48     1.939     1.637 -58.05   0
       236    518.8431    428.9916 307.7023711  +6.4589151     1858.036     3255.388     4026.599     91.63949     183.7923     367.6211      2.107    11.27     1216.343      64.8508     223.0308        25     2.487     1.423  69.08   3
       237    522.0090    426.5128 307.7011352  +6.4600456     2092.241     2762.195     3526.809     91.78623     183.6458     367.6943      1.551     5.38     1216.113      64.8508     257.3363        13     1.199     0.795 -43.37   3
       238    519.0101    425.6561 307.7024130  +6.4603004     1871.326     3401.655     4202.567     91.49252     183.9386     367.5479      2.020     6.93     1216.032      64.8508     238.6039        16     1.851     0.760 -33.98   3
       239    166.8942    420.0864 307.8492613  +6.4508944     2378.415     8110.968     10035.04     92.22505      184.523      367.987      2.881     8.49     1226.358      64.8508     297.3557        53     2.064     1.814 -63.06   0
       240    563.6069    419.5639 307.6840406  +6.4643007     1062.775     2977.596     3946.961     91.34531      183.719     367.6577      3.206     8.54     1215.346      64.8508     145.7662        18     1.802     1.130 -63.77   2
       241    261.9285    416.5463 307.8097974  +6.4555234     29858.43     104935.8     133687.3     92.07901     183.9386     367.8041      2.966     7.99     1221.674      64.8508     3150.592       119     2.382     2.153 -50.47   0
       242    804.2719    418.8409 307.5838183  +6.4725757     738.9106      1658.33     1894.599     92.07901     184.0118      367.987      2.567     5.27     1212.993      64.8508     109.8878         7     1.030     0.761 -20.12   0
       243     38.7579    418.7536 307.9026747  +6.4471740     1986.792     6352.021     8310.445     92.22505     184.0118     367.8041      2.935     9.15     1229.892      64.8508     225.6184        51     2.124     1.783 -67.81   0
       244    784.8864    408.5004 307.5922378  +6.4762116     7240.376     20161.75     23959.46     92.22505      184.596      367.987      2.635     6.69     1212.762      64.8508     773.7191        73     2.149     1.812 -49.87   0
       245    488.6211    407.2086 307.7156873  +6.4669226     15594.25     51026.91     67485.74     91.78623     183.7923     367.6577      3.017     7.60     1214.194      64.8508     1433.224       113     2.411     2.183 -35.76   0
       246    960.8624    409.7010 307.5188946  +6.4815358     1043.463     2098.404     2044.312     91.93274     184.0849      367.987      2.119     6.10     1208.589      64.8508     129.6484        12     1.293     0.809  76.77   0
       247    648.0788    402.9068 307.6494109  +6.4739930     1255.882     3758.929     4948.091     91.93274     184.2311      367.987      3.649     9.25     1213.593      64.8508     147.5399        25     1.937     1.233  12.44   2
       248    202.6556    404.6245 307.8348848  +6.4584815     842.7012     1743.582     2833.573     91.78623     184.0118     367.6943      2.753     5.60     1223.837      64.8508     145.7051         8     1.190     0.742 -70.08   0
       249    710.6963    402.0000 307.6233582  +6.4764435     656.4932     1491.923     1759.752     91.63949     183.5725      367.438      1.574     3.86     1213.395      64.8508      125.696         5     1.483     0.289   0.00   0
       250    319.6417    396.2556 307.7864383  +6.4658372     1519.481     3943.518      6851.54     92.07901     183.9386     367.9139      3.369    11.41      1217.66      64.8508     168.1973        36     2.333     1.554  10.57   2
       251    133.1310    395.0263 307.8641643  +6.4601356     9194.455      30549.4     38193.05     91.78623     183.8655     367.8041      2.862     7.48     1226.632      64.8508     1005.943        87     2.224     2.072 -69.47   0
       252    499.5400    394.1117 307.7115769  +6.4727030      902.709     2268.243     3646.986     92.07901      184.158     368.0236      3.159     5.28     1212.949      64.8508     138.3809        10     1.312     0.600  66.28   2
       253    387.9961    397.6848 307.7579191  +6.4675190     685.6033      1431.81       1845.7     91.63949     183.5725     367.5845      2.503     6.36     1216.743      64.8508     93.02563         7     1.458     0.778 -56.65   0
       254    100.1666    393.7258 307.8779379  +6.4595748     951.1713     2016.593     2386.882     92.07901     184.0118     367.9139      2.195     4.86      1227.89      64.8508      133.483         9     1.698     0.394 -68.07   2
       255     97.0465    391.5628 307.8793100  +6.4603655     872.9478     1855.923     2021.683     91.93274     183.9386     367.8041      2.073     5.81     1227.897      64.8508     123.0026        11     1.280     0.744 -25.95   2
       256    958.3823    389.0238 307.5206154  +6.4900076     2852.845     6482.713     7225.261     91.78623     183.9386     367.8041      2.331     5.39     1207.088      64.8508     331.6067        41     1.695     1.534 -46.19   0
       257    429.9953    375.8975 307.7411538  +6.4779276     14513.85      50516.7     64681.25     91.93274     183.6458     367.5479      2.953     7.77     1213.745      64.8508     1464.534       103     2.347     2.107 -48.32   0
       258      1.1171    378.5011 307.9197037  +6.4625686     1492.732     2083.088     2514.245     76.60085     142.6482     272.5586      1.240     3.84     1231.134      64.8508     375.7227         8     1.314     0.322  89.97  24
       259    639.0434    376.9566 307.6540405  +6.4844284      3935.21     7864.616     9323.456     91.93274     184.0118     367.7675      2.263     8.96     1211.207      64.8508     463.2218        32     2.436     0.921 -55.44   3
       260    636.2769    374.7068 307.6552680  +6.4852673     4130.732     8970.417     10398.31     91.93274     184.3041     367.9139      2.295     7.87     1211.027      64.8508     486.0959        37     2.179     1.114 -60.31   3
       261    195.2267    373.7433 307.8390141  +6.4710084     6837.532      23386.5     30800.56     91.78623     184.0849     367.7309      3.005     7.98     1222.191      64.8508     710.1418        89     2.309     2.137 -68.96   0
       262    163.0361    374.1842 307.8524074  +6.4697536     660.8768     1566.943     1912.461     91.78623     183.7923     367.6943      2.786     5.24     1224.513      64.8508     103.1511         5     1.200     0.647 -87.60   2
       263    970.5897    374.5030 307.5160132  +6.4964180     754.6154     1274.692     1892.481     91.93274     183.5725     367.6943      2.300     4.54     1205.187      64.8508     99.59656         7     1.197     0.489 -87.26   0
       264    559.7903    372.1450 307.6872139  +6.4837900     1037.501     3392.527     3879.083     91.49252     183.9386     367.5845      2.658    10.14      1210.47      64.8508     131.5146        30     1.854     1.720  29.63   0
       265    933.5291    369.1357 307.5316300  +6.4974134     2405.453     5977.143     6713.693     92.22505     184.0118     367.9139      2.472     6.41      1207.28      64.8508     269.3789        41     1.819     1.591 -51.80   0
       266    812.6882    372.2466 307.5818646  +6.4921293     500.9173     823.6783      1374.39     92.22505     183.8655      367.987      1.301     3.45     1209.629      64.8508     88.76135         5     1.255     0.275  34.72   0
       267    608.1362    368.4677 307.6671983  +6.4869151     2483.653     5286.954     6547.282     92.22505     184.0118      367.987      2.244     8.52       1210.4      64.8508     262.6156        27     2.027     1.000 -58.51   3
       268    605.3750    367.4305 307.6683831  +6.4872526     2339.287      5646.46     7000.349     91.63949     183.8655     367.7309      2.628     7.00     1210.282      64.8508     242.1361        27     2.024     1.117 -62.96   3
       269    956.1208    361.6422 307.5224683  +6.5012601     1935.689     4420.721      5478.93     92.07901     184.0118     367.9139      2.397     6.53     1205.204      64.8508     216.1252        38     1.858     1.477 -37.13   0
       270    520.6709    359.7239 307.7039240  +6.4876298      2597.35     5947.216     7863.556     92.51644     184.3041     367.9139      2.575     8.48     1209.461      64.8508     305.7821        36     2.221     1.243 -60.73   3
       271    517.0000    358.9813 307.7054779  +6.4878151     2132.284     4505.971     5338.801     91.63949     183.4258     367.5113      2.322     7.59     1209.421      64.8508     252.0247        25     2.189     0.826 -78.81   3
       272    365.5863    359.8839 307.7685183  +6.4824109     1078.018     3012.469     3611.845     91.78623     183.7923     367.7309      2.594     9.50     1212.799      64.8508      142.976        24     1.793     1.403  45.70   0
       273    875.4555    354.8259 307.5562980  +6.5014128     1646.237     4113.158     5514.172     91.78623     184.0118     367.7309      2.947     8.31     1208.154      64.8508     166.8829        35     1.965     1.424 -48.79   0
       274    881.3734    348.2325 307.5540523  +6.5043361     957.5526     2504.752     2730.395     91.63949      183.719     367.6943      2.579     5.89     1207.416      64.8508      130.994        12     1.353     0.947 -54.00   2
       275    706.3951    344.8643 307.6270552  +6.4999367     1224.972     3582.703     4386.911     91.49252     183.6458     367.6577      2.761     9.30     1208.221      64.8508     148.4952        25     1.624     1.485  88.61   2
       276    378.0711    345.4343 307.7638014  +6.4888034     1421.266     3803.596     5594.171     92.07901     183.9386     367.9139      3.198    10.70     1211.623      64.8508     172.0457        28     1.997     1.596 -17.07   2
       277     69.6979    345.7162 307.8922397  +6.4784182     705.9347     1625.583     1949.093     92.22505     184.4501      367.987      2.388     4.81     1227.404      64.8508     93.48608         7     1.129     0.581 -24.63   0
       278    605.4172    340.0869 307.6692783  +6.4985653     3828.418     12233.62        15499     91.93274      183.719     367.7675      2.867     7.58     1207.688      64.8508     458.2692        69     2.202     1.927 -42.01   0
       279    768.1678    336.3386 307.6016068  +6.5055098     7253.239     20561.22     25263.17     91.93274     184.0849     367.8407      2.724     6.74       1207.2      64.8508     717.5859        77     2.291     1.817 -44.90   0
       280    287.8534    337.4235 307.8016491  +6.4891163     1099.383     3435.752     4530.197     91.63949     184.0118     367.6943      2.833    10.86      1214.85      64.8508     124.3407        29     2.097     1.568 -62.63   0
       281    952.4803    331.7533 307.5249791  +6.5135043     993.5584     2175.255     1700.771     92.22505     184.0118     367.9139      2.164     6.29     1203.333      64.8508     116.4324        13     1.422     0.783  72.06   2
       282    796.5674    332.7897 307.5898945  +6.5079182     747.7657     1446.295     1179.623     91.63949      183.719     367.7309      1.789     4.74     1206.744      64.8508     106.3053         7     1.049     0.607 -13.92   0
       283    105.6864    329.1100 307.8778069  +6.4864875     1727.989     5678.398     7245.647     91.93274      184.523     368.0602      2.882     9.72     1225.102      64.8508     197.9313        49     2.153     1.710 -15.41   0
       284   1007.1472    326.1313 307.5023927  +6.5176364     2621.847     6239.909     6996.884     92.07901     183.9386     367.8041      2.471     5.59     1199.208      64.8508     325.9949        44     1.830     1.556 -48.73   0
       285    742.8593    327.0998 307.6124576  +6.5084935     879.5665     2476.561     2756.783     91.93274     184.0118     368.0967      2.560     5.99     1206.574      64.8508     114.6952        12     1.413     0.715 -52.75   2
       286    265.7609    325.3936 307.8112546  +6.4933573     674.7423     1350.058     2204.485     91.19785     183.6458     367.5845      2.671     5.23     1215.197      64.8508     111.0438         8     1.488     0.520 -57.86   0
       287    343.2793    324.1392 307.7790065  +6.4964555     1089.902     2596.991     4125.688     92.37086     184.0118     367.9139      2.426     6.91     1211.569      64.8508     179.6869        16     2.097     0.639 -65.47   2
       288    340.1386    323.4616 307.7803375  +6.4966313     1018.666     2545.555     3556.411     92.22505     184.0118     367.9505      2.637     7.49     1211.669      64.8508     122.2321        15     1.831     0.857 -56.75   3
       289    822.6033    310.4991 307.5797912  +6.5180012     743.2159     1919.957     2085.114     91.93274      183.719     367.5479      2.241     4.91      1204.51      64.8508     104.1696         7     1.398     0.489 -88.94   0
       290    706.4814    308.2652 307.6282398  +6.5150797      6280.18     18278.96     22351.63     92.51644     184.2311     367.9139      2.736     7.02     1204.756      64.8508     585.5869        71     2.136     1.891 -56.25   0
       291    808.4449    309.1404 307.5857346  +6.5180946     913.5377     2141.253       2687.4     92.07901     183.9386     368.0236      2.465     7.02     1204.664      64.8508     116.7611        12     1.555     0.889 -69.33   0
       292    626.4031    304.4689 307.6617252  +6.5139955     1074.488     3189.773     4593.974     91.49252     183.5725     367.6577      3.034     6.76     1204.232      64.8508      168.532        17     1.805     1.016 -85.76   2
       293    599.8887    299.4936 307.6729366  +6.5151742     6507.436     20114.89      30331.4     92.22505     184.5231      367.987      3.261     7.94     1203.782      64.8508     645.1917       106     2.767     2.194  30.43   0
       294    931.7379    298.0080 307.5347429  +6.5267785     1955.687     4652.218     5022.394     91.49252     183.7923     367.6943      2.395     6.67     1201.724      64.8508     229.9113        35     1.825     1.390 -51.99   0
       295    371.0391    294.3992 307.7684384  +6.5096811     9606.613      34470.2      44946.7     91.19785      183.719     367.5845      2.987     8.01     1209.389      64.8508     1019.236        98     2.374     2.128 -59.27   0
       296    118.7588    293.7834 307.8735471  +6.5015363     804.9304     2166.094     2840.058     91.63949     183.7923     367.6577      2.341     6.83     1223.613      64.8508     132.3352        10     2.317     0.564  47.19   2
       297    886.2714    292.6185 307.5538633  +6.5275045     821.2104     1720.706     2973.755     91.78623     183.8655     367.8407      3.128     3.47     1201.875      64.8508     141.0699         7     0.861     0.661  73.29   0
       298    900.3414    288.5208 307.5481382  +6.5296650     2593.668     6327.762     7175.961     92.37086     184.0118     367.8773      2.483     7.18     1201.335      64.8508     264.5084        41     1.922     1.553 -42.19   0
       299    228.6564    285.0414 307.8280625  +6.5088142     4755.423     16728.88     21714.71     92.07901     184.0118     367.9505      2.988     8.27     1215.476      64.8508     519.2505        77     2.318     2.004 -56.28   0
       300    129.1179    273.7974 307.8699026  +6.5101490     1933.371      6052.38     7404.644     91.49252     183.5725     367.5479      2.854     7.89     1222.699      64.8508     254.7068        52     2.129     1.793 -52.79   0
       301    342.3974    275.8092 307.7809918  +6.5164186     558.7752     1365.468     1863.622     91.49252     183.6458     367.6943      2.579     3.63      1209.82      64.8508     100.7087         5     0.989     0.384   5.25   0
       302    151.4690    269.9480 307.8607213  +6.5124863     995.3303     2913.269     3515.774     92.07901     183.8655     367.8407      2.973     9.04     1220.959      64.8508     159.8029        22     1.754     1.683 -44.74   2
       303    376.4197    263.3958 307.7672346  +6.5226850     695.8188     1585.624     1893.422     91.78623     183.6458     367.6943      2.734     4.67     1207.795      64.8508      94.0896         5     0.977     0.778   2.74   0
       304     24.8819    259.1966 307.9138120  +6.5127122     1197.188     3564.822     4442.651     91.49252     183.5725     367.5845      2.827    10.69     1230.044      64.8508     154.2598        31     1.863     1.710 -10.15   0
       305    428.3213    257.8283 307.7458000  +6.5267134      2404.56     8682.405     11050.46     92.07901     183.9386     367.9139      2.929     8.65     1204.826      64.8508     283.9346        60     2.132     1.981 -64.63   0
       306    768.5159    254.8034 307.6041795  +6.5392506      5809.71     16249.88     20462.58     91.63949     183.5725     367.5845      2.764     6.64     1200.719      64.8508     565.2437        72     2.164     1.878 -41.29   0
       307    759.2576    256.7005 307.6079733  +6.5381592      892.288     2169.948     2651.468     91.93274     184.0118     368.1698      2.445     6.95     1200.831      64.8508     111.8889        12     1.233     1.099 -62.24   0
       308   1012.5325    249.8512 307.5026854  +6.5493700     2120.586     4632.213     4687.929     92.07901     183.8655     367.8773      2.275     5.73     1196.482      64.8508     261.9503        31     1.703     1.251 -47.16   0
       309    447.5181    242.5241 307.7383148  +6.5336821     876.7805     2658.314     3216.313     92.51644     184.3041     368.0236      2.721     9.56     1202.237      64.8508     103.9373        21     2.053     1.243  69.64   2
       310    476.9752    241.9141 307.7260638  +6.5349131     1149.788     3574.201     4666.372     92.37086      183.719     367.7309      2.914    10.36     1199.739      64.8508     157.8407        31     2.243     1.333  -9.68   2
       311    833.9932    237.6548 307.5774728  +6.5485123     15782.19      42496.8     50528.46     91.63949      183.719     367.5845      2.597     6.24      1199.34      64.8508     1595.627        90     2.207     1.856 -58.98   0
       312    605.7232    229.9881 307.6728267  +6.5441203     1043.537     3156.401     4506.833     91.78623     183.5725     367.7309      3.066    10.37     1197.689      64.8508     160.2449        27     1.949     1.539  40.28   0
       313    690.4838    223.7573 307.6377232  +6.5495084     32397.28     98206.99     120382.1     92.22505     183.9386     367.8407      2.765     6.96     1198.068      64.8508     3050.529       116     2.294     2.015 -46.56   0
       314     71.0410    224.1781 307.8957601  +6.5287377      701.485     1909.857     3043.414     91.78623     183.7923     367.6943      2.887     6.67     1226.925      64.8508     105.1112         8     1.889     0.662 -67.37   0
       315    849.7873    225.1887 307.5713080  +6.5541919     672.9174     1421.829     1408.011     91.93274      183.719     367.8407      2.000     4.33     1198.457      64.8508     80.94775         5     0.843     0.635 -45.14   0
       316    553.0241    220.3619 307.6951026  +6.5463537     1087.394     3452.043     4248.481     91.78623     183.7923     367.6943      2.880    10.70     1197.017      64.8508     151.7931        30     1.909     1.670 -79.57   0
       317     90.4563    219.8976 307.8878161  +6.5311559     2296.109     7401.938     8994.524     92.07901     184.0118     368.1698      2.817     8.17     1225.498      64.8508     271.7726        54     2.122     1.765 -33.64   0
       318    536.4338    216.9110 307.7021294  +6.5472306     2651.218     8674.159     10619.96     92.37086     183.9386     367.9139      2.843     8.12     1196.953      64.8508     270.6853        58     2.130     1.856 -55.47   0
       319    266.8812    215.0480 307.8144848  +6.5390404     1036.523      2388.05     3299.173     92.22505     184.0118     367.9504      2.914     5.10     1213.377      64.8508     154.5586        10     1.226     0.860 -76.95   2
       320    400.1271    212.9901 307.7590453  +6.5443243      9240.36     25034.78      33933.5     91.63949     183.5725     367.7675      2.818     8.34     1203.864      64.8508      944.384        84     2.553     2.108 -48.53   2
       321    397.6505    210.6638 307.7601548  +6.5452043     5910.813      7071.38     8277.983     92.22505     183.9386     367.9505      1.335     4.80     1203.859      64.8508     790.7092        11     1.234     0.674 -50.17   3
       322    488.3542    202.5022 307.7226410  +6.5515945     3045.944     10120.04     12425.12     92.22505     183.8655     368.1333      2.840     7.96     1197.086      64.8508      337.068        61     2.147     1.901 -37.46   0
       323    758.4996    201.5015 307.6101292  +6.5609686     1310.296     3740.967      5141.19     92.22505     184.4501     367.7309      2.977     8.57     1197.375      64.8508     148.2854        24     2.202     0.931 -29.79   2
       324    378.1429    186.7791 307.7690810  +6.5544360     2577.086     8621.323     11096.97     91.78623     183.9386     367.6943      2.946     8.01     1204.121      64.8508     285.3601        61     2.229     1.894 -51.26   0
       325    235.0143    188.3702 307.8286541  +6.5490149     728.4241     1916.734     2349.498     91.78623      183.719     367.8407      2.398     7.22      1217.11      64.8508     88.60181        11     2.053     0.710 -45.26   0
       326    745.9539    182.3122 307.6159959  +6.5684913     23240.92      66921.2      81258.5     92.22505     183.8655     367.9139      2.706     6.57     1196.435      64.8508     2173.839       103     2.243     1.961 -48.06   0
       327    417.8889    182.3595 307.7526706  +6.5575856      928.304     2765.923     2705.621     92.22505     183.9386     367.9505      2.654     9.67      1199.73      64.8508     141.0266        19     1.795     1.454  42.51   0
       328    980.1218    178.8772 307.5185490  +6.5776599      965.252      1971.55     1795.295     92.51644     184.3041     368.0236      2.000     5.44     1190.991      64.8508     142.8984         9     1.335     0.625  78.22   0
       329    921.6808    178.5535 307.5429083  +6.5758620     1196.736     2946.777     3327.078     92.22505     184.0118     367.9139      2.317     8.26     1193.948      64.8508     151.9308        21     1.514     1.259 -65.38   0
       330    181.2220    169.3116 307.8517024  +6.5551068     924.0381     2798.306     3730.984     92.22505     183.7923     367.8041      3.043    11.60     1219.732      64.8508     109.3124        25     2.353     1.594 -66.85   0
       331    744.5205    167.0070 307.6171034  +6.5747752     2585.659     7614.416     9174.907     91.78623     183.4991     367.6577      2.765     7.39     1195.748      64.8508     258.6239        53     2.066     1.753 -42.72   0
       332    760.8169    164.5341 307.6103963  +6.5763379     1078.602     2875.318     3317.351     91.63949     183.9386     367.7675      2.531     8.91     1195.555      64.8508     138.6924        24     1.788     1.240 -46.35   0
       333    351.2668    160.7793 307.7811479  +6.5642973     727.4439     1811.871     2477.377     91.78623     184.0118     367.8407      2.565     3.54     1206.292      64.8508     133.5105         5     0.885     0.414 -43.89   0
       334    998.8488    155.5427 307.5115227  +6.5879318     3622.346     7998.812     9399.937     92.22505     184.0118     368.0602      2.343     5.10     1187.442      64.8508     392.2266        43     1.752     1.481 -49.60   0
       335    239.8323    151.6650 307.8278772  +6.5643588     1967.998     6858.722     8290.304     92.07901     184.0118     367.8773      2.882    10.04     1217.953      64.8508     237.7833        52     2.119     1.813 -63.53   0
       336    374.5284    143.3850 307.7720393  +6.5722664     745.8684     1403.567     1596.659     91.63949     183.8655     367.7675      2.042     4.25     1203.156      64.8508     107.1218         6     1.092     0.472 -34.41   0
       337    144.6980    139.7708 307.8679089  +6.5661093     833.0126     1919.017     2913.399     92.37086      183.719     367.9139      2.789     5.05     1220.484      64.8508     108.5924         8     1.051     0.686 -54.76   2
       338    554.0001    135.2829 307.6975386  +6.5815808     829.4763     1990.201     2852.742      91.3453     183.4258     367.5113      2.979     7.81     1193.746      64.8508      119.384        14     2.093     0.815 -66.35   2
       339    551.0000    134.9515 307.6987996  +6.5816183     648.6133     1297.717     2395.706      91.3453     183.5724     367.3648      2.412     4.73     1193.729      64.8508       115.16         5     1.148     0.554  80.27   3
       340    895.9674    132.1132 307.5551676  +6.5942231     997.9698     2308.855     2486.123     92.22505     183.7923     367.9139      2.598     4.50     1191.178      64.8508     131.6185        11     1.087     0.903  48.05   0
       341    716.8439    130.9867 307.6298358  +6.5887589     2181.705     6502.658     7071.929     91.49252     183.7923     367.6211      2.642     8.14     1193.628      64.8508     225.6646        44     1.917     1.627 -40.68   0
       342    659.7682    132.4426 307.6535670  +6.5862647     693.4729     1410.453     2287.545     91.63949     183.9386     367.6943      2.681     4.28     1193.759      64.8508     105.2062         5     1.035     0.504  -3.94   3
       343    656.6334    130.3930 307.6549416  +6.5870086     828.6315     2113.301     2211.501     91.63949     183.8655     367.6943      2.632     7.60      1193.64      64.8508     128.6592         9     1.834     0.880 -86.92   2
       344    749.3106    117.0051 307.6167751  +6.5956184     783.3984     1839.412     2468.021     91.63949     183.6458     367.5845      2.512     8.77     1192.522      64.8508     116.8044         9     1.995     1.076  46.40   2
       345    751.2722    115.0947 307.6160215  +6.5964737     599.4156     1422.867     2025.041     92.07901     184.0849     367.9505      1.927     4.86     1192.355      64.8508     104.7971         6     2.134     0.314 -61.81   2
       346    214.9368    116.8305 307.8394166  +6.5779392     766.4518     1995.721     2440.394     91.93274     184.0849     367.8407      2.551     5.93     1218.488      64.8508     98.92493         8     1.420     0.698  73.95   0
       347    218.3051    117.3343 307.8379965  +6.5778430     725.8083     1679.913      1952.52     92.22505      184.158     367.9505      2.344     3.68     1218.413      64.8508     104.3462         5     0.890     0.438 -73.54   2
       348    858.5845    115.0439 307.5713116  +6.6000476     981.3101     2135.146     2644.423     91.63949     183.7923     367.6577      2.117     7.36     1190.326      64.8508     138.2535        14     1.465     1.035  35.98   0
       349    450.4976    106.3007 307.7416297  +6.5901323     8161.236     27965.63     36621.73     92.22505     184.5231     367.7309      3.015     8.15     1195.528      64.8508     851.3226        98     2.553     2.039 -43.42   0
       350    776.1754    105.3731 307.6059698  +6.6013201     6220.887     17417.98     21607.16     91.63949     183.7923     367.7675      2.728     6.65     1191.216      64.8508     592.5957        71     2.140     1.850 -52.90   0
       351    140.3333    100.1964 307.8710552  +6.5823339     1087.099     2695.886     3735.667     91.49252     183.6458     367.6577      2.888     7.02       1220.3      64.8508     144.9252        16     1.731     0.797 -70.12   2
       352    911.3548     95.8372 307.5499642  +6.6097386     914.5476     1835.778     2074.357     91.93274     184.0118     367.8041      1.935     6.80      1187.95      64.8508     118.5192        12     1.388     0.934 -88.13   2
       353    574.5923     92.2943 307.6903954  +6.6000474      1854.73     5519.132     6208.218     91.78623     183.6458     367.6577      2.685     8.55     1192.504      64.8508     203.0431        42     1.858     1.693 -36.99   0
       354    536.1480     92.7337 307.7063982  +6.5985895     955.3614     2256.769     2387.308     92.22505     183.9386     367.8773      2.401     6.45     1193.245      64.8508     108.6198        12     1.524     0.767  69.69   0
       355    378.1601     93.4185 307.7721988  +6.5930565     641.4439      1326.83     2119.064     91.78623     183.7923     367.6211      1.906     4.51     1202.619      64.8508     84.93701         5     1.306     0.443  31.65   0
       356    881.2320     88.4866 307.5627599  +6.6117831     6011.655     14541.54     16753.81     92.22505     183.7923     367.8773      2.475     5.81     1187.699      64.8508      582.312        62     2.034     1.672 -39.47   0
       357    935.5276     88.9749 307.5401207  +6.6133768     1385.899     3098.485     2934.409     91.78623     183.8655     367.8041      2.142     7.97     1187.017      64.8508     152.2605        25     1.515     1.344 -53.14   0
       358      7.6987     85.7146 307.9267979  +6.5838996     10601.43     33059.52     40347.28     92.22505     184.5231     364.5331      2.774     7.23     1225.574      64.8508     1224.424        85     2.254     1.973 -59.05  16
       359    967.9279     86.2457 307.5267114  +6.6155768     5827.105     12872.63     14927.77     92.07901     184.0849     367.9139      2.321     5.03     1185.205      64.8508     618.9382        52     1.862     1.516 -56.09   0
       360    679.7045     86.3477 307.6467992  +6.6059939     1178.743     3456.319     4296.337     92.07901     183.9386     368.2064      2.770     9.28     1191.049      64.8508     161.9034        31     1.929     1.577 -82.85   0
       361    486.2052     83.4442 307.7275170  +6.6007737     674.8828     1626.214     2346.721     91.49252     183.5725     367.5113      2.014     4.39     1193.665      64.8508     105.2083         5     1.122     0.490  58.15   2
       362    819.7468     78.2484 307.5887196  +6.6139836     1040.365     2582.334     3091.984     92.37086     184.0118     367.9139      2.445     8.21     1188.491      64.8508     147.8583        17     1.424     1.321 -36.86   0
       363    731.4649     74.4650 307.6256293  +6.6126250     17651.51     50326.85     60918.45     92.22505     184.0118     367.8773      2.723     6.57     1189.926      64.8508     1648.654       102     2.240     1.983 -53.45   0
       364    499.0469     76.3238 307.7224047  +6.6041457     856.5491     2560.686     3238.922     92.07901     184.0849     367.9139      3.355     9.36     1193.443      64.8508     113.7253        17     1.843     1.325 -30.23   2
       365    334.5760     74.2369 307.7909996  +6.5995414     2842.021     8975.086     12975.06     91.78623     183.7923     367.6577      3.188     8.59      1209.54      64.8508     274.3265        73     2.520     1.939 -72.02   0
       366    872.0729     77.0100 307.5669584  +6.6162277     948.4791     2332.566     2694.971     91.63949     183.5724     367.7675      2.333     8.11     1187.053      64.8508     112.1296        17     1.407     1.306  -5.27   0
       367    965.2104     73.0828 307.5282817  +6.6209322     1649.038     3799.127     4453.871     91.78623     183.6458     367.7309      2.366     7.89     1184.375      64.8508     183.9001        27     1.755     1.267 -32.43   0
       368    899.2368     71.5134 307.5558232  +6.6194001     4229.623      9855.26     11116.65     92.22505     183.9386     367.9139      2.393     5.70     1186.537      64.8508     421.2689        48     1.912     1.545 -44.58   0
       369    443.0789     71.1118 307.7458977  +6.6044422     1913.095     6023.566     7264.008     91.93274     184.3041     368.0602      2.842    10.19     1196.136      64.8508      210.285        48     2.181     1.641 -33.15   0
       370   1003.5604     71.6514 307.5123500  +6.6227917     1112.963     2281.387      2561.24     92.07901     184.0118     367.9139      2.092     6.90     1182.103      64.8508     143.6715        17     1.512     1.031 -49.26   0
       371     98.8202     62.8462 307.8896037  +6.5963998     1488.128     3425.724     4165.363     91.78623     184.0118     367.7309      2.261     7.81     1219.665      64.8508     200.3042        19     2.036     0.839 -85.19   3
       372    102.1557     62.5277 307.8882248  +6.5966428     2011.011     3956.708     4821.948     92.07901     184.0849     367.9505      2.219     6.53     1219.614      64.8508     251.8804        28     1.957     1.054 -71.97   3
       373    270.7042     58.9976 307.8181213  +6.6037195     12407.14     42319.39      54714.7     91.78623     183.6458     367.5479      2.952     7.77     1217.018      64.8508     1398.362       101     2.379     2.082 -50.65   0
       374    246.7596     60.8508 307.8280353  +6.6021556     2615.611     7064.477     10382.78     92.22505     184.0118     367.8773      3.075     8.80     1217.126      64.8508     281.0994        50     2.346     1.702 -43.96   2
       375    244.6696     58.3157 307.8289910  +6.6031347     1572.375     2490.478     4299.979     92.51644     184.3041     367.9505      1.586     4.83     1217.115      64.8508      216.858         8     1.071     0.648  72.45   3
       376    394.7668     54.4557 307.7665840  +6.6097263     18304.06     61219.36     77978.34     92.07901     184.0118     367.9139      2.927     7.75     1201.409      64.8508     1942.825       110     2.379     2.104 -49.89   0
       377    150.6906     56.1448 307.8682183  +6.6009014     1559.966     4965.461     6390.408     92.07901     183.8655     368.0602      2.881     9.33     1218.523      64.8508     184.9243        44     1.979     1.799 -78.53   0
       378    413.1301     56.5029 307.7588645  +6.6094899     566.5186     1375.965     1834.439     92.07901     184.2311     367.9139      1.712     3.52     1198.858      64.8508     104.3311         5     1.263     0.283  53.98   0
       379    299.3459     52.1220 307.8064185  +6.6075171     7086.788     22422.08     31399.12     92.37086     184.0118     367.9139      3.150     7.50     1215.419      64.8508     752.2821       107     2.841     2.134  -9.95   0
       380    733.9568     50.3606 307.6253951  +6.6226789     14691.12      41942.5     50524.97     91.93274     184.0118     367.7675      2.692     6.58     1188.262      64.8508     1397.421        92     2.209     1.922 -48.73   0
       381    783.6920     51.6352 307.6046295  +6.6237991     641.2382     1755.257     2296.068     92.37086     183.8655     367.9505      2.832     4.11     1187.771      64.8508     99.77502         5     0.991     0.486 -51.45   2
       382     51.1415     48.1433 307.9099613  +6.6008910     3885.835     11301.82     13855.81     92.37086     184.0118     367.9505      2.731     7.31     1221.596      64.8508     463.1595        58     2.028     1.825 -66.09   0
       383    993.2152     30.5851 307.5180267  +6.6394382     1412.999     2906.319     3555.213     91.93274     183.6458     367.8407      2.204     5.70      1179.16      64.8508     184.0509        20     1.373     1.222  51.18   0
       384    791.2061   1020.3778 307.5692295  +6.2233020     990.2578     1819.661      2112.54     91.78623      183.719     331.5494      2.040     6.15     1251.057      64.8508     179.3846        10     1.301     0.842 -43.31  16
       385    584.5890     27.1345 307.6884071  +6.6273338       850.37     2453.265     3364.927     91.63949     183.7923     367.7675      2.904     8.61     1190.819      64.8508     120.7458        16     1.645     1.259  -6.08   0
       386     16.3470     25.3349 307.9252238  +6.6091644     1508.835     3074.474     4636.672     92.22505     183.9386     367.8773      2.435     8.07     1222.619      64.8508     209.0404        21     2.586     0.704 -22.61  19
       387    768.4766   1017.9055 307.5787750  +6.2235725      3238.05     7085.174     9393.205     91.93274      184.158     359.9261      2.656     6.58     1250.905      64.8508     462.0372        47     2.567     1.310 -20.75  16
       388    659.3072   1017.6485 307.6242348  +6.2200637     637.9991     1270.445      649.475     92.07901     183.8655     362.0882      1.773     5.00     1251.962      64.8508     91.29993         6     1.356     0.522  51.02  16
       389    394.3531   1015.2557 307.7346222  +6.2122635     3113.417     6313.479      6719.23     92.22505     184.0118      367.987      2.139     4.87      1254.17      64.8508     329.6866        36     1.671     1.316 -44.42  16
       390    813.8165   1007.4417 307.5602463  +6.2294014     813.4774     1447.586     1277.868     91.63949     183.7923     367.6211      1.966     5.49     1250.355      64.8508     131.9891         9     1.254     0.678 -52.37   0
       391   1006.2152   1003.3840 307.4802759  +6.2374389     2009.794     3167.556     3145.337     91.93274     183.6458     367.8407      1.598     4.03     1248.042      64.8508     306.9938        15     1.354     0.704 -51.29   0
       392    773.6031   1003.6884 307.5771139  +6.2296234     1370.627     2754.772     3227.135     91.49252     183.6458     367.5845      1.973     5.28     1250.489      64.8508     193.1115        19     1.418     1.063 -63.09   0
       393    450.6864     17.9144 307.7445077  +6.6267010      642.353     1369.066     2162.443     91.93274     184.2311      367.987      2.743     6.36     1196.357      64.8508     88.91846         7     1.423     0.799 -58.07   0
       394    702.0720   1004.0502 307.6068834  +6.2271055     864.9594     1420.709     1316.438     92.22505     184.0118     367.9504      1.681     3.99     1250.987      64.8508     155.3157         5     1.151     0.471 -21.97   0
       395    198.9651    998.3696 307.8165301  +6.2127518     6635.938     14271.15      16573.4     91.78623      183.719     367.6211      2.257     4.96     1254.515      64.8508     662.8147        50     1.758     1.523 -50.23   2
       396    971.3901    999.9065 307.4948910  +6.2377273     18597.13     30702.98     32294.76     91.78623     183.5725     367.6943      1.761     3.61     1248.409      64.8508     2685.153        52     1.665     1.200 -44.69   0
       397    536.2348   1001.0629 307.6760271  +6.2228444     692.1125     1261.419     1668.751     92.07901     184.0849     367.8773      1.949     5.60     1252.829      64.8508     106.7179         9     1.063     0.831  57.43   0
