#   1 NUMBER                 Running object number                                     
#   2 X_IMAGE                Object position along x                                    [pixel]
#   3 Y_IMAGE                Object position along y                                    [pixel]
#   4 ALPHA_J2000            Right ascension of barycenter (J2000)                      [deg]
#   5 DELTA_J2000            Declination of barycenter (J2000)                          [deg]
#   6 FLUX_APER              Flux vector within fixed circular aperture(s)              [count]
#   9 FLUXERR_APER           RMS error vector for aperture flux(es)                     [count]
#  12 FLUX_RADIUS            Fraction-of-light radii                                    [pixel]
#  13 FWHM_IMAGE             FWHM assuming a gaussian core                              [pixel]
#  14 BACKGROUND             Background at centroid position                            [count]
#  15 THRESHOLD              Detection threshold above background                       [count]
#  16 FLUX_MAX               Peak flux above background                                 [count]
#  17 ISOAREA_IMAGE          Isophotal area above Analysis threshold                    [pixel**2]
#  18 A_IMAGE                Profile RMS along major axis                               [pixel]
#  19 B_IMAGE                Profile RMS along minor axis                               [pixel]
#  20 THETA_IMAGE            Position angle (CCW/x)                                     [deg]
#  21 FLAGS                  Extraction flags                                          
         1    185.4631     22.4482 307.8649128  +6.6682530     10461.51     16208.49     17041.39     77.82263      155.398     311.0125      1.709     3.73     828.7758      54.8101     1479.006        42     1.534     1.117 -38.36   0
         2    931.0590     20.2466 307.5551993  +6.6941299      3890.43     6152.519     6783.493     77.94606     155.5217     311.0743      1.712     3.91      812.796      54.8101      518.343        28     1.522     0.962 -42.50   0
         3    467.6968     19.3516 307.7477554  +6.6790055     1813.555      2600.05     2771.079     77.94606     155.4599     311.1052      1.512     4.15     818.2891      54.8101     263.9918        17     1.362     0.774 -48.43   0
         4    731.8230     18.6381 307.6380366  +6.6881411     2007.547     2985.033     2916.877     77.57518     155.2742     310.7651      1.603     3.83     815.0856      54.8101     257.8389        20     1.348     0.925 -39.27   0
         5    995.7932     16.2121 307.5284366  +6.6979543     1869.641     2936.746     2813.837     77.57518     155.3361     310.8579      1.648     4.21      809.441      54.8101     276.5403        20     1.345     0.930 -46.91   0
         6    715.2395     12.9618 307.6451176  +6.6899303     7220.514     10948.56     11535.01     77.69901     155.4599     310.8269      1.603     3.69     815.2479      54.8101     991.2905        29     1.447     0.970 -42.73   0
         7    635.4094     12.1932 307.6783127  +6.6875776     3775.699     5963.819     6370.436     77.45116     155.3361      310.796      1.687     4.07     816.2162      54.8101     513.4476        24     1.408     0.906 -43.51   0
         8    337.3378     11.5250 307.8021809  +6.6778643     1057.312     1627.052     1705.107     78.19234     155.5217     310.9506      1.712     5.78     826.3635      54.8101     130.7034        13     1.230     0.766 -43.05   0
         9    435.5781      8.4269 307.7614679  +6.6824391     6074.655     9671.115     10150.16     77.45116     155.3361     310.9197      1.725     3.93     820.0326      54.8101     869.8784        34     1.493     1.079 -34.91  16
        10    391.3113     10.5111 307.7797900  +6.6800939      673.701     893.5848     978.1014     77.69901     156.0154     311.0434      1.582     3.90     822.9307      54.8101     110.2625         5     0.960     0.488 -40.20   0
        11     36.5982      7.9788 307.9272494  +6.6692184     8160.393     12995.31     13232.86     77.57518     155.2123     309.1523      1.682     3.83     828.1149      54.8101     1067.628        39     1.548     1.123 -48.06  16
        12    682.5032      7.3715 307.6589072  +6.6911437     919.6229      1033.83     1129.266      78.0693     155.2742     305.9955      1.396     5.08     815.8286      54.8101     133.7228        10     1.150     0.636 -44.54  16
        13    511.2437      5.6275 307.7301237  +6.6861309     954.3972     1140.613     1392.343     77.57518     155.5835     291.2846      1.409     4.46     817.0289      54.8101     132.3998        10     1.087     0.668 -42.05  16
        14    332.1244      3.4296 307.8046197  +6.6810315     12615.94     19988.47     21341.66     77.82263     149.3412      265.453      1.718     3.72     826.6669      54.8101     1630.402        46     1.611     1.145 -38.42  24
        15    427.0503      4.0629 307.7651580  +6.6839548     781.1421     1257.201     1546.399     77.94606     153.8437     273.6205      1.595     5.68     820.5609      54.8101     123.6524        10     1.296     0.800 -65.77  16
        16    105.8171      3.8151 307.8986319  +6.6732671     2424.798     3815.972     3773.721     77.69901      152.084     270.2977      1.660     3.72     828.2807      54.8101     327.2648        22     1.413     0.930 -49.08  24
        17     97.1349      2.3643 307.9022881  +6.6735739     1559.316     2247.378     2589.142     77.32694     137.6858     250.0879      1.604     5.14      828.234      54.8101     201.2704        15     1.165     0.923 -45.43  24
        18    801.1272      1.9868 307.6097989  +6.6973317     770.7106      1094.92     1161.441     74.54175     132.7808     244.2145      1.481     5.46     813.6414      54.8101     114.0328        10     1.072     0.786 -22.18  24
        19    398.2184      1.7700 307.7772144  +6.6839345     1839.529     2403.289     2532.691     72.44893     129.7044     240.8853      1.340     3.67     822.4821      54.8101     292.1821        11     1.029     0.675 -25.83  24
        20    466.4339      1.4266 307.7488831  +6.6863636     512.9421     778.5626     704.2434     68.77303     124.9478     235.3952      1.582     4.19     818.1175      54.8101     81.98749         5     1.017     0.493   2.51  24
        21    535.8106    992.6099 307.6867631  +6.2794588     3668.447     6246.165     6583.345     77.57518     155.3361     310.9197      1.810     4.00     851.5483      54.8101     491.8766        31     1.613     1.065 -32.94   0
        22    756.2131   1023.6389 307.5942194  +6.2740167     658.6213     846.1733       929.29     67.50327     123.7107     234.2489      1.180     4.03     849.3107      54.8101     121.4216         7     0.977     0.476   4.22  24
        23      2.0188    994.8213 307.9082921  +6.2606332     502.0672     752.9048     329.8903     75.18381     133.3587     244.7257      1.286     4.64     849.2307      54.8101     76.54608         7     1.110     0.550 -56.87  24
        24    645.3711    991.8410 307.6413029  +6.2834413     1298.535     2021.145     1978.502     77.57518      155.398      310.796      1.717     4.48      850.473      54.8101     183.6952        13     1.342     0.764 -38.50   0
        25     70.7159    991.4077 307.8798887  +6.2643530     760.2615     1273.141     1434.258     77.57518     155.2123      310.796      1.774     5.67     849.0681      54.8101     120.2005         9     1.341     0.676 -55.52   0
        26    488.8494    988.9667 307.7063821  +6.2793908     1998.508     3309.304     3551.781     77.82263     155.5217     310.8888      1.772     4.30      852.121      54.8101     255.9207        21     1.447     0.896 -37.37   0
        27    923.3268    981.1415 307.5262598  +6.2971395      36753.2     66515.46     72710.92      78.0693     155.5217     310.9197      1.970     4.08     844.8972      54.8101     4190.974        85     1.798     1.482 -39.52   0
        28    329.0089    982.3837 307.7729628  +6.2767521     506.5038      704.514     239.5906     77.69901     155.2742     310.8269      1.654     4.89     851.6904      54.8101     71.56189         5     1.203     0.564 -50.06   0
        29    230.5723    979.5195 307.8139256  +6.2746317     1530.717     2526.504     2907.084     77.82263     155.3361     310.9506      1.827     4.75     849.9283      54.8101      191.074        18     1.433     0.878 -53.70   0
        30    629.5275    977.6746 307.6483557  +6.2887605      802.886     1375.776     1530.033     78.19234     155.7687     310.9815      1.902     4.85     850.5129      54.8101     121.7187         8     1.175     0.736 -63.35   0
        31    769.5033    972.8673 307.5904018  +6.2954229     5980.493     9981.291     11263.88     77.94606     155.5835     310.9815      1.847     4.00     847.7047      54.8101     768.7244        40     1.681     1.197 -53.98   0
        32    821.3592    974.7905 307.5688077  +6.2963601     2185.769     3727.969     4070.349     77.32694     155.3361     310.6723      1.853     4.19     846.7859      54.8101     283.1901        25     1.418     1.139 -64.47   0
        33    556.0851    972.4590 307.6790220  +6.2884571     855.4393     1259.606     1572.031     77.94606     155.5217     311.0434      1.710     5.54     850.8461      54.8101     119.3552        11     1.342     0.712 -71.39   0
        34    238.9216    971.9182 307.8107153  +6.2780503     1373.327     2467.223     2577.605      78.0693     155.7687     311.0743      1.900     5.20     849.9274      54.8101     194.9587        20     1.546     0.865 -42.30   0
        35    203.4674    971.7402 307.8254402  +6.2769335     834.9993     1353.985     1329.876      78.0693     155.4599     310.9506      1.731     5.70     849.5616      54.8101     124.4637        10     1.403     0.652 -52.26   0
        36     63.7949    969.8174 307.8834899  +6.2730340      2651.43     4234.017     4493.199     77.57518     155.1504      310.796      1.742     3.85     848.2148      54.8101     355.9709        27     1.625     1.026 -36.60   0
        37    957.6724    967.9037 307.5124425  +6.3037502     5515.289     10312.84     11187.45     77.69901      155.707     310.9197      2.000     4.21     843.2538      54.8101     671.0209        44     1.676     1.315 -42.16   0
        38    213.1819    964.3705 307.8216554  +6.2803023     541.1882     922.5851     1038.002     77.57518     155.3361     310.8888      1.808     2.82     849.4143      54.8101      94.0733         5     0.722     0.455  16.89   0
        39    640.0089    962.4575 307.6445143  +6.2953937     697.5594     954.7568     651.6617     77.32694     155.4599     310.6723      1.770     5.50     849.9625      54.8101     85.15613        10     1.202     0.709 -51.92   0
        40    931.5598    959.5875 307.5235623  +6.3063133     1854.831     3138.474     2963.185     77.45116     155.3361     310.7341      1.792     4.30     844.1113      54.8101     214.8508        24     1.436     1.069 -39.94   0
        41    652.1191    955.4969 307.6397198  +6.2986725     4228.194     6791.674     6630.742     77.82263     155.8304     310.9815      1.696     3.94     849.6401      54.8101     551.4846        28     1.538     1.004 -43.08   0
        42    790.9390    955.8174 307.5820729  +6.3031781     1258.981     1806.629     2311.446     77.57518     155.4599     310.7651      1.547     4.71     846.7945      54.8101     144.8389        16     1.197     0.942 -39.52   0
        43    264.2575    955.5867 307.8007466  +6.2856433     3949.421     6453.303     6826.522     77.32694      155.398     310.6723      1.713     4.23     850.0875      54.8101     541.4772        28     1.493     1.029 -45.08   0
        44   1000.8103    955.6732 307.4949406  +6.3102375     557.1597     829.7693     1033.154     77.45116     155.1504     310.8269      1.570     4.33     841.5674      54.8101     103.6365         5     1.029     0.520 -50.20   0
        45    474.6823    953.6531 307.7134498  +6.2934963     1048.975     1838.212     1814.381     77.94606     155.5217     311.0125      1.875     5.98       850.78      54.8101     130.9358        12     1.388     0.725 -35.49   0
        46     33.2063    952.9973 307.8967559  +6.2789496     1782.895     3217.773     3777.735     77.32694     155.2123     310.8269      1.893     4.82      847.524      54.8101     217.5949        21     1.509     0.875 -42.44   0
        47    883.7521    951.2750 307.5436897  +6.3081510     807.2757      1332.95     1220.566     77.82263     155.5835     310.9506      1.816     5.81     845.1649      54.8101     111.4159        11     1.308     0.726 -60.12   0
        48    300.3273    949.0422 307.7859919  +6.2895556     820.5757     1362.313     1617.444     77.82263     155.5835     310.9815      1.640     5.58     850.4719      54.8101     111.6927        10     1.253     0.701 -60.23   0
        49    954.7488    949.1329 307.5142838  +6.3114028     647.4331     1092.858     967.1589     77.82263      155.398     310.9506      1.309     3.91     843.1018      54.8101     118.3439         5     1.013     0.514 -58.76   0
        50    576.9182    947.9205 307.6711960  +6.2992855     1606.163     2642.663     2994.326      78.0693     155.7687     311.0743      1.861     4.19     850.1438      54.8101     215.9994        16     1.350     0.814 -48.34   0
        51    616.0645    944.5854 307.6550550  +6.3019719     1198.283     1933.521     2184.978     77.45116      155.398     310.8269      1.837     4.66     849.8807      54.8101     180.0217        16     1.290     0.880 -29.00   0
        52    295.8182    942.0895 307.7880978  +6.2922749     1520.487     2452.012     2612.997     77.69901     155.2742     310.8579      1.675     4.18     850.2729      54.8101     222.6705        18     1.325     0.890 -39.35   0
        53    563.6360    940.5437 307.6769581  +6.3018867     553.9891     681.4258     435.0754     77.82263     155.5217     310.9815      1.229     3.41     849.9901      54.8101     91.49072         5     1.086     0.309 -69.26   0
        54    762.5624    938.0028 307.5944512  +6.3095858       877.77     1266.314     1090.375      77.0779     155.2742     310.7651      1.644     4.81     847.0238      54.8101     125.8176        12     1.133     0.795 -53.86   0
        55    900.3211    934.8061 307.5373611  +6.3155033     6216.677     11047.34     11265.23     77.57518     155.0264     310.7341      1.877     3.96      844.332      54.8101     789.9192        41     1.566     1.299 -45.23   0
        56    436.0822    932.1407 307.7301983  +6.3010851     1909.137     3146.398     3505.809      78.0693     155.5835     310.9815      1.856     5.52     849.8643      54.8101     262.5247        25     1.786     1.031 -50.85   0
        57    337.9125    930.2674 307.7710192  +6.2985678     8972.584     14519.14     15494.76      78.0693      155.707     310.9815      1.730     3.87     849.9706      54.8101     1153.264        47     1.686     1.140 -38.06   0
        58    257.9460    929.2212 307.8042543  +6.2963169     6487.345     10533.84     11754.97     77.45116     155.5217     310.7651      1.753     4.01     849.3512      54.8101     806.5177        34     1.567     1.037 -37.55   0
        59    770.1521    923.9867 307.5917693  +6.3156262     638.5027     899.9884     433.4923     77.32694      155.398     310.6723      1.360     4.94     846.5543      54.8101     88.90417         6     1.021     0.676 -83.38   0
        60    586.0457    923.5922 307.6682227  +6.3096353     1091.495     1696.391     1671.996     77.45116      155.398     310.6104      1.568     5.78      849.434      54.8101     146.2636        12     1.277     0.737 -57.62   0
        61    916.2916    919.9736 307.5312262  +6.3221599     844.7866     1541.589     2136.953      78.0693     155.2742      310.796      1.926     6.57     843.6133      54.8101     126.2292        12     1.402     0.863  87.89   0
        62    148.1546    919.8417 307.8501521  +6.2965024     476.7054     664.6879     809.0564     77.82263     155.5217      310.796      1.825     3.87     847.6425      54.8101     71.67969         5     0.979     0.439 -45.09   0
        63    414.8304    918.3675 307.7394845  +6.3060595     696.7081     1113.197     1009.477     77.45116     155.2742     310.6723      1.561     4.38     849.5446      54.8101     99.14832         7     0.907     0.604 -80.38   0
        64    220.3365    918.4392 307.8202317  +6.2995058     477.8731     797.3362     1209.839     77.94606     155.4599     310.9815      2.196     3.47     848.6638      54.8101     86.52405         5     1.032     0.338 -21.88   0
        65    983.7646    915.1371 307.5033725  +6.3264061     534.1359     1112.448      1562.85     77.82263     155.5217     310.9197      1.964     3.36     841.4118      54.8101     89.04309         5     0.959     0.341  46.15   0
        66    752.5254    912.8483 307.5994610  +6.3196363       1352.1     2490.573     2641.834     77.82263     155.5835     310.9815      1.888     5.91     846.6594      54.8101     153.0801        20     1.605     0.850 -45.26   0
        67    845.7717    913.9935 307.5607064  +6.3222766     470.1723     715.6549     286.4168     77.45116      155.398     310.7651      1.373     4.47     845.0243      54.8101     71.61542         6     1.376     0.413 -16.16   0
        68    616.6921    909.2554 307.6559794  +6.3165798     682.1102      1110.09     800.3621     77.82263      155.398     311.0743      1.492     5.30     848.6371      54.8101     130.1665         7     1.375     0.577 -35.67   0
        69    537.5739    908.5110 307.6888539  +6.3142399     1112.813     1631.911     1910.999      78.0693     155.2742      310.796      1.611     5.39     849.5764      54.8101     163.7731        11     1.249     0.945 -64.70   0
        70      3.3706    909.9381 307.9105951  +6.2957231     883.3939     1210.802     886.6902     77.69901     148.6314     264.4007      1.542     5.99     845.7443      54.8101     128.9538        10     1.106     0.913 -17.20  16
        71    983.9279    908.5352 307.5035254  +6.3291373      1104.78      1979.37     2291.301     77.94606     155.5217     310.9815      1.972     6.82     841.1254      54.8101     123.2207        17     1.364     0.956 -21.42   0
        72    627.9073    908.7397 307.6513402  +6.3171677     585.9987     870.4462     736.1156     77.82263     155.4599     311.0434      1.215     3.11     848.5519      54.8101     130.8658         5     0.922     0.337 -43.30   0
        73    671.0818    906.2386 307.6334980  +6.3196439     2226.865      3532.54     3989.555     77.94606     155.5835     310.8888      1.710     3.74     848.0946      54.8101     295.3491        21     1.456     0.874 -42.19   0
        74     67.5256    902.3329 307.8842168  +6.3010209     2670.377     4553.524     4810.743      78.0693     155.6453     310.9197      1.856     4.42     845.9598      54.8101     332.1315        25     1.470     1.031 -51.25   0
        75    948.7554    902.1356 307.5183433  +6.3306073     804.1939     1304.081     1159.588     77.94606     155.4599     310.9506      1.604     4.65     842.1741      54.8101     121.5718         9     1.072     0.653 -46.32   0
        76    831.4459    903.2478 307.5670142  +6.3262352     682.5743      1032.18     1666.133     77.94606      155.398     310.9506      1.776     4.58     845.1164      54.8101     113.4116         7     0.923     0.646 -13.82   0
        77     85.0196    901.5394 307.8769807  +6.3019367     1958.217     3263.613     3714.729     77.57518     155.4599     310.8888      1.839     3.76     846.1047      54.8101       289.21        20     1.334     0.911 -45.39   0
        78    211.1004    901.3387 307.8246421  +6.3062559      2063.14     3349.811     3261.961     77.69901      155.398     311.0743      1.790     4.16     848.4385      54.8101     283.6398        19     1.425     0.829 -35.64   0
        79    349.9638    897.7468 307.7671094  +6.3123986     857.2786     1486.734     1787.679     77.82263     155.5217     310.9815      1.907     6.04     849.3469      54.8101     109.1034        12     1.372     0.747 -51.81   0
        80    665.6837    895.3890 307.6361030  +6.3239430     6446.105      10612.8     10969.74     77.57518     155.2742      310.796      1.785     3.95     847.6813      54.8101     842.1694        33     1.567     1.082 -40.93   0
        81    244.7505    897.5492 307.8107989  +6.3089502     792.0075     1262.421     864.9736     77.94606      155.398     310.8888      1.592     4.56     848.9235      54.8101     115.9543         8     1.155     0.511 -69.91   0
        82    803.2209    896.1689 307.5789705  +6.3282157     582.2318     783.6381      583.856     77.45116     155.3361     310.8269      1.364     3.48     845.5875      54.8101      85.7674         5     1.014     0.344 -43.77   0
        83     25.6703    893.6731 307.9018859  +6.3031885     1168.725     1903.865     2370.872      78.0693     155.6453     310.9506      1.849     5.01     845.3212      54.8101       150.85        15     1.389     0.828 -35.70   0
        84    903.2623    891.7080 307.5375814  +6.3333957      2476.01      4258.74     4475.856     77.94606     155.5835     311.0125      1.834     4.45     843.3633      54.8101     284.7949        24     1.504     1.030 -37.91   0
        85     38.5987    892.1299 307.8965705  +6.3042605     982.7338     1649.514     1752.687     77.45116     155.0884      310.796      1.851     5.04     845.4029      54.8101     124.3238        10     1.142     0.629 -45.58   0
        86    348.6470    888.5480 307.7679655  +6.3161523     15424.92     24655.81        26205      78.0693      155.398     310.9815      1.745     3.87     849.1761      54.8101     2147.283        48     1.594     1.173 -37.34   0
        87    219.4975    888.2870 307.8215954  +6.3119264     1195.562     1747.606      1718.41     77.94606     155.9538     310.9815      1.648     5.26     848.5693      54.8101     183.2914        14     1.387     0.737 -48.71   0
        88     83.6243    889.3237 307.8779719  +6.3069332     1241.521     2087.576     2160.068     77.57518     155.4599     310.9197      1.716     5.86     845.8784      54.8101     170.8031        15     1.386     0.769 -32.37   0
        89    426.2576    879.3724 307.7360506  +6.3225423      920.065     1404.153     1032.805     77.57518     155.5835     310.8579      1.707     4.97     848.8873      54.8101     130.3452        12     1.196     0.792 -40.45   0
        90    111.9644    879.1413 307.8665491  +6.3120898     1568.667     2415.948     2611.457     77.94606     155.5217     310.9506      1.640     3.78     846.1147      54.8101     228.7678        19     1.299     0.918 -46.69   0
        91    679.6644    875.5677 307.6309626  +6.3325941     957.4608     1501.131     1754.655     77.69901     155.5835     310.9197      1.923     5.51     846.7369      54.8101     128.3597        12     1.108     0.795 -42.88   0
        92    506.5910    876.2527 307.7028009  +6.3265212     627.2202     1008.268     857.3159     77.45116      155.398     310.6723      1.842     4.37     849.2688      54.8101     90.19971         7     1.245     0.644 -27.63   0
        93    893.9777    873.3894 307.5420492  +6.3406495     1718.654     3014.956     3500.626     77.57518     155.2742     310.8269      1.976     5.03     843.1806      54.8101     212.6495        23     1.582     1.023 -41.18   0
        94    864.3035    872.9992 307.5543836  +6.3398206     1792.924     3053.397     2954.193     77.45116     155.1504     310.5794      1.778     5.19     843.8389      54.8101       212.68        23     1.393     1.195 -46.03   0
        95    827.8634    872.3999 307.5695343  +6.3388520     2730.506      4593.61     4878.311     77.20252     155.2742     310.6723      1.800     4.06     844.7208      54.8101     347.5906        24     1.414     1.011 -56.06   0
        96     95.3878    872.6638 307.8736497  +6.3142068     2396.145     3849.564     4237.381     77.45116     155.3361     310.7651      1.786     4.48     845.8047      54.8101     287.5427        25     1.549     0.955 -51.13   0
        97    563.7218    863.7449 307.6794998  +6.3335977       320797     509294.2     542373.4      78.0693     155.5217     310.9815      1.741     3.76     848.4996      54.8101     42492.84       200     1.828     1.412 -43.90   0
        98    457.8120    870.6128 307.7232436  +6.3272161     505.2385     751.6389     901.0485     77.82263     155.2123     310.8888      1.329     3.50     849.0061      54.8101     73.06519         5     0.773     0.456  15.90   0
        99    407.9143    866.3254 307.7441052  +6.3273143     7316.826     11542.02     11809.49      78.0693     155.8304     311.0125      1.674     3.84     848.6088      54.8101     948.7925        39     1.572     1.090 -39.95   0
       100    651.7181    866.6226 307.6428661  +6.3353530      1000.64     1774.377     1961.904     77.69901     155.2123     310.8579      1.879     5.97     846.6595      54.8101     146.9476        15     1.489     0.779 -43.90   0
       101    351.1528    864.6921 307.7677274  +6.3260857      11833.1     18998.56     20338.25     77.94606     155.4599     311.0743      1.727     3.98     848.7202      54.8101      1595.67        43     1.622     1.090 -40.21   0
       102    669.5978    861.1253 307.6356266  +6.3382205     3301.178     5100.464     5503.467     77.45116     155.0264     310.8269      1.624     3.91     846.2635      54.8101     469.1365        25     1.439     0.938 -47.42   0
       103    902.1453    859.8856 307.5391095  +6.3464973     4931.342     8252.292     9211.226     77.94606     155.5217     311.1052      1.837     3.81      842.743      54.8101     607.2957        39     1.562     1.251 -35.74   0
       104    741.3973    857.3481 307.6059407  +6.3421794     932.9051     1236.108     946.1384     77.32694     155.2123     310.5485      1.405     4.59     845.5019      54.8101     128.0743        12     1.135     0.902 -51.69   0
       105    644.3499    854.8600 307.6463200  +6.3399631     3211.991     5316.208     5871.303     77.94606     155.4599     311.0125      1.785     4.25      846.291      54.8101     461.1462        27     1.483     1.196 -15.93   0
       106    833.1236    853.9521 307.5679676  +6.3466443     1459.994     2692.248     2144.747     77.82263     155.5835     310.9197      1.870     5.64     844.1815      54.8101     205.2778        21     1.521     1.026 -40.18   0
       107    636.6091    851.0089 307.6496632  +6.3412943     1631.156     3694.599     4983.598     77.32694     155.3361     310.8269      2.745     8.96     846.2126      54.8101     262.9297        30     2.553     0.877 -59.92   0
       108    959.6721    852.8572 307.5154578  +6.3513173     622.3895     920.8054     1350.432      78.0693     155.5217     310.9506      1.749     5.32     840.3015      54.8101     76.42834         7     1.100     0.726 -31.48   0
       109    920.9504    847.8066 307.5317051  +6.3521116     2844.438     4765.329     5421.179     77.45116     155.3361     310.5794      1.748     4.29     842.0878      54.8101     346.9195        27     1.572     1.007 -46.61   0
       110    181.0186    849.7892 307.8388680  +6.3265285      492.604     571.9529     675.0432     77.57518     155.2123     310.8269      1.425     4.68     846.7521      54.8101     96.52173         5     1.007     0.618 -36.10   0
       111    330.9271    848.6270 307.7766655  +6.3320401         1031     1546.685     1209.863     77.69901     155.4599     310.8888      1.629     4.34     848.2601      54.8101      149.605        12     1.044     0.843 -47.50   0
       112    379.1011    843.7017 307.7568291  +6.3356891     2540.415     4118.063     4254.458     77.94606     155.8921      310.796      1.765     4.72     847.8149      54.8101     304.0953        21     1.524     0.854 -43.02   0
       113    515.3217    833.5137 307.7006110  +6.3444593     3029.127      4586.97       4584.6     77.94606     155.8304     311.0434      1.649     3.79     847.0004      54.8101     376.9967        25     1.462     0.971 -40.31   0
       114    348.7538    835.1852 307.7697159  +6.3381877     462.4629     1087.885     1106.535     77.32694     155.3361     310.7032      1.757     3.66     847.7186      54.8101     111.8423         5     1.582     0.244 -32.34   0
       115    860.1902    832.6118 307.5574430  +6.3563585     919.6803     1613.048      2276.01     77.69901     155.3361     310.9197      1.796     4.69     843.0779      54.8101     133.1343         9     1.218     0.513 -49.31   0
       116    580.3731    830.9242 307.6736873  +6.3477057     673.4088     1073.068     936.1531     77.82263     155.5217     310.9197      1.367     4.50     846.2349      54.8101     127.8773         8     1.575     0.366 -56.98   0
       117    562.2227    829.5258 307.6812707  +6.3476757     5826.377     9301.817     9832.483     77.57518     155.3361     310.9197      1.730     3.83      846.467      54.8101     752.4316        37     1.541     1.116 -36.22   2
       118    568.8317    828.8967 307.6785476  +6.3481566     1102.479     1716.369     1385.558      78.0693     155.3361     311.0434      1.557     5.03     846.2986      54.8101     170.7219        12     1.243     0.716 -43.79   3
       119    479.8655    828.6368 307.7154968  +6.3452855     1526.682     2502.597     2811.376     77.82263     155.4599     311.0125      1.754     4.22     846.6335      54.8101     200.0002        14     1.238     0.767 -49.67   0
       120    273.4879    829.6057 307.8011546  +6.3379662     735.4828     1364.377     1646.628     77.45116     155.2123     310.7032      1.893     3.55     847.8817      54.8101     110.8102         8     1.049     0.544 -50.43   0
       121    121.7569    827.5917 307.8642211  +6.3337017     1272.709     2083.536     1911.635     77.45116     155.3361     310.7032      1.734     4.09     845.3056      54.8101     197.4109        13     1.232     0.781 -40.53   0
       122    897.8712    827.5151 307.5419671  +6.3597199     1276.415     2026.746     2085.162      78.0693     155.7687     310.9815      1.806     5.84     842.1702      54.8101     159.3305        14     1.399     0.686 -38.20   0
       123    697.0814    827.2730 307.6253496  +6.3531160     674.8306     1103.664     1308.207     78.19234     155.8304     310.9815      2.037     6.01     845.0734      54.8101     89.22491         9     1.238     0.820 -32.60   0
       124    532.8174    823.3935 307.6936862  +6.3492234      19013.9     29885.92     31630.24     77.57518     155.2742      310.796      1.699     3.90     846.2326      54.8101     2532.353        56     1.667     1.157 -39.02   0
       125    373.5415    825.1818 307.7597603  +6.3431489     539.7579     677.9837     813.5868     77.57518      155.398     310.7032      1.401     3.37     847.1078      54.8101     102.5044         5     1.065     0.308 -67.41   0
       126    946.4518    821.8248 307.5219849  +6.3636893     3484.666     5853.941     5766.904     77.57518     155.5217     310.8579      1.802     3.78     840.5944      54.8101     452.3837        32     1.564     1.123 -44.17   0
       127    179.7973    822.3348 307.8403000  +6.3378223     517.6788     730.0731     1065.311     77.32694     155.2742     310.7341      1.229     4.42     846.0845      54.8101     87.59052         5     1.147     0.484 -57.21   0
       128     43.0275    813.9365 307.8973696  +6.3366921     1406.646      2387.64     2478.535     77.57518     155.5217     310.8579      1.783     4.46     844.4776      54.8101     170.5552        15     1.194     0.938 -76.03   0
       129    325.3606    812.1962 307.7802024  +6.3468945     3055.121     4908.892     4825.421      77.0779     155.2742     310.7032      1.688     4.00      847.269      54.8101     410.3611        24     1.462     0.925 -39.67   0
       130    791.0097    808.0186 307.5869925  +6.3642034     51479.34     83469.26     89522.89     77.69901     155.2742     310.8269      1.734     3.83      843.605      54.8101     6480.679        85     1.700     1.300 -41.38   0
       131     25.3415    810.0790 307.9048429  +6.3376898     2102.796     3359.022       3378.2      78.0693     155.5217     310.9197      1.691     4.55     844.4131      54.8101      267.584        24     1.478     0.980 -37.00   0
       132    730.0040    809.3673 307.6122791  +6.3616089     617.5993     1017.597      1138.76     77.20252      155.398     310.7341      1.584     4.60     844.9365      54.8101     99.96411         8     1.290     0.467 -42.58   0
       133    434.2170    806.9287 307.7351804  +6.3527188     758.8837     1235.591     1058.228     77.45116     155.4599     310.8579      1.666     4.10     845.5757      54.8101     147.2969         9     1.267     0.605 -55.85   0
       134    248.2367    805.5471 307.8124489  +6.3470516     4799.613     8276.545     10574.32     77.82263     155.5217     310.9815      2.116     4.52      846.777      54.8101     616.9004        44     1.805     1.240 -57.27   0
       135    719.2535    802.5629 307.6169711  +6.3640591      20117.8     32326.49     35144.35     77.82263     155.5217     310.9815      1.754     3.89     844.7122      54.8101      2650.63        56     1.657     1.230 -44.55   3
       136    712.9698    799.0734 307.6196973  +6.3652899     82676.03     132668.7     141632.4     77.82263     155.5217     310.9506      1.730     3.86     844.5333      54.8101      10502.9        90     1.714     1.275 -41.16   3
       137    916.2853    803.2662 307.5351319  +6.3703460     7734.172     12767.01     13620.32      78.0693     155.7687     311.0125      1.780     3.87       841.27      54.8101     950.8896        42     1.623     1.169 -43.75   0
       138    357.7892    799.9268 307.7671502  +6.3530478     19549.98     31471.39     33471.79     77.45116     155.1504     310.8269      1.709     3.84     846.4005      54.8101     2461.583        55     1.617     1.192 -37.44   0
       139    646.6101    799.8711 307.6472256  +6.3627423     790.5959     1179.993     1989.331     77.45116     155.1504     310.7651      2.224     5.88     844.2839      54.8101     94.13373        11     1.246     0.781 -53.45   0
       140    407.0791    800.1345 307.7466770  +6.3546145     1477.304     2048.425     2031.554     78.19234     155.6453     310.9197      1.471     3.79     845.5884      54.8101     194.1761        15     1.181     0.827 -44.83   0
       141    419.7061    797.7559 307.7415139  +6.3560197     21083.56     33413.27     35675.19     77.82263     155.4599     311.0743      1.715     3.83     845.3228      54.8101     2860.166        56     1.612     1.199 -39.12   0
       142    247.7918    784.2157 307.8133519  +6.3558436     756435.1      1854255      2097936     77.57518     155.2742      310.796      2.392     6.46     846.0345      54.8101     62879.39       586     2.494     2.140 -49.77   4
       143    885.6837    795.3258 307.5481047  +6.3726037     732.7993     1092.933     899.8969      78.0693     155.8304     311.0125      1.628     5.18     841.7544      54.8101     107.5818         8     1.124     0.676 -39.63   0
       144    442.4705    791.6312 307.7322674  +6.3593113     1702.338     2842.491     2670.683     77.82263     155.5217     310.9197      1.773     4.42     844.9022      54.8101     246.0522        19     1.386     0.924 -55.85   0
       145    956.8028    796.8683 307.5185211  +6.3743385     1899.937     3215.068     3748.828     77.32694     155.1504     310.7341      1.926     3.98     839.7789      54.8101     229.6653        22     1.353     1.017 -53.25   0
       146    167.7422    790.8998 307.8463645  +6.3503956     843.7985     1290.692     1673.647     77.69901     155.5217      311.167      1.778     4.54     845.2176      54.8101     110.5679         8     0.863     0.679 -51.60   0
       147    606.7736    785.7379 307.6642412  +6.3672452     917.1317     1206.135     1402.944     77.57518     155.5217     310.8579      1.496     4.26     844.3977      54.8101     162.3763         7     0.910     0.569 -34.07   0
       148    132.9409    784.2705 307.8610378  +6.3519632     1081.393     1642.667     1554.147      78.0693     155.5217     311.0125      1.661     5.11     844.6552      54.8101     147.1792        16     1.373     0.899 -45.93   0
       149    653.7585    793.7203 307.6444636  +6.3655208     6065.188     9357.628     9673.712     77.94606     155.5217     310.9197      1.650     3.85     844.0886      54.8101     857.4713        31     1.463     1.032 -41.22   0
       150    688.8864    783.8386 307.6302084  +6.3707751     2199.127     3651.872     3423.158     77.94606     155.4599     310.9506      1.760     3.94     843.8387      54.8101     271.6764        24     1.466     0.952 -34.89   0
       151    422.6131    780.4434 307.7408888  +6.3632650     51065.21      81412.9     86957.62     77.45116      155.398     310.7032      1.754     3.97     844.7198      54.8101     7219.704        83     1.714     1.263 -39.25   0
       152    158.1676    784.4147 307.8505586  +6.3527513     769.0012     1290.667     1427.955     77.57518     155.2742     310.8579      1.738     4.27     844.9332      54.8101     119.2687         9     1.162     0.630 -48.52   0
       153    913.2195    794.7355 307.5366903  +6.3737659     6119.486     10001.46     11370.39     77.57518     155.5217      310.796      1.770     3.87     841.1912      54.8101     770.1224        35     1.499     1.131 -43.21   0
       154    965.4002    782.2797 307.5154387  +6.3806484     664.4091     910.9022     990.0461     77.20252     154.9023     310.6723      1.624     5.09     839.3036      54.8101     93.70599         8     1.063     0.689 -48.97   0
       155    540.3395    779.4891 307.6920369  +6.3676021     6988.901     10727.38     11057.22     77.82263     155.6453     310.9815      1.682     3.81     844.2534      54.8101     956.6786        35     1.466     1.106 -44.14   0
       156    457.1170    778.2055 307.7266369  +6.3653451     4279.084     6822.866     7814.039     77.57518     155.1504     310.7032      1.768     3.95     844.3943      54.8101     537.7208        29     1.446     1.061 -45.84   0
       157    785.5747    776.1419 307.5903169  +6.3771831     10793.51     17529.54     18778.03     77.57518     155.5217      310.796      1.752     3.91      842.922      54.8101     1356.806        48     1.598     1.210 -41.52   0
       158     14.9645    772.4127 307.9104226  +6.3528914     1078.091     1953.467     1932.819     77.45116     155.3361     310.7341      1.872     6.26     844.2151      54.8101     129.4523        17     1.396     1.044 -29.20   0
       159    453.9351    771.4540 307.7281850  +6.3680260     2238.737     3739.245     4296.565     77.94606     155.4599     310.9197      1.788     4.31     844.2372      54.8101      329.709        23     1.461     0.972 -34.62   0
       160    807.4321    770.3344 307.5814351  +6.3803107     1176.757     1741.524     1789.716     77.82263     155.5835     310.9197      1.627     3.59     842.3794      54.8101     176.7354        11     1.140     0.684 -37.56   0
       161    151.5734    768.3253 307.8538388  +6.3591725     2886.433     4699.123     4933.833     77.57518     155.4599     310.9197      1.749     4.19     844.4893      54.8101     366.0162        27     1.430     1.095 -46.13   2
       162    143.3295    768.0028 307.8572727  +6.3590286     10827.12     17474.39      19346.9     77.45116     155.1504      310.796      1.741     3.92     844.4233      54.8101     1425.769        45     1.613     1.173 -33.12   3
       163    135.4793    765.1731 307.8606276  +6.3599330      2662.75      4867.84     5619.847     77.82263     155.4599     310.9506      1.935     4.04      844.306      54.8101     385.2761        27     1.603     1.072 -34.89   1
       164    979.9695    764.8069 307.5099728  +6.3883482      1358.81      2352.66      2903.54     77.32694     155.3361     310.7341      1.926     4.49     838.5963      54.8101     191.4418        16     1.365     0.855 -45.57   0
       165    931.1624    764.6592 307.5302454  +6.3867821     5780.287     9777.997     11133.26     77.94606     155.5835     310.9506      1.814     4.01     840.3213      54.8101     709.9257        33     1.500     1.117 -44.60   0
       166    686.6028    762.4083 307.6318751  +6.3795468     1609.531     2708.188     2924.462     77.32694     155.2123      310.796      1.801     4.90     843.2774      54.8101     232.7934        14     1.329     0.717 -48.16   0
       167    573.4438    761.4032 307.6788978  +6.3761772     2097.754     3453.231     3597.221     77.32694     155.1504     310.6104      1.772     4.10     843.9178      54.8101     319.5351        21     1.377     1.006 -24.92   0
       168    421.0925    760.9633 307.7421750  +6.3712567     1185.637      1877.82     2069.008      78.0693      155.398     311.0125      1.687     4.90     844.1288      54.8101     161.2761        13     1.199     0.871 -35.64   0
       169    135.4466    758.9686 307.8608503  +6.3624935     1924.276     3172.537     3437.688     77.45116     155.5217     310.8579      1.749     4.07     844.1887      54.8101     268.0392        19     1.383     0.862 -45.89   0
       170    985.3889    756.1440 307.5080119  +6.3921056      1700.92     3079.289     3212.748     77.32694     155.4599     310.6413      1.928     5.26     838.3503      54.8101     230.0718        23     1.587     1.043 -52.66   0
       171    954.8699    756.0071 307.5206899  +6.3911448     2770.978     4632.651     4993.166     77.45116     155.1504     310.8579      1.760     3.74     839.3691      54.8101     356.4611        28     1.426     1.129 -56.38   0
       172    925.4636    756.5886 307.5328818  +6.3899243     2770.953     4671.584     5439.646     77.45116     155.3361     310.7651      1.858     4.30      840.337      54.8101     325.7762        28     1.467     1.107 -34.67   0
       173    677.5849    755.9175 307.6358374  +6.3819253     1481.512      2340.81      2529.23     77.57518     155.2742     310.8269      1.633     4.18     843.0931      54.8101     216.3628        15     1.356     0.688 -48.19   0
       174    825.2599    754.0786 307.5745763  +6.3876175     960.3964     1408.887     1450.959      78.0693     155.5217     310.9197      1.575     5.68     841.8174      54.8101     142.8408        11     1.415     0.642 -42.97   0
       175    250.1719    750.9200 307.8134847  +6.3696701     1721.883     2910.145     3979.832     77.82263     155.4599     310.9197      2.103     4.44      844.939      54.8101       261.97        20     1.521     0.819 -51.49   0
       176    900.0959    751.6727 307.5435804  +6.3911080      652.725     823.4925     1000.277     77.82263     155.6453     310.9197      1.461     5.23     840.6801      54.8101     100.8333         7     1.048     0.739  55.30   0
       177    689.1080    743.1116 307.6314818  +6.3875977     847.1638     1483.756     2256.593     77.94606     155.9538     311.0434      2.901     6.87     842.8126      54.8101     111.4698        13     1.580     0.838 -51.49   2
       178    943.1382    746.3088 307.5258859  +6.3947580     945.6683     1398.308     1652.029     77.94606     155.6453     311.0434      1.664     4.43     839.6407      54.8101     146.1234        11     1.182     0.612 -50.88   0
       179    270.6818    746.6091 307.8051136  +6.3721384     800.0081     1184.937     1294.136     77.57518     155.1504      310.796      1.591     4.95      845.043      54.8101     121.6808         7     1.163     0.598 -75.45   0
       180    969.7286    744.1414 307.5149163  +6.3965393     2134.799     3660.354     3862.816      78.0693     155.5217     310.9506      1.798     4.30     838.7415      54.8101     269.4339        22     1.457     0.985 -43.10   0
       181    165.9774    746.0620 307.8486083  +6.3688482     799.8839      1012.47     831.4006     77.57518     155.5217     310.8579      1.366     4.11     844.0287      54.8101     118.7571         7     0.942     0.512 -41.73   0
       182    916.7192    745.0117 307.5369002  +6.3944126     984.4812     1444.805     1299.397     77.57518     155.2742      310.796      1.523     3.88     840.2764      54.8101     131.9395        12     1.065     0.797 -38.11   0
       183    409.8643    738.3076 307.7475990  +6.3802342     601.0055     977.7049     1248.259     77.94606      155.707     311.0125      1.656     4.54      843.489      54.8101     83.69531         8     1.150     0.509 -53.64   0
       184   1011.4327    737.4160 307.4978227  +6.4007059      1741.39     2722.661     2621.919     77.57518     155.2742     310.8269      1.676     3.90     837.3879      54.8101     217.4536        15     1.191     0.812 -54.67   0
       185    812.9535    735.9934 307.5802922  +6.3946737     1061.888     1924.367     1975.057     77.45116     155.3361     310.6104      1.968     6.04     841.5861      54.8101     148.8136        18     1.533     0.859 -47.99   0
       186    480.4480    738.1610 307.7182944  +6.3826598     541.9543     805.2628     342.7585     77.82263     155.5835      310.796      1.569     3.50     843.3826      54.8101     88.24146         5     1.256     0.282 -35.65   0
       187    637.2142    736.8710 307.6532402  +6.3884393     746.7454      1117.21      1093.35     77.45116      155.398     310.8579      1.834     4.50     843.1124      54.8101     121.6675         7     1.163     0.495 -38.79   0
       188    899.1469    733.3685 307.5445869  +6.3986337     1414.577     2464.125     2648.203     77.82263     155.5835     310.8579      1.850     4.33     840.3271      54.8101     169.6332        19     1.294     1.088 -39.65   0
       189    873.2780    728.6248 307.5554882  +6.3997294     795.8142     1367.486     1660.953     77.57518      155.398     310.9197      1.806     5.09     840.6864      54.8101     120.6793        10     1.225     0.598 -37.53   0
       190    855.9406    724.5907 307.5628228  +6.4008165     1500.814     2364.026      2442.41     77.32694      155.398     310.6723      1.763     4.76     840.8593      54.8101     208.8628        16     1.280     0.832 -43.09   0
       191     55.0547    723.2527 307.8954353  +6.3745362     2418.115     3734.036     4157.566     78.19234     155.4599     310.9197      1.705     4.41     843.4956      54.8101     322.9424        25     1.650     0.889 -41.92   0
       192    118.9733    722.1886 307.8689305  +6.3771249     891.0941      2074.46      2199.77     77.57518     155.3361     310.8888      2.264     7.47     843.3734      54.8101     118.7675        19     1.730     0.945  78.49   0
       193    667.8539    712.0262 307.6413501  +6.3997216      5918.99     9628.288     10583.74     77.57518     155.6453     310.8269      1.728     3.87      842.066      54.8101     777.1272        36     1.592     1.063 -37.18   0
       194    525.3372    711.5141 307.7005491  +6.3951648     818.6455     1271.309     1799.514      78.0693     155.6453     310.9506      1.777     5.71     842.6813      54.8101     99.25848        11     1.669     0.550 -49.60   0
       195    614.6191    711.2458 307.6634827  +6.3982635      1391.15     2357.859     2336.021     77.57518      155.398     310.7341      1.732     4.07     842.5922      54.8101     197.4324        14     1.189     0.858 -40.29   0
       196   1004.7247    707.3706 307.5016125  +6.4128876     2485.205     3883.326     3988.365     77.82263     155.5835     310.9506      1.680     4.00     837.7288      54.8101     318.3461        20     1.346     0.925 -41.06   0
       197    641.5249    707.6360 307.6524308  +6.4006538     2138.275     3288.431     4112.744     77.82263     155.5835     310.9815      1.653     3.97     842.2255      54.8101     265.1207        21     1.360     0.965 -43.20   0
       198    130.6964    707.7850 307.8645482  +6.3834656     3483.691      5737.59     5960.503     77.69901     155.2742     310.7341      1.746     4.18     842.9913      54.8101     491.5431        27     1.481     1.043 -36.70   0
       199    317.0660    707.9581 307.7871539  +6.3896526     557.1096     1017.231     567.0051     77.94606     155.4599     311.0125      1.596     4.67     843.2957      54.8101     91.94818         7     1.144     0.542 -39.46   0
       200    784.6080    704.1002 307.5931313  +6.4068953     18851.53     30086.13     32120.09     77.69901     155.1504      310.796      1.706     3.79     841.0127      54.8101     2518.189        54     1.619     1.172 -36.58   0
       201    511.5515    704.5552 307.7065074  +6.3975764     703.1953      1209.12     1142.452     77.94606      155.398     310.9506      1.707     5.64     842.5266      54.8101     163.8107        11     1.612     0.557 -38.13   0
       202    914.6890    703.7473 307.5391236  +6.4113822     3246.416     5407.012     4976.796     77.94606     155.3361     311.0743      1.762     3.82     839.2546      54.8101     407.0325        28     1.430     1.058 -49.50   0
       203    483.6581    704.2411 307.7181010  +6.3967719     1196.484     2033.619     2237.246     77.94606     155.5217     311.0125      1.757     4.71     842.6232      54.8101     173.5038        15     1.455     0.818 -48.44   0
       204    328.8236    704.1254 307.7824005  +6.3916295     576.0396     1187.723     1045.494     77.57518     155.3361     310.8888      2.017     5.26     843.0664      54.8101     137.4469         6     1.516     0.516 -54.52   0
       205    258.0198    697.7040 307.8120179  +6.3919046      5806.93     9276.885     9592.225     77.82263     155.3361     310.7651      1.725     3.92     842.8721      54.8101     737.2367        35     1.579     1.037 -41.10   0
       206    665.0668    696.9238 307.6430139  +6.4058638     6551.342     10385.65     10728.06      78.0693     155.5835     310.9197      1.700     3.91     841.6986      54.8101     849.0643        36     1.502     1.090 -38.91   0
       207    647.7219    697.8100 307.6501870  +6.4049180     876.3964     1498.153     1638.383     77.57518     155.2123     310.8269      1.879     5.64     841.8848      54.8101       142.88        10     1.170     0.767 -29.40   0
       208    360.5558    696.8268 307.7694692  +6.3957072     628.4219     883.0352     809.5137     77.57518     155.5835     310.8579      1.446     5.04     842.6481      54.8101     81.37085         7     1.174     0.613 -53.03   0
       209    925.0903    689.6471 307.5352758  +6.4175507     1103.382     1741.253     1288.436     77.94606      155.398     311.0743      1.605     6.12      838.593      54.8101     165.1775        13     1.450     0.725 -56.22   0
       210    736.8777    685.4354 307.6135779  +6.4130073     3199.689     5496.345     6305.512     77.82263     155.5835     310.9815      1.829     3.96      840.713      54.8101     429.2229        30     1.502     1.141 -52.52   0
       211    691.9562    685.8381 307.6322192  +6.4113398     1032.566     1773.818     1902.257     77.69901     155.5217      310.796      1.758     3.76      841.164      54.8101     167.4163        11     1.130     0.694 -34.28   0
       212   1003.1580    681.9604 307.5031124  +6.4233268     8017.987      13310.7     14174.65     77.69901     155.5217     310.8269      1.763     3.86     837.8661      54.8101      992.418        39     1.577     1.169 -45.94   0
       213      2.2384    684.4456 307.9186759  +6.3887809     607.9457     765.8124     751.8409     76.70283     136.4232     248.1972      1.486     4.56     842.5101      54.8101     104.0026         7     1.019     0.843 -25.60  24
       214    941.6747    682.3680 307.5286320  +6.4211092     2219.006     3417.463     3343.749     77.82263     155.5835     310.9197      1.659     4.52     838.1693      54.8101     292.8318        20     1.441     0.879 -40.46   0
       215     22.2318    681.7041 307.9104665  +6.3905856     1790.247     3303.803     4059.785      78.0693     155.3361     311.0434      2.094     4.39      842.448      54.8101     299.8998        21     1.653     0.888 -21.36   0
       216    556.2460    679.6738 307.6887828  +6.4093456     640.5566     1084.267     1417.329     77.82263     155.5835     310.9506      1.778     4.40     841.5707      54.8101     85.49762         7     0.959     0.574 -56.05   0
       217     80.4514    676.6711 307.8864612  +6.3946220     24256.01     39120.84     41586.64     77.82263     155.5217     310.9815      1.760     3.94     842.3044      54.8101     3363.478        59     1.627     1.228 -41.70   0
       218    541.7480    677.7220 307.6948690  +6.4096661     2004.599     3059.434     3526.571     77.94606     155.5835     310.9506      1.741     4.79     841.5058      54.8101     290.9938        20     1.500     0.868 -38.28   0
       219    510.4924    675.0438 307.7079384  +6.4097254     1238.272     1926.194     1567.042     77.94606     155.4599     311.0743      1.617     4.63     841.7175      54.8101     173.4046        14     1.313     0.806 -42.56   0
       220    931.7458    674.0437 307.5330338  +6.4242150     928.3381     1563.579     1245.724     77.94606     155.5217     310.9506      1.657     6.23     837.9798      54.8101     123.4418        11     1.122     0.973 -30.88   0
       221    550.8714    671.4352 307.6912914  +6.4125671     1011.794     1412.227     1281.771     77.82263     155.5217     310.9506      1.562     4.13     841.3036      54.8101     126.2894        11     1.035     0.731 -71.22   0
       222    726.4385    668.9835 307.6184644  +6.4194511      3445.38     5491.375     6022.921     77.57518      155.398     310.7341      1.687     3.99     840.3071      54.8101     460.9105        30     1.465     1.109 -42.50   0
       223    748.6096    667.1595 307.6093183  +6.4209449     3939.402     6479.147     6206.782     77.32694     155.3361     310.6723      1.735     4.23     840.0939      54.8101     545.5763        30     1.554     1.053 -41.12   0
       224    580.0164    665.2424 307.6793961  +6.4160994     3167.135     4775.748     4777.088     77.45116     155.3361     310.7341      1.592     3.63     841.3026      54.8101     424.7396        25     1.353     0.990 -37.25   0
       225   1021.3414    663.4104 307.4961810  +6.4315916     4540.409     7317.739     7324.091     77.32694     150.9419     268.0119      1.731     4.05     837.5659      54.8101     536.1996        31     1.457     1.100 -49.61  24
       226    415.7997    665.7387 307.7475741  +6.4103947      1242.61     1738.982     1943.691     77.20252     155.2742     310.6413      1.588     4.86     841.5557      54.8101     173.5944        14     1.204     0.884 -26.78   0
       227    240.3523    664.7429 307.8204644  +6.4049199     1620.753     2600.521     2834.658     77.94606     155.5217     311.0743      1.689     4.19     841.5878      54.8101     234.7258        19     1.391     0.879 -33.56   0
       228    324.2196    664.0500 307.7856610  +6.4080208     1393.966      2246.68     2447.512     77.45116     155.5835      310.796      1.752     4.50     841.4883      54.8101     204.2819        15     1.332     0.764 -45.85   0
       229    986.7553    662.3561 307.5105796  +6.4308745     7604.574     12218.31     12365.89     77.94606     155.5217     310.9197      1.719     3.92     837.5517      54.8101     920.3312        35     1.540     1.077 -37.86   0
       230    706.5635    661.2170 307.6269786  +6.4219935     973.5325     1594.278     1690.379     77.45116      155.398     310.7341      1.772     4.61     840.3692      54.8101     164.6847        10     1.127     0.640 -46.11   0
       231     98.1239    659.1731 307.8797130  +6.4024405     694.6786     1150.053     845.9656     77.82263     155.4599     310.9197      1.907     6.36     842.1051      54.8101     101.7162        10     1.244     0.913 -51.76   0
       232    145.2204    655.6336 307.8602754  +6.4054850     22897.28      36641.1     38587.81     77.45116     155.3361      310.796      1.720     3.94      841.704      54.8101     3088.546        56     1.640     1.191 -38.16   0
       233    432.1255    656.4893 307.7411054  +6.4147607     2643.429     4481.594     5004.612     77.94606     155.8304     311.0125      1.895     4.11     841.3342      54.8101     335.6127        26     1.523     0.998 -50.46   0
       234    813.4008    656.3799 307.5827724  +6.4275594     1160.828     1846.878     2392.856     77.57518     155.1504     310.6723      1.797     5.19     839.6257      54.8101     172.5791        12     1.300     0.673 -54.86   0
       235    883.1592    655.7587 307.5538232  +6.4301440      1315.21     1260.212     893.7681     77.69901     155.5217     310.8269      0.619     1.08     838.8561      54.8101     707.5437         5     0.531     0.363 -82.85   0
       236    364.7588    650.5844 307.7692794  +6.4149402     735.1247     1083.302     539.1614     77.45116     155.2742     310.7341      1.562     4.96     841.0759      54.8101     94.17334         9     1.151     0.606 -35.09   0
       237    981.7863    645.2161 307.5132163  +6.4377856     6098.994     10934.77     11670.07     77.69901     155.2123     310.8888      1.896     3.96     836.9938      54.8101     764.8528        43     1.570     1.394 -24.95   0
       238    575.2713    640.4805 307.6821978  +6.4261642     46767.04     72638.23     76580.02     78.19234     155.8304     310.9815      1.710     3.80     840.9921      54.8101     6197.007        74     1.663     1.214 -39.49   0
       239     26.3188    644.1858 307.9100357  +6.4062128     1051.072     1603.653     1458.097     77.57518     155.2742     310.7651      1.614     5.69     842.1568      54.8101     133.9954        12     1.209     0.755 -31.08   0
       240    219.1793    642.3414 307.8300112  +6.4134576     533.7443     943.7912     1009.779     77.57518      155.398     310.7651      1.760     5.92     840.9444      54.8101     94.38141         8     1.213     0.812 -13.29   0
       241    940.0119    641.4222 307.5306921  +6.4379595     680.9156     835.2652     27.12819     77.57518     155.3361     310.8579      1.525     4.24     836.8757      54.8101     97.21423         8     0.928     0.713  79.36   0
       242    534.4979    640.4495 307.6991314  +6.4248121     753.6489      1009.43     779.7759     77.94606     155.4599     311.1052      1.477     4.64     841.0093      54.8101     106.9126         8     1.149     0.531 -53.35   0
       243    182.8138    637.2167 307.8452852  +6.4143519      2569.09     3955.712     4374.164     77.69901     155.2123     310.8888      1.663     4.01     841.0247      54.8101     348.0815        23     1.374     1.010 -32.82   0
       244    985.9910    637.0751 307.5117422  +6.4412870     582.8537     665.5043     988.6869     77.57518     155.1504      310.796      1.089     4.11     836.7289      54.8101     102.8304         7     0.918     0.525 -48.37   0
       245     75.3491    631.4394 307.8901058  +6.4131247     1250.499     1981.013     2064.846     77.69901     155.5217     310.9506      1.569     4.65     841.9922      54.8101     167.0652        13     1.272     0.714 -47.67   0
       246    472.4956    624.2683 307.7254236  +6.4294164     59995.03     94280.09     99689.16     77.82263     155.6453     310.9815      1.702     3.83     840.8431      54.8101     8242.489        83     1.691     1.225 -40.86   0
       247     16.1776    625.8184 307.9148668  +6.4134546     1685.704     2813.851     3402.771     77.69901     155.4599     310.8888      1.897     4.21     842.1597      54.8101     223.9537        18     1.314     0.927 -43.62   0
       248    658.7827    621.5049 307.6481531  +6.4367923     704.0602     1145.414     800.1459     77.82263     155.3361      310.796      1.529     3.04     840.2107      54.8101     159.4088         6     1.106     0.784 -19.69   0
       249    146.9065    619.4268 307.8607959  +6.4204901     1709.164     2606.408     2033.285      78.0693     155.2742      310.796      1.540     3.99     841.0098      54.8101     231.4244        17     1.380     0.773 -48.43   0
       250    425.9891    617.2451 307.7449731  +6.4307577     999.5624     1718.163     1926.254     77.45116      155.398     310.6723      1.770     6.44     840.1707      54.8101     154.1838        15     1.656     0.702 -52.24   0
       251    618.6217    616.2888 307.6650068  +6.4376027      935.752     1454.344     1091.394     77.94606     155.3361     310.8579      1.660     5.96     840.5913      54.8101     127.2094        12     1.175     0.851 -18.86   0
       252    318.0089    613.5845 307.7899385  +6.4286480     1905.631      3100.76     3433.785     77.69901     155.2742     310.8269      1.806     4.98     839.9412      54.8101     252.0122        20     1.555     0.965 -50.70   0
       253     18.8659    615.2215 307.9141082  +6.4179201     665.0897     1062.697     1596.588     77.57518     155.5217     310.8888      1.709     5.16     842.1371      54.8101     95.58411         9     1.355     0.556 -48.37   0
       254    470.0249    612.0129 307.7268614  +6.4343936     801.3207     1218.779     1763.467     77.69901     155.3361     310.8888      1.642     5.60     840.5532      54.8101     103.7921        10     1.324     0.668 -47.68   0
       255    744.5359    607.8195 307.6129987  +6.4453090     5108.827     8006.918     8353.244     77.57518     155.5217      310.796      1.649     3.79     838.8434      54.8101     675.9838        31     1.485     1.069 -35.94   0
       256    798.1693    603.0663 307.5908837  +6.4490629     13316.23     20973.75     22372.48     77.69901     155.5217     310.8888      1.683     3.78     838.4737      54.8101     1753.329        46     1.566     1.129 -41.84   0
       257   1015.5514    603.6347 307.5005834  +6.4560790     963.5558     1343.035     677.2468     77.82263     155.5217     310.8888      1.384     3.47     835.4518      54.8101     184.3019        11     1.210     0.587 -39.78   0
       258    540.6138    602.4622 307.6978673  +6.4407008     1230.123     2041.888     2445.827     77.45116     155.3361     310.7651      2.025     7.49     840.3007      54.8101     165.6146        18     1.738     0.902 -74.09   0
       259     42.8376    602.1122 307.9045961  +6.4241390     557.4376     919.3068     549.6344     77.94606      155.398     310.9506      1.453     6.10     841.9339      54.8101     78.26941         8     1.370     0.764 -37.36   0
       260    621.9743    601.0312 307.6641265  +6.4440143     2769.822     4491.753     4294.263     77.45116     155.2742      310.796      1.658     4.01     839.9617      54.8101     389.9527        21     1.369     0.946 -40.00   0
       261    939.3658    597.2617 307.5324375  +6.4561710     1063.642     1852.675     2399.195     77.82263     155.5835     310.9197      2.010     6.31     835.5221      54.8101     129.0054        17     1.247     1.060 -82.90   0
       262    197.4083    596.0259 307.8406126  +6.4318483     741.8514     1179.667     1192.569     77.57518     155.3361      310.796      1.639     5.65     839.9854      54.8101     122.2902         9     1.324     0.680 -54.53   0
       263    234.4095    594.9650 307.8252825  +6.4335291     1166.246     1810.107     2348.603     77.45116     155.2742     310.7341      1.631     4.66     839.5781      54.8101     184.4423        11     1.215     0.668 -36.91   0
       264    379.9637    595.0057 307.7648347  +6.4383967     769.0402     1423.654     1725.888      77.0779     155.2742     310.7651      1.950     4.48     839.2066      54.8101     134.1312         7     0.940     0.606 -60.00   0
       265    874.1059    586.3313 307.5599067  +6.4585071     2683.139     4247.601     4697.813     77.82263     155.6453     310.9815      1.694     4.26     836.7037      54.8101     336.3411        21     1.384     0.919 -35.49   0
       266    833.0203    583.8270 307.5770541  +6.4581699     2460.998     3864.861     4091.566     77.45116     155.2742     310.8269      1.629     3.85     837.3533      54.8101     305.6779        20     1.334     0.903 -34.16   0
       267    169.3393    585.6893 307.8526174  +6.4351729     608.7032     949.6265     983.0491     77.82263     155.6453     310.9815      1.538     3.78     840.2147      54.8101     113.2457         5     0.972     0.421 -12.63   0
       268    803.7921    579.6481 307.5893329  +6.4589195     2547.748     4222.488     5404.552     77.45116      155.398     310.6104      1.922     3.66     837.7083      54.8101     393.9523        24     1.491     0.966 -41.88   3
       269    813.4904    574.9393 307.5854628  +6.4611875     152159.9     236989.6     251799.8     77.82263     155.6453     311.0125      1.687     3.88      837.383      54.8101     20430.89       136     1.734     1.351 -42.46   2
       270    260.8425    578.6846 307.8148537  +6.4411382     7282.574     11480.45     11831.48     77.94606      155.398     310.9197      1.677     3.77     838.9764      54.8101     902.7094        38     1.561     1.073 -37.93   0
       271    746.8384    579.8909 307.6129785  +6.4569170     563.7298      1114.31     1691.401      78.0693     155.4599     310.9815      1.933     4.71     837.8834      54.8101      124.933         6     1.318     0.496 -15.25   0
       272    195.0738    573.1842 307.8423518  +6.4412004     54578.68     88909.98     95771.45     77.45116     155.2742     310.8269      1.726     3.92     839.6474      54.8101     7186.037        94     1.783     1.295 -40.31   0
       273    119.1342    569.4854 307.8740130  +6.4401753     5902.287     9471.211     9647.502      78.0693      155.707     311.0125      1.758     3.96     840.6047      54.8101     726.9886        35     1.642     1.021 -34.86   0
       274    984.5866    566.7039 307.5146784  +6.4702952     1221.144     2009.999       2013.4     77.69901     155.2742     310.7341      1.853     4.99     833.6253      54.8101     172.1942        14     1.317     0.803 -41.33   0
       275    233.5310    564.5875 307.8266707  +6.4460414     722.4849     1274.352     1572.529     77.45116     155.3361     310.8269      1.871     5.79     838.8895      54.8101     113.1426         9     1.279     0.914 -52.89   0
       276    850.0797    562.2840 307.5706903  +6.4676340     4196.388     6525.702     6899.698     77.82263     155.8304     311.0434      1.620     3.86      836.133      54.8101     560.3157        27     1.481     0.946 -44.76   0
       277    368.4493    560.3532 307.7707823  +6.4523174     16216.67     25746.72     27241.54     77.94606      155.398     311.0125      1.739     3.89     837.7812      54.8101     2244.101        52     1.635     1.168 -40.94   0
       278    458.5835    560.1208 307.7333571  +6.4554349     714.8459     957.6996     1030.947     77.57518     155.2742     310.8579      1.651     4.33     838.1729      54.8101     95.76562         7     1.163     0.459 -40.56   0
       279    170.3933    559.2693 307.8530703  +6.4461160     1816.863     2979.342     4108.452     77.45116     155.0884     310.8269      2.186     4.37     839.8872      54.8101     250.0269        18     1.375     0.830 -43.21   2
       280    245.0549    557.0334 307.8221394  +6.4495472     661.5132      1251.17     1479.077     77.82263     155.5217     310.9197      2.213     5.45      838.551      54.8101     117.9634         8     1.222     0.839 -34.17   0
       281    804.0374    555.5386 307.5900387  +6.4688820     5593.763     8637.567     9073.789     77.94606     155.5835     310.9506      1.660     3.86     836.9585      54.8101     734.9387        32     1.509     1.039 -40.28   0
       282    534.8357    555.2404 307.7018529  +6.4600040     6101.341     9410.318     9686.976     77.69901     155.5217      310.796      1.648     3.88     838.1398      54.8101     834.3785        35     1.526     1.085 -41.59   0
       283    107.3643    556.9819 307.8793225  +6.4449417     865.3083      1531.15     1464.014     77.45116     155.3361     310.7341      1.900     2.83     840.4759      54.8101     166.0125        10     1.041     0.688 -17.73   0
       284    393.2697    551.9890 307.7607557  +6.4566031     1333.542     2323.403     2471.471     77.45116     155.3361      310.796      1.908     4.97     837.4622      54.8101     185.3684        17     1.338     0.907 -41.99   0
       285    181.8179    548.4172 307.8486916  +6.4509803     6414.049     10211.92     11183.27     77.69901     155.2123     310.8888      1.723     3.79     839.5165      54.8101     824.3345        34     1.517     1.062 -43.65   0
       286    579.4164    548.3915 307.6835679  +6.4643240     2272.963     3995.583     4557.216     77.69901     155.2742      310.796      1.867     4.79     837.2293      54.8101     289.5018        27     1.697     0.988 -28.79   0
       287     53.4757    547.1403 307.9020336  +6.4471924     4879.236      7976.47     8228.052     78.19234     155.5217     310.9197      1.790     3.65      841.063      54.8101     654.7651        35     1.535     1.127 -40.50   0
       288    820.5057    547.8358 307.5834570  +6.4726122     1462.713     1998.864     2328.706      78.0693      155.398     311.0434      1.586     4.76      836.275      54.8101     195.2908        13     1.066     0.813 -49.20   0
       289    277.0945    544.8593 307.8092435  +6.4556491     80905.78     131052.3     139800.5     77.82263     155.5217     311.0434      1.724     3.93     837.6983      54.8101     10715.18        99     1.734     1.300 -38.77   0
       290    566.4802    542.4124 307.6891413  +6.4663596     956.0173     1517.427     2241.202     77.57518     155.2123      310.796      1.869     5.77     837.1683      54.8101     126.7092        12     1.193     0.848 -39.84   0
       291    260.8532    540.0715 307.8161497  +6.4570806     1375.384     2279.649     868.4969     77.82263     155.4599     310.8888      1.618     4.45     837.7945      54.8101     208.2263        18     1.438     0.838 -42.16   0
       292    976.7637    538.7972 307.5188606  +6.4815566     1410.201     2258.228     2079.118      77.0779     155.3361     310.7651      1.575     3.56     832.6833      54.8101     214.4447        14     1.161     0.782 -52.21   0
       293    800.2382    537.3094 307.5922272  +6.4762815     15487.43     23961.78     25002.36      78.0693     155.4599     310.9815      1.695     3.77     836.4404      54.8101     2045.037        48     1.599     1.133 -35.57   0
       294    503.8603    535.6831 307.7153744  +6.4670413     37788.05     65064.19     70136.91      78.0693     155.5835     310.9815      1.879     4.01     837.2533      54.8101     4814.614        81     1.793     1.375 -27.78   0
       295    654.0740    534.8222 307.6530166  +6.4724240     890.4504     1560.776     1821.135     77.57518     155.3361     310.8888      1.953     5.41     836.2304      54.8101     121.6056        13     1.302     0.847 -24.20   0
       296    216.1172    532.0518 307.8349987  +6.4588893     1947.135     2985.204      3029.39     77.94606     155.5217     311.0125      1.578     3.84     838.5396      54.8101     236.4962        21     1.284     1.072 -37.23   0
       297     51.6366    532.3089 307.9032979  +6.4532538     1297.881     2051.377     2762.572      78.0693     155.4599     310.9815      1.785     4.69     840.8713      54.8101      157.686        16     1.211     0.949 -26.49   0
       298    663.7867    530.7335 307.6491198  +6.4744369     2659.784     4429.059     5060.509     77.45116     155.3361     310.8579      1.804     4.19      836.136      54.8101     358.3632        24     1.499     0.967 -41.84   0
       299    726.5905    529.6455 307.6230721  +6.4769856     1133.742     2099.264     2375.496     77.45116      155.398     310.6413      2.016     6.18     836.0315      54.8101     164.4971        16     1.514     0.848 -37.37   0
       300    674.1909    530.5856 307.6448036  +6.4748459     1336.537     2101.783     2583.747     77.69901     155.2742     310.8579      1.560     4.22     836.1531      54.8101     227.3161        14     1.344     0.669 -38.09   0
       301     82.9432    528.2520 307.8904335  +6.4559818     638.3623      1108.52     1018.497     77.94606     155.5217     310.9506      1.461     4.99      840.377      54.8101     97.63519         9     1.321     0.534 -69.82   0
       302    401.2948    526.3050 307.7582866  +6.4674762     1579.585     2501.866     2790.541     77.94606     156.1386     310.8579      1.798     5.06     836.4014      54.8101     232.2979        16     1.462     0.755 -37.22   0
       303    332.8953    524.6176 307.7867506  +6.4658789     3670.081     5967.996      5949.14     77.82263     155.3361     310.7651      1.701     3.98     836.3551      54.8101     481.3203        30     1.472     1.076 -39.97   0
       304    148.1788    523.2370 307.8635106  +6.4602458      23762.6     38743.66      40523.1     77.57518     155.2742     310.7032      1.743     3.87     839.5705      54.8101     3062.735        62     1.686     1.193 -41.86   0
       305    876.1934    523.3801 307.5611470  +6.4845680      1585.26     2431.061     2967.393     77.57518     155.2742     310.7651      1.882     4.43     834.0967      54.8101     208.2979        18     1.396     0.853 -42.70   0
       306    512.9818    524.1357 307.7119741  +6.4721144     1950.357     3045.715     3490.291     77.57518     155.5217      310.796      1.774     3.60     836.6843      54.8101     267.8372        20     1.205     0.989 -41.68   0
       307    113.2309    521.4541 307.8780845  +6.4598069     2485.387     3998.684     4386.416     77.82263     155.5835     310.8888      1.830     3.71     839.9487      54.8101     339.9491        25     1.365     1.066 -46.39   0
       308    973.7747    517.8394 307.5208029  +6.4901101     4787.469     7423.103     8122.938     77.57518     155.3361     310.7651      1.644     3.65     832.3696      54.8101     617.1279        29     1.397     1.059 -42.48   0
       309    349.9827    519.7413 307.7798181  +6.4684654     955.9408     1574.832     1701.782     77.57518      155.398     310.7341      1.701     4.88     836.0736      54.8101     143.1167        11     1.159     0.791 -52.03   0
       310    546.7562    510.3990 307.6984082  +6.4789168      1327.06     2034.092      2209.67     77.32694     155.2123     310.5794      1.598     4.80     835.9974      54.8101     209.8483        14     1.272     0.809 -34.95   0
       311     12.4569    507.5583 307.9204044  +6.4621537     23948.88     38045.89     41174.13     77.82263     155.5217     310.9815      1.758     3.80     840.9623      54.8101     3303.049        63     1.650     1.238 -38.80   0
       312    445.1899    504.3688 307.7407939  +6.4780044     39920.42     63614.35     67702.13     77.45116     155.2742      310.796      1.720     3.76     835.6342      54.8101     5393.813        74     1.683     1.229 -38.49   0
       313    653.2063    504.0798 307.6544083  +6.4850877     11730.11      18329.8     19183.03     77.57518     155.0884     310.7032      1.665     3.75     835.3337      54.8101     1561.671        43     1.538     1.125 -41.78   0
       314    293.0723    504.6664 307.8039612  +6.4727797      1049.92      1759.59     1310.551     77.94606     155.5835     310.9815      1.655     5.87     835.5095      54.8101     134.1547        14     1.451     0.736 -31.95   0
       315    210.3842    501.9243 307.8383949  +6.4711352      17461.8     30095.76     31693.34     77.45116     155.2742     310.8269      1.833     3.78     838.1105      54.8101     2139.473        57     1.649     1.311 -36.65   0
       316    987.0020    502.8638 307.5158098  +6.4967341     1007.083     1888.281     1891.143     77.32694     155.2742     310.7341      2.072     6.17     831.7877      54.8101     124.9901        14     1.418     0.755 -49.63   0
       317    176.0867    502.9668 307.8526038  +6.4695525     1497.153     2302.072      2366.09     77.94606      155.398     310.9506      1.519     4.75     838.7184      54.8101     209.0365        18     1.506     0.815 -34.12   0
       318      1.3055    501.4545 307.9252416  +6.4642983     779.7761     1665.394     2677.322     67.36071     123.1655     233.6737      2.973     6.17     840.9174      54.8101     171.7811        13     1.995     0.537  86.13  24
       319    915.8951    501.6694 307.5453838  +6.4948564     637.5161      1018.46     1097.774     77.82263     155.5835     310.9815      1.489     5.55     833.0626      54.8101     104.0898         8     1.551     0.560 -50.75   0
       320    827.6677    501.6065 307.5820307  +6.4919383     943.1498     1261.318     1317.735     77.45116     155.2742     310.7651      1.563     5.90     834.4951      54.8101       140.86        11     1.223     0.799 -51.93   0
       321    575.0010    500.8570 307.6869978  +6.4838019     2836.526     4518.743     4360.421     77.32694     155.2123     310.6413      1.677     3.85      835.298      54.8101     397.4128        22     1.372     0.947 -41.18   0
       322    948.9606    498.0075 307.5317727  +6.4974710     4473.563     7223.495     7455.324     77.32694     155.2742     310.6723      1.681     3.73     832.4493      54.8101     590.2783        30     1.520     1.021 -41.11   0
       323    622.0134    496.3652 307.6676227  +6.4872296      5944.81     9488.615      10001.5     77.45116     155.3361     310.8269      1.704     3.89     834.8796      54.8101     760.8037        37     1.566     1.108 -46.14   0
       324    109.7732    497.0993 307.8803420  +6.4697458     1024.542     1667.661      904.832     77.94606     155.2742     310.8579      1.715     5.68     839.7673      54.8101     126.8167        12     1.292     0.807 -39.13   0
       325    971.4133    490.3629 307.5227026  +6.5013758     3216.743     5080.327     5526.764     77.45116     155.3361     310.6723      1.700     3.76     831.8521      54.8101     457.0339        26     1.419     1.024 -40.89   0
       326    534.2494    487.6608 307.7043664  +6.4878860     6933.701     11038.57     11978.63     77.94606     155.4599     311.0125      1.723     3.93     834.9775      54.8101     929.9999        33     1.522     1.039 -39.94   0
       327    380.2031    487.9024 307.7683382  +6.4826242     2524.105      3853.43     4264.283     77.69901     155.2123     310.6413      1.609     3.62     834.7602      54.8101     360.3851        21     1.376     0.876 -36.83   0
       328    890.7673    483.5982 307.5564254  +6.5014794     3073.491     4690.125     5895.835     77.20252     155.3361     310.7341      1.728     3.88     832.4913      54.8101     418.1482        21     1.383     0.871 -41.62   0
       329    409.9176    489.0173 307.7559596  +6.4831602     710.5095     992.0594     1596.984     77.57518     155.2123     310.8888      1.507     5.23     834.9318      54.8101     99.45612         8     1.146     0.675 -21.70   0
       330    238.4797    483.1063 307.8273605  +6.4798481     670.7186     860.1188     747.8394     77.69901      155.707     311.0125      1.427     4.31     836.8987      54.8101     116.5003         6     0.885     0.758 -21.16   0
       331    898.1847    477.9548 307.5535335  +6.5040569     2063.028     3122.489     3957.797     77.45116     155.3361     310.7341      1.647     3.81     832.2341      54.8101     281.1458        15     1.315     0.681 -39.24   0
       332    937.5648    477.2811 307.5371993  +6.5056485     1217.798     1911.999     1884.797     77.82263     155.5835     310.9506      1.663     4.18     831.9225      54.8101     195.2932        13     1.292     0.762 -53.11   0
       333    116.5597    476.3027 307.8782250  +6.4785600     737.9647     1182.083     512.0414     77.94606      155.398      311.167      1.813     6.92     839.3544      54.8101      126.553        11     1.391     0.966  59.36   0
       334    722.1341    473.9303 307.6267910  +6.4998401     2843.336      4453.38     4838.634     77.94606     155.5835     310.9506      1.668     3.94     833.7825      54.8101     382.9934        20     1.388     0.842 -42.35   0
       335    393.0817    472.0936 307.7635212  +6.4895830     3635.225     5898.782     6347.555     77.69901     155.7687     311.0434      1.732     3.64     834.2837      54.8101     497.0754        29     1.458     1.073 -50.34   0
       336     83.9887    472.7975 307.8918704  +6.4789118     1778.814     2615.041     2974.473     77.57518     155.2123     310.7651      1.561     3.91     839.8176      54.8101     238.7473        19     1.370     0.829 -43.09   0
       337    432.6782    472.5893 307.7470589  +6.4907058     1045.058     1638.781     2097.197     77.57518     155.1504     310.8269      1.864     4.34     834.3668      54.8101     141.3711        13     1.156     0.778 -36.67   0
       338    620.7146    468.6408 307.6690927  +6.4986328     9483.895     14663.13     15577.83     77.94606     155.4599     310.9197      1.686     3.71     833.9948      54.8101      1342.01        42     1.591     1.059 -43.73   0
       339    783.6248    464.9483 307.6015519  +6.5056030     15066.41     24430.23     27519.27     77.57518     155.5217     310.8579      1.795     4.47     833.5532      54.8101     2160.276        57     2.103     1.068 -47.23   0
       340    303.2436    465.2790 307.8010630  +6.4893827     2399.724     3881.686     3472.218     77.94606     155.5217     310.9506      1.714     4.21     833.9464      54.8101     299.9757        23     1.471     0.901 -45.39   0
       341    427.1474    464.6841 307.7496218  +6.4937842     594.9429     924.4414      1380.46     77.94606     155.4599     311.0434      1.591     4.71     834.1234      54.8101     129.4969         6     1.431     0.440 -41.83   0
       342    812.0369    462.2071 307.5898427  +6.5076836     1121.382     1859.266     1941.611     77.20252     155.3361     310.7341      1.779     6.48     833.2153      54.8101     151.4968        14     1.390     0.848 -23.65   0
       343    734.1946    463.2560 307.6221396  +6.5046503     446.0949     782.8673     899.5142     77.45116      155.398     310.6723      1.691     5.39      833.183      54.8101     71.27631         7     1.300     0.629 -16.12   0
       344    386.1012    462.0090 307.7667597  +6.4935125     1488.942     2525.234     2980.405     77.69901     155.1504     310.7651      1.749     4.29     833.9885      54.8101       234.26        18     1.425     0.856 -49.82   0
       345    968.4647    460.2972 307.5249329  +6.5136911     2056.618      2899.47     2735.806     77.94606     155.5835     310.9815      1.511     3.54      831.043      54.8101     272.7836        17     1.244     0.839 -55.66   0
       346    716.6088    459.5144 307.6295693  +6.5056074     540.4284      826.945     512.9642     77.57518     155.2123      310.796      1.145     4.14     833.3434      54.8101     90.49762         6     1.076     0.456 -55.06   0
       347    374.6897    458.0106 307.7716338  +6.4947806     746.3666     1121.209     1581.964     77.69901     155.2742     310.7651      1.806     5.12     833.8476      54.8101     94.03821         9     1.177     0.631 -47.30   0
       348    120.9130    456.9845 307.8770687  +6.4866821     4028.831     6707.796     6897.752     77.57518     155.2742     310.8579      1.739     3.74     838.8351      54.8101     539.8398        29     1.473     1.056 -31.57   0
       349    758.9458    456.1856 307.6120961  +6.5083965     2095.138     3343.657     3547.159     77.32694     155.4599     310.6723      1.639     4.20     832.9599      54.8101     304.9449        22     1.432     0.965 -51.43   0
       350   1022.2980    455.0172 307.5027491  +6.5176653     3703.882     6143.294     6292.506     77.94606     141.6775     254.8853      1.800     4.14     830.3799      54.8101     422.2516        30     1.420     1.188 -67.67  24
       351    278.5329    454.3058 307.8116956  +6.4930837     1341.652     2054.853     2326.602     77.82263      155.707     310.9506      1.763     4.04     834.0424      54.8101     199.5167        17     1.204     1.035 -59.74   0
       352    356.8258    451.9361 307.7792577  +6.4966894     3060.399     4673.672     5211.143     77.57518     155.5217     310.8888      1.621     3.62     833.6449      54.8101      415.561        23     1.385     0.908 -45.43   0
       353    712.6565    449.6823 307.6315406  +6.5095347     1589.619     2336.377     2223.152     77.94606     155.5217     311.0434      1.668     4.45     833.0333      54.8101     240.5192        17     1.464     0.770 -50.48   0
       354    244.6619    448.3158 307.8259650  +6.4944194      582.509     671.3306     843.6694      78.0693     155.5835     310.9815      1.308     4.98     834.9919      54.8101     85.38129         6     0.933     0.751  66.92   3
       355    245.5721    445.7068 307.8256749  +6.4955272     481.8255     625.3412     731.1249      78.0693     155.2742     310.8579      1.172     4.15     834.8682      54.8101     115.8528         5     0.946     0.540  52.97   2
       356    986.1575    448.3433 307.5179838  +6.5192164     578.8128     986.2425     911.6502     77.82263     155.4599     310.9506      1.683     4.64     830.5142      54.8101     83.83051         6     0.980     0.623 -29.82   0
       357    553.7828    442.4707 307.6977712  +6.5071977     932.7267     1373.539     1711.225     77.45116      155.398     310.8579      1.616     5.18     832.6666      54.8101     131.8992        11     1.207     0.681 -59.52   0
       358    476.4075    440.7187 307.7299678  +6.5053297     1194.658     1864.423     1229.056     77.57518     155.1504      310.796      1.576     4.06     832.6154      54.8101     211.0129        14     1.375     0.675 -44.40   0
       359    838.9651    439.8230 307.5794075  +6.5178245     1305.054     2297.287     2534.329     77.45116     155.2742     310.7341      1.880     5.61     831.5529      54.8101      191.524        15     1.472     0.699 -41.25   0
       360    824.4406    438.8410 307.5854734  +6.5177450     1904.282     3017.803     3105.226     77.69901     155.5217     310.8269      1.744     4.68     831.7207      54.8101       253.41        19     1.455     0.886 -48.38   0
       361    721.8811    436.9415 307.6281364  +6.5151034     14236.38     22290.43     24170.04     77.94606     155.5835     310.9506      1.668     3.78     832.4119      54.8101     1869.182        48     1.598     1.118 -39.75   0
       362    624.3497    438.6402 307.6685898  +6.5111408     686.5839      961.533     1448.304     77.94606     155.5217     310.8888      1.703     3.86     833.0696      54.8101     118.9634         7     1.200     0.494 -50.94   0
       363    642.8943    432.9350 307.6610786  +6.5141167     2339.239     3803.853      4397.56     77.94606     155.5835     310.9815      1.722     4.39     832.9246      54.8101     323.0793        21     1.462     0.926 -38.44   2
       364    715.8422    431.9191 307.6308131  +6.5169752      711.287     1046.565     1400.964     77.94606     155.5217     310.9197      1.400     4.24      832.316      54.8101     124.8134         7     1.145     0.447 -54.57   0
       365    618.0741    430.0688 307.6714840  +6.5144698      5132.72     8146.291     9281.513      78.0693     155.6453     310.9506      1.670     3.90     832.7737      54.8101     685.4004        28     1.506     0.927 -43.51   3
       366    614.3718    427.3839 307.6731120  +6.5154544     13922.99     22287.72     23630.69     77.57518     155.2742     310.8579      1.734     3.83     832.6757      54.8101     1983.489        42     1.555     1.112 -36.84   3
       367    947.2155    426.9268 307.5348755  +6.5267606     3574.983     5435.072     5701.031     77.45116     155.2742     310.8579      1.613     3.76     830.1536      54.8101     448.4556        26     1.429     0.980 -37.87   0
       368    386.2637    422.7307 307.7680137  +6.5097347     27460.93     43419.35     46225.88     77.94606     155.5835     311.0125      1.713     3.83     832.9528      54.8101     3850.928        58     1.617     1.181 -38.86   0
       369    902.2742    422.2551 307.5536992  +6.5271905     1414.257     2716.654     3645.912     77.82263     155.4599     310.8888      2.448     5.98     830.3003      54.8101     192.4996        22     1.575     1.157   9.75   0
       370    132.4437    421.9634 307.8734609  +6.5015285     2004.343     3236.859     3264.509     77.69901     155.4599      310.796      1.706     4.84     837.7873      54.8101     252.6681        19     1.377     0.891 -54.69   0
       371     65.5217    418.1682 307.9013837  +6.5008446     1314.617       2311.2     2638.098     77.82263     155.5217     310.9197      1.925     7.13     838.8751      54.8101     202.1526        17     1.839     0.774 -66.71   0
       372    916.0240    417.2389 307.5481558  +6.5297203      4720.14     7374.549     7774.309     77.57518     155.2742     310.7651      1.658     4.02       830.02      54.8101     596.9598        30     1.486     1.029 -40.75   0
       373    972.1937    415.0145 307.5248987  +6.5325117     553.2833     851.1065     273.1851     77.57518     155.2742      310.796      1.553     5.55     829.5785      54.8101     77.50732         7     1.431     0.606 -49.42   0
       374    243.8529    413.2734 307.8274816  +6.5088600     13108.64     20998.87     22444.57     77.82263     155.5835     310.9815      1.719     3.91     833.5077      54.8101     1707.377        49     1.593     1.160 -39.73   0
       375    738.6542    407.2586 307.6221646  +6.5279193     775.6157     1317.323     1403.277      78.0693     155.4599     310.9506      1.679     4.74     831.0296      54.8101     120.1411         8     1.408     0.534 -74.12   0
       376     79.3435    407.4385 307.8960052  +6.5057395     817.5391     1132.891     1178.358     77.94606     155.5835     310.9506      1.403     5.13     838.3849      54.8101     142.7975        10     1.253     0.593 -37.24   0
       377    966.9918    405.7122 307.5273706  +6.5361790     961.6794     1514.546     1554.144     77.57518     155.2123     310.7032      1.478     4.37     829.1716      54.8101     134.4288         9     1.003     0.637 -53.58   0
       378    706.5739    406.1678 307.6355264  +6.5272975     707.0717     934.1143     1247.876     77.45116     155.2742      310.796      1.665     4.33     831.3324      54.8101     104.3402         7     1.120     0.477 -42.87   0
       379    356.6427    403.0422 307.7809793  +6.5168699     1222.991      2089.82     2261.462     77.69901     155.5217     310.8269      1.822     4.67     831.9348      54.8101     187.2115        17     1.503     0.775 -58.97   0
       380    144.1481    401.9368 307.8692751  +6.5101902     4778.758     7603.348       7868.3     77.94606     155.4599     310.9197      1.709     3.95     836.7706      54.8101     611.4719        30     1.510     1.015 -38.98   0
       381    189.8852    402.8632 307.8502475  +6.5113450     637.0989     1079.531     1099.745      78.0693     155.6453     310.9197      1.954     4.32     835.1363      54.8101     112.2645         6     0.967     0.549  67.21   0
       382    636.7607    401.2269 307.6646904  +6.5270030     513.1739     832.2383     1191.691     77.57518     155.3361      310.796      1.650     3.83     831.3309      54.8101     81.26941         5     1.331     0.316 -59.19   0
       383    441.6997    400.6345 307.7457314  +6.5207161     727.0878     1102.865     1006.359     77.94606      155.398     311.1052      1.731     4.77      831.221      54.8101     123.8466        10     1.312     0.618 -38.75   0
       384    248.5741    400.7497 307.8259426  +6.5141891     1295.487     2057.541     2058.843     77.57518     155.5835     310.8579      1.635     5.18      833.174      54.8101     207.7739        12     1.178     0.716 -36.01   0
       385    829.9899    398.6276 307.5845154  +6.5345335     650.3192     992.8117     230.6321     77.57518     155.3361     310.8269      1.467     4.88       830.33      54.8101     110.9308         8     1.373     0.491 -67.26   0
       386    166.0915    397.6734 307.8603049  +6.5126880      2381.36     3991.967     4035.426     77.94606     155.6453     310.9815      1.765     4.50     835.9312      54.8101      296.192        24     1.453     1.008 -53.25   0
       387    561.7243    396.8804 307.6960039  +6.5262865     944.1664     1432.403     1819.489     78.19234     155.7687     311.0434      1.911     5.53     830.4498      54.8101     110.6238        11     1.134     0.761 -60.39   0
       388    978.0840    392.2272 307.5232142  +6.5421165     903.5243     1604.645     1878.541      78.0693     155.2742     310.8269      2.193     5.63     828.1822      54.8101      141.793        12     1.477     0.604 -59.83   0
       389    389.9619    392.5088 307.7674944  +6.5223363     1832.358     3185.824     3133.416      78.0693     155.4599     310.9815      1.919     5.89     831.2154      54.8101     275.4171        17     1.663     0.703 -36.69   0
       390    278.1084    392.9687 307.8139377  +6.5183933     944.2388     1589.399      1193.95      78.0693     155.3361     310.9506      1.742     3.82     832.4534      54.8101     146.9114        11     1.051     0.701 -18.31   0
       391      8.6536    392.8077 307.9258589  +6.5094010     612.0186     1042.764     845.2241     77.45116     155.3361     310.6723      1.629     4.85     838.6399      54.8101     95.93335         8     1.295     0.515 -31.55  16
       392    323.3528    390.8159 307.7952179  +6.5208007     587.5109     1004.783     914.6192     77.45116     155.4599     310.7032      1.656     3.42     831.6736      54.8101     85.99713         5     0.763     0.442 -73.07   0
       393    597.2531    388.5233 307.6815271  +6.5309260     583.6981     941.2441     799.5639      78.0693     155.5217     310.9506      1.781     4.06     830.3387      54.8101     84.74756         5     0.790     0.711  55.20   0
       394     39.7633    386.9036 307.9131373  +6.5128857     3091.235     5191.137     5207.976     77.94606      155.398     311.1052      1.835     4.36     838.1219      54.8101     400.3235        28     1.701     0.977 -40.88   0
       395    443.4062    386.1555 307.7455095  +6.5267512     6904.461     11240.15     11770.03     77.45116     155.3361     310.6104      1.754     3.71     830.2878      54.8101     902.1637        39     1.591     1.096 -40.54   0
       396    784.0348    383.4745 307.6041119  +6.5392553     12414.54     19295.96     20787.59     77.82263     155.5835     310.9197      1.684     3.88     830.2104      54.8101     1625.019        47     1.559     1.150 -37.08   0
       397    776.0533    385.0353 307.6073750  +6.5383443     1776.313     2909.522     3262.844     77.82263     155.5217     310.9815      1.783     4.39     830.2313      54.8101     210.6663        19     1.430     0.829 -43.99   1
       398    203.6134    385.4298 307.8451332  +6.5190038      408.539     709.3674     501.0003     77.57518     155.3361     310.8888      1.991     5.61     834.0502      54.8101     103.1854         5     1.380     0.642 -41.14   0
       399    347.3774    381.8969 307.7855393  +6.5252892      1144.35     1787.536     1462.761     77.94606     155.2742     310.7651      1.649     3.38     830.7897      54.8101     168.6265         9     0.966     0.618 -39.40   0
       400    192.8132    374.4040 307.8499907  +6.5231930     826.1069     1280.952     1406.736     77.57518     155.2123     310.8269      1.711     4.72     834.0776      54.8101     132.5978        11     1.209     0.717 -40.33   0
       401    463.7511    370.5222 307.7375846  +6.5338875     2250.913     3432.487     3755.235     77.94606     155.5835     310.9197      1.731     4.20     829.1878      54.8101     301.8373        21     1.443     0.906 -48.22   0
       402    920.5637    369.5743 307.5478653  +6.5495514     663.7841     1049.459     707.3765     77.57518     155.3361     310.7341      1.458     4.97     829.2513      54.8101     107.3139         8     1.522     0.460 -54.60   0
       403    491.6206    369.6270 307.7260385  +6.5351909      2808.46     4566.444     4637.707     77.45116     155.3361     310.8888      1.742     4.20      828.967      54.8101     403.8678        22     1.486     0.864 -45.02   0
       404    849.4370    366.3769 307.5775177  +6.5484982     31274.67     50595.34     53483.28     77.57518     155.2742     310.7341      1.757     3.96      829.823      54.8101     4307.348        63     1.672     1.209 -52.30   0
       405    341.7008    361.7299 307.7885760  +6.5334250     768.9272      1293.53     1390.071     77.82263     155.6453     310.9506      1.714     4.55     829.8071      54.8101     128.8889         6     0.997     0.591 -39.43   0
       406     29.1036    359.4023 307.9184933  +6.5238809     1123.078     1839.036      1861.43     77.45116     155.2123     310.6413      1.675     5.51     837.2321      54.8101     171.3167        13     1.472     0.702 -46.47   0
       407    621.2544    358.8376 307.6725541  +6.5439855     2563.478     3900.457     4357.696     77.82263     155.5835     310.9815      1.640     3.89     828.4805      54.8101     383.6732        21     1.364     0.876 -33.69   0
       408    152.7504    357.1441 307.8672129  +6.5289724     653.1447     1028.326     1616.054     77.94606     155.5217     311.0125      1.998     6.39     834.5652      54.8101     79.79065        10     1.425     0.804 -57.64   0
       409    705.8708    352.3810 307.6376225  +6.5494811     75788.14     118060.1     125272.8     77.57518      155.398     310.8888      1.684     3.81     828.6251      54.8101     10654.09        93     1.677     1.256 -37.13   0
       410    864.0989    353.9921 307.5718420  +6.5541010     1153.427     1804.725     1793.094     77.69901     155.1504     310.7651      1.571     4.22     829.5887      54.8101     149.8973        12     1.304     0.633 -41.56   0
       411     85.4162    351.5225 307.8953700  +6.5290290     1215.216     2223.996     2214.214     77.57518     155.2123     310.8269      1.974     5.76     836.6069      54.8101     166.5686        17     1.461     0.873 -68.06   0
       412    947.2286    349.2500 307.5374690  +6.5588321     793.4939     1121.817     580.4561     77.57518     155.6453     310.8579      1.299     4.47     827.6013      54.8101     137.6279         8     1.268     0.448 -42.13   0
       413    568.2463    349.0228 307.6949023  +6.5462638      2536.07     3949.262     4041.796     77.57518     155.5217     310.8269      1.658     3.72     827.7753      54.8101     355.1724        25     1.395     0.993 -30.66   0
       414    105.5789    347.9608 307.8871155  +6.5311777      5957.21     9314.239     10151.67     77.57518     155.3361     310.7341      1.712     3.63     836.0944      54.8101     800.4177        34     1.497     1.073 -45.09   0
       415    551.6518    345.2666 307.7019215  +6.5472591     6850.446     10538.31     11026.97     77.82263     155.4599     310.9197      1.658     3.72     827.5291      54.8101     947.5168        31     1.475     1.006 -41.23   0
       416    280.6357    342.8650 307.8145757  +6.5391641     2521.971      4194.89     4074.852     77.82263     155.4599     310.9815      1.664     3.87     831.0797      54.8101     361.8412        21     1.421     0.853 -38.86   0
       417    414.5173    340.4231 307.7590472  +6.5446641     24723.21     39148.75     41142.31     77.82263     155.2123     310.8888      1.754     3.96     827.9344      54.8101     3405.414        62     1.636     1.227 -37.54   0
       418    593.4506    339.8832 307.6847398  +6.5508809     554.1416     740.2872     558.0475     77.94606     155.4599     311.0434      1.582     4.09      827.394      54.8101      86.9234         6     1.033     0.462 -31.12   0
       419    521.9545    339.2346 307.7144599  +6.5487550     1191.889     1947.064      2204.25     77.57518     155.4599     310.8269      1.713     5.75     827.2991      54.8101     172.5222        15     1.493     0.759 -15.84   0
       420    394.1325    339.1524 307.7675573  +6.5445052     1230.773      1902.08     2761.585     77.94606     155.4599     310.9815      1.735     3.83     828.1995      54.8101     167.0947        12     1.117     0.810 -47.71   0
       421    680.8155    338.6988 307.6484892  +6.5542925     506.4041     871.3666     1200.928     77.94606     155.2742     310.6723      1.900     3.73     827.9756      54.8101     145.5574         5     1.314     0.338 -40.29   0
       422    493.6907    335.8465 307.7263141  +6.5492071     1075.218     1738.704      1813.91     77.94606     155.4599     311.0743      1.812     4.05     827.3289      54.8101     160.6132        14     1.360     0.740 -39.06   0
       423    809.5855    333.0775 307.5951873  +6.5609163     679.0737     1137.021     1207.368     77.57518     155.2123      310.796      1.754     5.39     828.9784      54.8101     101.2474         8     1.245     0.660 -53.78   0
       424    503.5975    330.8959 307.7223654  +6.5515830     8181.534     12909.55     13532.66     77.57518     155.2123     310.6413      1.667     3.82     827.0148      54.8101     1101.871        41     1.588     1.089 -39.66   0
       425    391.5817    332.6886 307.7688343  +6.5470883     772.3339     1217.858     2089.368     77.69901     155.2742     310.8579      1.852     5.62      828.082      54.8101     93.17548         9     1.190     0.747 -34.85   0
       426    645.4948    332.6162 307.6633652  +6.5556225     548.5774     644.1262     675.0319     77.69901     155.3361      310.796      1.305     4.24     827.4437      54.8101     95.86682         5     1.055     0.486   0.05   0
       427    772.7769    329.6678 307.6105917  +6.5610947     3065.465     4605.021     5449.657     77.57518     155.4599     310.9197      1.636     3.65     828.6271      54.8101     488.9667        19     1.322     0.842 -43.69   0
       428    928.0562    329.5864 307.5460913  +6.5663114     771.1815      1087.32     723.8599     77.32694      155.398     310.6413      1.592     4.62     827.5013      54.8101      117.085         8     1.054     0.575 -20.53   0
       429    720.6190    328.8682 307.6322848  +6.5596819     735.1002     1103.345     1032.189     77.57518      155.398     310.8888      1.492     4.54     828.0326      54.8101     106.9662         8     1.001     0.586 -23.22   0
       430    330.1848    327.7142 307.7945046  +6.5470824     1114.977     1816.135     2090.703     77.57518     155.2742     310.8579      1.658     5.95     829.2396      54.8101     124.6298        15     1.512     0.737 -53.14   0
       431    165.6803    321.3943 307.8630480  +6.5441666     1019.236     1889.004     1846.226     77.57518     155.0884     310.7341      1.926     5.14     833.8376      54.8101     161.4344        12     1.389     0.657 -32.20   0
       432    265.2567    321.2340 307.8216923  +6.5475783     590.8917     849.3289     694.6785     77.82263     155.5217     310.9506      1.540     4.36     830.6539      54.8101     94.81274         6     0.893     0.637 -19.43   0
       433    393.5280    314.9931 307.7686213  +6.5544594     7166.225     11450.37     12158.24     77.57518     155.0884     310.8888      1.687     3.67     827.5967      54.8101       946.91        37     1.518     1.093 -42.24   0
       434    249.2485    315.6014 307.8285315  +6.5493661     2044.433     3179.357     3495.383     77.32694     155.1504     310.5485      1.620     4.47     830.9825      54.8101     287.6709        19     1.374     0.898 -41.79   0
       435    761.3505    310.9390 307.6159661  +6.5684455     51720.57     80013.69     85180.47     77.94606     155.4599     311.0125      1.673     3.74     827.8883      54.8101     7118.188        76     1.647     1.205 -40.86   0
       436    747.2642    314.8440 307.6216867  +6.5663626     959.1231     1497.633     1972.979     77.94606     155.4599     310.9506      1.760     5.42     827.9203      54.8101     132.0201        11     1.179     0.704 -40.23   0
       437    432.9851    310.3335 307.7523881  +6.5577062     2206.421     3541.017     3537.226     77.45116      155.398     310.8888      1.685     3.83     826.7263      54.8101      294.243        20     1.367     0.885 -44.17   0
       438    996.2485    307.9868 307.5184863  +6.5775030     1552.409     2432.164     2774.797     77.32694     155.4599     310.6723      1.610     4.82     824.1684      54.8101     226.4866        17     1.397     0.855 -38.50   0
       439    937.0660    307.2192 307.5430971  +6.5758468     2204.237      3381.99     3553.882     77.57518     155.5217     310.8579      1.608     3.93     825.8431      54.8101     302.7968        20     1.411     0.829 -45.65   0
       440    579.3307    307.7365 307.6916846  +6.5636807     1185.505      1599.23      1591.42     77.94606     155.5217     311.0125      1.500     3.97     825.7604      54.8101     209.5026        14     1.263     0.774 -46.45   0
       441    469.6800    306.8596 307.7372623  +6.5603704     1087.784     1628.571     1877.953      78.0693     155.5217     310.9197      1.773     5.25      826.256      54.8101     127.0984        13     1.169     0.883 -37.77   0
       442    419.7180    305.8985 307.7580483  +6.5590925      1844.81     2991.274     3397.505     77.94606     155.9538     311.0434      1.756     4.47     826.7078      54.8101     261.6069        19     1.420     0.860 -41.85   0
       443    469.5698    300.8131 307.7375114  +6.5628631     750.3093     1231.562     1576.385     77.45116     155.3361     310.8888      1.920     7.31     826.0032      54.8101     83.57385        13     1.373     1.089 -23.19   0
       444    840.7807    300.3881 307.5833238  +6.5754545     1231.302     1842.783      1465.62     77.57518     155.2742     310.8579      1.565     4.61     827.0603      54.8101     163.7844        17     1.333     0.890 -42.77   0
       445    450.0345    297.5200 307.7457369  +6.5635680     1142.888     1758.668     1860.888     77.82263     155.5835     310.9815      1.754     5.38     826.0978      54.8101     143.6399        14     1.390     0.660 -36.88   0
       446    195.8969    297.1733 307.8513135  +6.5551820     2180.976       3593.2     3831.664      78.0693     155.2742     310.8888      1.700     4.25     832.4749      54.8101     294.9436        21     1.376     0.936 -35.65   0
       447    759.7923    295.4989 307.6171311  +6.5747683      5826.77     9193.174     9676.594     77.69901     155.1504     310.7651      1.708     3.93     827.3741      54.8101     806.2323        32     1.551     0.994 -41.63   0
       448    231.4906    295.6265 307.8365809  +6.5570165     746.4171     1256.769     1325.713      78.0693     155.2742      310.796      1.744     4.40     831.0056      54.8101     98.91931         8     0.915     0.719 -40.05   0
       449    776.0541    293.4089 307.6104458  +6.5761745     2451.621     3672.629     3910.014     77.32694     155.4599     310.6723      1.579     4.00     827.3275      54.8101     334.1024        20     1.349     0.868 -46.49   0
       450    349.9662    295.0108 307.7873887  +6.5612482     600.9532     935.4628     566.5219     77.45116     155.2742      310.796      1.548     2.49     828.4224      54.8101     110.1942         5     0.633     0.566   0.26   0
       451     92.3552    294.8167 307.8944015  +6.5526737     985.0925     1658.876     2134.661     77.45116      155.398     310.7341      1.831     4.63     835.2443      54.8101     147.9831        11     1.162     0.723 -12.26   0
       452     79.2695    288.5177 307.9000496  +6.5548341     1369.075      2125.96     2170.049     78.19234     155.7687     310.9815      1.624     4.46       835.34      54.8101     175.9879        16     1.437     0.814 -41.73   0
       453    365.7335    288.0495 307.7810735  +6.5646512     1638.074     3382.473     3828.843     77.82263      155.398     310.8888      2.183     6.76     827.8741      54.8101      205.564        27     1.868     1.105 -17.77   0
       454   1014.3584    284.4780 307.5117493  +6.5878128     5503.006     8596.752     9314.696     77.82263     155.5217     311.0125      1.730     3.80     823.3435      54.8101     760.1251        32     1.449     1.138 -36.64  16
       455    492.5390    284.2097 307.7285283  +6.5704877     1917.042     3067.775     3037.371     77.32694      155.398     310.7032      1.739     4.04     824.9705      54.8101     295.6442        19     1.451     0.876 -41.16   0
       456    255.0098    279.8334 307.8273436  +6.5643268     5469.665     8786.636     10243.53     77.45116     155.3361      310.796      1.747     3.86     829.8266      54.8101     761.7386        31     1.516     1.013 -41.25   0
       457    922.5916    279.1046 307.5500510  +6.5869719     496.4775     802.2322     1142.539     77.69901     155.1504     310.7341      1.420     3.50     824.6528      54.8101     85.94482         5     0.803     0.440 -70.89   0
       458    819.9473    278.5040 307.5927115  +6.5837943     527.7257     643.0418     818.3255     77.82263     155.5217     311.1978      1.317     5.29     826.4091      54.8101     79.58789         6     0.947     0.835 -89.20   0
       459    774.5801    273.0158 307.6117418  +6.5845450     780.3495      1259.23     974.9932     77.69901     155.2742     310.8579      1.638     4.61      826.394      54.8101     111.2974         8     1.207     0.500 -27.70   0
       460    231.5678    272.8976 307.8373148  +6.5664029     698.2001     875.5659     840.2369     77.94606      155.398     311.0743      1.307     3.71     830.6116      54.8101     121.2012         6     0.798     0.495 -87.37   0
       461    389.2082    270.4405 307.7719149  +6.5727088     1628.465     2687.485      3247.58     77.32694     155.3361     310.6723      1.763     3.74      826.554      54.8101     242.7751        19     1.339     0.884 -45.83   0
       462    976.2963    269.7239 307.5280548  +6.5926358     828.6495     1509.134     1541.302     77.57518     155.6453     311.0125      1.924     6.87     823.2681      54.8101     120.0712        11     1.308     1.011 -89.52   0
       463    311.3321    266.3521 307.8044020  +6.5717838     1074.871     1634.733     1576.692     77.94606     155.4599     310.9815      1.701     5.72     828.2759      54.8101       147.47        12     1.358     0.906 -54.43   0
       464    158.9334    266.3395 307.8677072  +6.5666696     1610.919     2815.761     2786.107      78.0693     155.4599     310.9506      1.840     4.26     833.1016      54.8101     194.1891        19     1.371     0.901 -38.51   0
       465    912.5634    261.3804 307.5548103  +6.5939553     1652.794     2772.175      3107.24     77.57518     155.3361     310.7341      1.791     4.24     824.1035      54.8101     225.3059        20     1.242     1.112 -40.80   0
       466    568.6603    261.9476 307.6976552  +6.5822283     2059.004     3385.936     3588.383     77.94606     155.4599     310.9506      1.758     4.01     823.8072      54.8101     272.7541        21     1.401     0.914 -43.17   0
       467    732.2285    259.6680 307.6297830  +6.5886408     4860.529     7261.447     6810.511     77.69901     155.5217     310.8888      1.589     3.82     825.6558      54.8101     685.6595        26     1.449     0.903 -42.58   0
       468    673.0285    259.5167 307.6543808  +6.5867241     2186.725     3502.539     3848.038     77.82263     155.3361     310.8579      1.759     3.88     824.5137      54.8101     295.6592        21     1.353     0.923 -36.52   0
       469    970.2438    259.4449 307.5309130  +6.5966780     643.6739     966.7576      654.572     77.94606     155.5217     310.9197      1.551     4.28     822.8391      54.8101     104.6973         7     1.191     0.461 -41.33   0
       470    928.2905    251.5930 307.5486044  +6.5985209     1032.906     1652.178     1240.023     77.57518     155.2123     310.7341      1.684     5.17     823.4164      54.8101     152.7698        11     1.264     0.597 -43.11   0
       471    231.6020    244.9577 307.8382423  +6.5779394     2174.802     3705.976     3442.224     77.32694     155.2123     310.6723      1.716     4.42     830.3325      54.8101     295.7057        19     1.444     0.875 -49.12   0
       472    874.2967    243.9766 307.5712901  +6.5998641     1511.815     2231.155     2384.158      78.0693     155.2742     310.7651      1.602     4.10     824.2628      54.8101     200.3615        14     1.215     0.816 -49.89   0
       473    765.1157    243.2003 307.6166730  +6.5965388     1376.392     2450.761     2499.302     77.20252     155.0264     310.6104      1.846     5.09     824.9137      54.8101     220.7604        18     1.565     0.867 -25.02   0
       474    465.6367    234.7673 307.7413661  +6.5899993     21877.58     34990.37     36996.63     77.57518     155.2742     310.7032      1.715     3.83     823.6382      54.8101     2883.984        54     1.638     1.156 -43.16   2
       475    470.9846    229.8138 307.7393110  +6.5922237     1372.372     2327.001     2606.808     77.69901     155.2123     310.8888      1.597     4.05     823.3422      54.8101     192.7752        14     1.288     0.763 -54.48   3
       476    253.9303    237.8839 307.8292056  +6.5816099     590.1287     1027.772     845.5245     78.19234     155.7687     310.9815      1.554     4.01     829.7067      54.8101     90.51617         6     0.974     0.472 -36.12   0
       477    326.7401    237.4552 307.7989746  +6.5842313     593.8523     1018.335     1021.883      78.0693     155.5217     310.9506      1.582     3.46     827.4848      54.8101     92.08282         5     0.780     0.444 -20.66   0
       478    791.7050    233.9386 307.6059376  +6.6012510     12870.72     20206.44     21926.49     77.82263     155.5835     311.0125      1.701     3.80     824.4696      54.8101      1776.64        48     1.649     1.126 -33.97   0
       479    730.0612    229.3105 307.6317015  +6.6011022     675.1573     1180.458     940.9193     77.94606     155.6453     311.0125      1.576     5.76     824.0971      54.8101     122.9022        10     1.318     0.726 -80.55   0
       480    153.8389    228.1486 307.8711117  +6.5822657       2236.3     3658.267     3690.365     77.69901     155.5217     310.9506      1.660     3.79     831.8893      54.8101      317.033        24     1.460     0.984 -51.17   0
       481    128.3435    226.8648 307.8817456  +6.5819384     1140.335     1840.795       2356.7      78.0693     155.4599     310.9506      1.718     5.18     832.9108      54.8101     136.5952        14     1.254     0.830 -39.67   0
       482    783.8853    226.3625 307.6094401  +6.6041178     552.9652     1116.541     1665.466     77.94606     155.5217     310.9506      2.224     4.65     824.0748      54.8101     103.5918         6     1.227     0.500 -46.81   0
       483    180.5121    226.3257 307.8600932  +6.5839150     611.0015     766.8044     940.2222     77.94606     155.8304     311.0125      1.699     4.53     831.1454      54.8101     106.5494         6     1.252     0.629 -18.64   0
       484    928.1475    224.3249 307.5495766  +6.6097745     1554.164     2328.244     2440.677     77.94606     155.5835     310.9506      1.624     4.56     822.2264      54.8101      191.754        15     1.159     0.914 -59.60   0
       485    626.6563    222.1644 307.6748986  +6.6005946     504.3548     746.2153     1153.095     77.82263     155.5217     310.9815      1.457     4.19     822.4196      54.8101     71.61365         6     1.208     0.414 -57.65   0
       486    552.0790    220.5103 307.7059355  +6.5987813     2087.024     3125.242     3225.734     77.69901     155.7687     311.0434      1.618     3.93     822.7124      54.8101     299.8464        20     1.370     0.986 -48.32   0
       487    589.7767    220.5071 307.6902750  +6.6000447     4704.718     7272.258     7456.289     77.94606     155.3361      310.796      1.677     3.89     822.4019      54.8101     635.8548        27     1.458     0.969 -38.50   0
       488    309.9836    221.2830 307.8064801  +6.5903458      1144.07     1666.066     1216.697     77.57518     155.2123     310.8579      1.603     4.68     828.0046      54.8101     153.6822        13     1.180     0.782 -47.38   0
       489    394.2678    219.4996 307.7715274  +6.5939101     1456.478     2457.195     2014.559     77.94606     155.6453     310.9197      1.687     5.11     824.9506      54.8101     232.7103        17     1.484     0.894 -38.66   0
       490    950.5363    217.7100 307.5404968  +6.6132522     2650.029     3928.116     4263.918     77.82263      155.707     310.9815      1.617     3.58     821.3815      54.8101     386.7145        25     1.427     1.025 -40.38   0
       491    896.7196    217.1660 307.5628727  +6.6116817     11094.17     16924.72     17822.72     77.82263     155.5835     310.9815      1.622     3.59     822.6106      54.8101     1573.108        41     1.505     1.070 -41.89   0
       492    572.0081    217.3555 307.6977625  +6.6007511     830.2563     1193.954     1166.108     77.45116      155.398     310.6723      1.590     6.17     822.4605      54.8101     105.5346        12     1.508     0.708 -43.56   0
       493    323.9493    217.6234 307.8008018  +6.5923254     848.7946     1298.739     1200.134     77.57518     155.5217     310.8579      1.659     4.16      827.353      54.8101     119.1764         9     0.930     0.686 -71.78   0
       494    983.4091    215.0151 307.5269302  +6.6154609     9260.096     14126.46     14538.27     77.69901     155.2742     310.8269      1.615     3.70      820.511      54.8101     1225.255        38     1.462     1.095 -39.48   0
       495    215.7419    216.9049 307.8457762  +6.5889883     612.3848     867.4392     743.9625     77.82263     155.5217     311.0743      1.622     4.75     830.4285      54.8101      97.6344         6     1.092     0.810 -18.39   0
       496    694.5383    215.0269 307.6469380  +6.6058119     2814.087      4438.21      4704.61     77.57518     155.5835     310.8579      1.656     4.05     823.0195      54.8101     374.6372        24     1.388     0.998 -33.29   0
       497     22.8972    213.6424 307.9259938  +6.5838493     24259.54     39383.65     41607.59     77.94606     155.4599      311.167      1.746     3.88     835.3572      54.8101     3096.361        60     1.653     1.209 -40.08   0
       498    268.9360    214.6689 307.8237544  +6.5916983     1054.705     1604.786     1860.207     77.94606     155.5835     311.0125      1.639     3.57      829.416      54.8101     139.8315         9     0.959     0.649 -50.80   0
       499    503.4679    209.6622 307.7264943  +6.6016320     1905.225     2769.262     2521.381     77.94606     155.4599     310.9815      1.646     4.56     822.4604      54.8101     227.8994        19     1.387     0.894 -43.42   0
       500    835.2556    206.5937 307.5887615  +6.6139953     1935.938     2767.934     2708.186     77.45116      155.398     310.6413      1.536     4.06     823.0516      54.8101     233.2653        16     1.221     0.841 -49.58   0
       501    515.3218    205.7883 307.7217001  +6.6036285     2509.517     4084.216     4426.867     77.57518     155.1504      310.796      1.770     3.77     822.3388      54.8101     369.0372        23     1.486     0.863 -43.45   0
       502    887.4396    205.5053 307.5671185  +6.6161865      2188.81     3242.422     3799.996      78.0693     155.4599     311.0434      1.719     3.51     822.2906      54.8101     326.4985        17     1.223     0.828 -36.71   0
       503    746.9406    203.0536 307.6255698  +6.6125070     39004.72     60039.39     63347.86      78.0693     155.4599     310.9506      1.628     3.78     823.1561      54.8101     5178.638        68     1.607     1.202 -37.46   0
       504    350.0000    202.4382 307.7904913  +6.5994690     5727.745     11661.74     13599.47     76.95308     155.2742     310.7341      2.209     6.24     825.8054      54.8101     677.5648        48     2.117     1.169 -63.94   0
       505    980.8361    201.9232 307.5284371  +6.6207805     2455.023     4045.193     4573.947     77.82263     155.5835     310.9815      1.764     3.68      820.153      54.8101     374.8781        22     1.359     0.995 -48.98   0
       506   1019.0822    200.3323 307.5126010  +6.6227121     1627.198     2538.954     2748.113      78.0693     155.7687     294.2072      1.721     4.26     819.3826      54.8101      231.373        18     1.418     0.798 -45.71  16
       507    914.8528    200.2014 307.5559074  +6.6192910     7165.738     10789.39      11333.1     77.32694     155.2123     310.5485      1.595     3.75     821.3697      54.8101     1022.225        32     1.440     1.018 -40.61   0
       508    458.3157    199.2609 307.7456014  +6.6044133     4793.623      7519.88     7780.199      78.0693     155.5835     311.0125      1.714     3.83     822.7568      54.8101      604.719        30     1.474     0.998 -39.58   0
       509    233.1236    195.9986 307.8392605  +6.5982036     695.7933     981.2245     955.8104     77.20252     154.9644     310.7651      1.436     3.96     830.1201      54.8101     101.3057         5     0.859     0.523 -37.74   0
       510    115.6853    190.4361 307.8882331  +6.5965524     4642.898     7413.217     7207.371     77.94606     155.4599     310.9506      1.753     3.81     832.4288      54.8101     605.1027        32     1.511     1.026 -45.79   0
       511    934.7703    190.0143 307.5479737  +6.6241613     860.9222     1332.827     1438.628     77.57518     155.2742     310.8888      1.785     4.64     820.4905      54.8101     126.1797         8     0.981     0.624 -30.76   0
       512    286.0477    187.2318 307.8175704  +6.6036006     31978.92     51490.09     54771.34     77.69901     155.5217     310.8579      1.722     3.83     829.4188      54.8101     4036.452        64     1.663     1.218 -39.06   0
       513    261.2481    188.2430 307.8278385  +6.6023503     6239.736      10043.2     10893.18     77.94606     155.4599     310.8888      1.760     3.91     829.7444      54.8101       817.22        37     1.540     1.147 -36.25   0
       514    612.3024    189.3183 307.6819646  +6.6136754     648.2851     988.6212     946.2045     77.82263     155.8921     311.0434      1.585     4.72     821.8699      54.8101     96.18372         7     1.069     0.590 -23.92   0
       515    715.1133    186.5091 307.6393471  +6.6182739     858.9761     1266.193     1369.587     77.69901     155.9538     311.0743      1.700     5.43     822.4075      54.8101     135.4446        11     1.280     0.812 -35.82   0
       516    410.0592    182.7307 307.7662046  +6.6096202     47923.11     76255.26      80496.3      78.0693     155.5217     310.9197      1.712     3.75     823.6504      54.8101     6360.963        75     1.669     1.248 -40.16   0
       517    166.0602    184.0546 307.8675222  +6.6008810     3944.803     6449.186     6605.002      78.0693     155.4599     310.9197      1.701     4.05     830.8643      54.8101     495.1858        30     1.595     0.988 -43.28   0
       518    427.7359    183.1460 307.7588472  +6.6100414     1247.188     2092.529     2034.411     77.94606     155.4599     310.9197      1.691     4.73     823.1502      54.8101     201.6379        19     1.434     0.970 -36.86   0
       519    314.0993    180.4599 307.8061453  +6.6073382     17465.25     27685.86     29404.34     77.69901     155.4599     311.0743      1.703     3.73     827.7795      54.8101     2305.287        52     1.591     1.178 -39.41   0
       520    749.4097    178.9768 307.6253515  +6.6225301     31974.55     49345.25     51791.52     77.57518     155.3361      310.796      1.638     3.76     822.2057      54.8101     4347.042        64     1.591     1.212 -38.13   0
       521    321.7188    180.0609 307.8029934  +6.6077587     1963.131     3529.622     4478.298      78.0693     155.5217     310.9197      2.159     6.05     827.2396      54.8101     239.8529        23     1.713     0.960 -63.91   0
       522    697.4980    180.6964 307.6468603  +6.6200849     983.6656     1354.672     1375.148     77.94606      156.077      310.796      1.526     4.73     822.1472      54.8101     160.6436        11     1.236     0.611 -40.25   0
       523    797.7493    179.3933 307.6052549  +6.6239731     1100.553     1578.518     1814.173     77.45116     155.3361     310.5794      1.521     3.94     822.1607      54.8101     164.7598        10     1.056     0.711 -50.97   0
       524     36.7076    179.2896 307.9214173  +6.5984968     665.2902     1033.553     1157.936     77.94606     156.0154     310.9815      1.599     4.08     835.6246      54.8101     113.6642         7     1.141     0.418 -57.73   0
       525     66.2244    176.1594 307.9092615  +6.6007826     8519.757     13667.04     14711.81     77.57518      155.398     310.7341      1.709     3.93     834.1808      54.8101     1095.521        36     1.549     1.050 -43.58   0
       526     99.9057    174.1678 307.8953372  +6.6027380     1435.638     2298.288     2541.243      78.0693      155.398     311.0434      1.728     4.24     832.4405      54.8101     201.5844        17     1.351     0.831 -35.71   0
       527   1007.4764    173.6463 307.5183152  +6.6333433     1024.301     1350.613     1372.992     77.82263     155.5835     310.9815      1.467     4.31     819.0109      54.8101     153.5948        11     1.211     0.602 -52.06   0
       528    975.8226    172.3177 307.5315106  +6.6328367     389.0528     770.9677     1009.838     77.69901     155.2123     310.8579      2.205     4.37     819.2675      54.8101     72.98718         5     1.138     0.478 -57.74   0
       529    547.3696    181.1413 307.7092148  +6.6148778     478.7298     807.8922     866.0291     77.69901     155.5217     310.8888      1.699     5.72     821.6031      54.8101     75.22601         6     1.200     0.767 -56.21   0
       530    583.2078    163.8564 307.6949069  +6.6232140      822.843     1291.031     1503.014     77.32694      155.398     310.7032      1.545     4.45     821.3649      54.8101     147.6069         8     0.970     0.676  27.49   0
       531   1008.7178    159.5333 307.5182716  +6.6392116     2085.771     3365.779     4311.682     78.19234     155.7687     311.0125      1.748     4.17      818.652      54.8101     259.7585        20     1.329     0.964 -39.37   0
       532    591.7617    157.3548 307.6915716  +6.6261847     1018.357     1484.662     2075.198     77.69901     155.4599     310.8579      1.613     4.17     821.1996      54.8101     138.2406        10     1.098     0.735 -37.87   0
       533    600.1686    155.3455 307.6881464  +6.6272956     1852.243     2889.903     2995.653     77.82263     155.5835     310.9197      1.666     4.01      821.168      54.8101     247.3315        17     1.368     0.887 -41.26   0
       534    344.6166    155.2480 307.7943166  +6.6187714     917.5573     1513.622     1266.928     77.45116     155.5217     310.7341      1.666     5.72     825.3456      54.8101     115.8533        11     1.525     0.604 -39.53   0
       535    284.9261    153.4876 307.8191732  +6.6174945     29149.55     46866.75     50195.61     77.94606     155.8304     310.9815      1.755     3.78      829.733      54.8101     3663.222        62     1.646     1.223 -37.41   0
       536     30.1335    152.0134 307.9250695  +6.6095364     4245.812     7191.436     7493.843     77.45116     155.3361     310.8579      1.769     3.88     836.0747      54.8101     548.1605        33     1.569     1.076 -37.47   0
       537    716.5453    150.1132 307.6399732  +6.6333486     7807.709     11876.97     12466.61     77.94606      155.398     311.1052      1.615     3.64     821.0026      54.8101     1056.212        34     1.441     1.069 -43.49   0
       538    194.0256    151.4786 307.8570036  +6.6152702     931.8604     1416.604     1116.994     77.69901     155.4599     310.9197      1.491     3.92     830.2957      54.8101     134.1035         9     1.060     0.626 -29.96   0
       539    270.6784    148.7677 307.8252512  +6.6189647     712.0084     1192.295     1348.441     77.82263     155.5217     310.9197      1.720     4.29     829.8259      54.8101     113.8907         8     1.200     0.659 -63.90   0
       540    127.2609    147.2392 307.8848822  +6.6147757     4607.535     7399.223     7570.651     77.94606     155.5217     311.0125      1.715     3.94     831.0506      54.8101     592.8605        30     1.504     1.024 -42.28   0
       541    589.0591    145.7525 307.6930841  +6.6308844     638.4274     1130.013     1261.114     77.94606     155.5217     311.0434      1.732     3.79     820.6925      54.8101     108.6545         5     0.841     0.491 -51.63   0
       542    398.0594    143.2267 307.7725192  +6.6255275     3369.637     6222.667     6420.931     77.57518     155.5835      310.796      2.000     4.33     823.1064      54.8101     440.0677        37     1.652     1.262 -63.89   0
       543    655.2228    144.1679 307.6656495  +6.6337526     815.4839     1234.006     1495.415     77.45116     155.3361     310.7341      1.609     5.57     820.8162      54.8101     107.4178        10     1.175     0.745 -62.89   0
       544    466.4377    144.3328 307.7440746  +6.6273633     1299.094     1919.894     1857.549     77.82263     155.4599     311.0434      1.803     6.06      820.974      54.8101     163.8613        16     1.277     0.885 -49.75   0
       545    362.4866    142.1092 307.7873351  +6.6247955     3003.241      4731.47     4977.746     77.69901     155.9538     311.0743      1.707     4.02     824.3958      54.8101      405.507        23     1.476     0.887 -39.61   0
       546    116.8167    141.9882 307.8893982  +6.6165924     1724.926      2875.94     2911.464     77.69901     155.2123     310.8579      1.826     4.45     831.1008      54.8101     209.4598        16     1.264     0.894 -28.88   0
       547    574.6426    141.9977 307.6991996  +6.6319520      642.314     1220.474     857.4055     77.32694     155.1504     310.6413      1.797     4.91     820.4344      54.8101     101.3029         9     1.411     0.483 -26.30   0
       548    678.2639    139.8640 307.6562214  +6.6363002     698.4489     1074.967     1370.557     77.94606     155.5217     310.9815      1.599     4.19     820.6381      54.8101     117.9496         7     1.143     0.438 -59.74   0
       549   1009.2543    136.2810 307.5188265  +6.6488298     1382.439     2224.417     2558.183     77.94606     155.5217     311.0125      1.779     5.77     817.4831      54.8101     198.7595        12     1.376     0.730 -45.18   0
       550    214.3658    131.0288 307.8492432  +6.6243966     5182.522     8079.424     7931.272     77.45116     155.2742     310.7341      1.639     3.81     830.0724      54.8101     688.2225        30     1.477     1.002 -45.02   0
       551     97.0883    131.1380 307.8979600  +6.6204082     2075.232     3363.606     4207.393     77.94606      155.707     311.0125      1.943     4.25     831.0693      54.8101     255.5225        24     1.465     1.030 -37.01   0
       552    676.1680    129.8471 307.6574283  +6.6403657     5940.328     9237.997     9826.725     77.57518     155.5217     310.8579      1.649     3.70     820.1559      54.8101     856.5351        30     1.454     0.997 -38.21   0
       553    852.6085    130.6078 307.5840981  +6.6459471     473.5105     749.9153     1385.191     77.32694     155.3361     310.8269      2.747     3.89     818.9889      54.8101     66.66595         5     1.052     0.413  74.39   0
       554    824.2034    129.4587 307.5959380  +6.6454732     1020.933     1450.161     1324.115     77.32694      155.398     310.7032      1.426     4.28     819.2419      54.8101     156.7878        10     1.316     0.512 -35.77   0
       555    628.2945    127.1701 307.6774077  +6.6398695     9080.236     14403.86      15691.7      78.0693     155.2742     310.8579      1.725     3.77     819.9652      54.8101     1182.879        43     1.577     1.139 -37.49   3
       556    631.8359    118.6590 307.6762222  +6.6435020     52132.07     80802.86     86069.02     77.94606     155.5217     310.9506      1.679     3.71     819.5936      54.8101     7105.968        78     1.661     1.228 -38.64   3
       557    262.8519    127.5551 307.8292175  +6.6274596     798.4676     1034.694     1086.756      78.0693     155.4599     310.9506      1.603     4.67     829.8396      54.8101     111.5981         9     1.139     0.544 -60.65   0
       558    753.2536    139.8270 307.6250675  +6.6388224     569.7109      872.579     204.6788     77.69901     155.6453     310.8888      1.625     4.98     820.3598      54.8101     90.59149         7     0.977     0.719 -74.90   0
       559     26.9583    126.0910 307.9272641  +6.6201316     864.7434     1345.052     1096.758     77.94606     155.5217     311.0125      1.558     4.24     835.4512      54.8101       133.33         7     1.080     0.515 -41.06   0
       560    355.4170    122.8686 307.7909200  +6.6325019     3599.104     6109.792     6746.875     77.45116      155.398     310.8579      1.816     4.58     824.6341      54.8101     456.1158        30     1.662     0.988 -41.60   0
       561    537.1198    122.1622 307.7154552  +6.6388849     1607.993     2505.617     2313.088     77.82263     155.5835     310.9197      1.633     4.32     819.5192      54.8101     210.4541        15     1.254     0.795 -44.23   0
       562   1001.8733    121.4940 307.5223878  +6.6546889      811.923      1126.11     680.1844     77.82263     155.6453     310.9506      1.520     4.90     816.8365      54.8101     145.7924         8     1.073     0.705 -51.23   0
       563    311.0056    112.3844 307.8097236  +6.6353399     3569.946     5545.227     6103.448     77.57518     155.2123      310.796      1.676     3.74     827.9923      54.8101     452.1311        27     1.480     0.968 -46.27   0
       564    506.6063    110.2939 307.7285312  +6.6427628       498.21     785.0185     691.6564     77.57518     155.2123     310.7651      1.726     3.44     819.3172      54.8101     85.06598         5     0.743     0.460 -73.64   0
       565    710.7935    107.0941 307.6438062  +6.6509175     793.4298     1330.997     1237.934     77.57518     155.2123     310.7651      1.508     4.85     818.8441      54.8101     128.5612         9     1.182     0.563 -62.57   0
       566      8.4986     95.3738 307.9359705  +6.6321916       744254      1662449      1845226      78.0693     155.2742     310.8888      2.278     5.51     835.6295      54.8101     60645.45       438     2.299     1.904 -47.95  28
       567    682.3922    105.9423 307.6556447  +6.6504434     1268.187     2088.544     1832.863     77.32694      155.398     310.7341      1.683     5.35     818.9489      54.8101     194.1367        16     1.495     0.791 -30.42   0
       568    696.2345    102.6706 307.6500035  +6.6522571     3108.158     4763.955     4965.355     77.82263     155.4599     310.9815      1.645     3.86     818.7241      54.8101     418.4266        21     1.321     0.878 -38.29   0
       569    438.0085     93.6209 307.7575915  +6.6473474     3967.776     6262.502     5929.333     77.57518     155.3361     310.7341      1.638     3.92     820.4954      54.8101     548.0658        29     1.466     1.006 -45.35   0
       570    910.6320     88.9914 307.5613847  +6.6650658     3919.153     6000.044     6350.282     77.45116     155.3361      310.796      1.630     4.41      816.482      54.8101     537.1184        26     1.449     0.963 -38.61   0
       571    892.6347     89.9619 307.5688298  +6.6640646     2148.112     3486.665     3953.346     77.69901      155.398     310.7341      1.706     4.16      816.597      54.8101     301.2283        18     1.382     0.855 -35.45   0
       572    590.4709     89.6974 307.6943807  +6.6540749     756.2693     977.2255     850.5145     77.82263     155.6453     310.9815      1.598     4.71     818.3582      54.8101     126.9128         7     1.131     0.556 -49.13   0
       573    602.6342     87.5468 307.6893994  +6.6553699     1633.275     2555.976     2830.131     77.82263     155.5217     310.8888      1.616     4.17     818.3093      54.8101     226.3154        15     1.306     0.764 -38.76   0
       574    248.4811     86.6775 307.8365655  +6.6438534     768.8804     1440.002     1859.796     78.19234     155.7687     311.1052      2.163     6.65     829.7216      54.8101     98.49524        13     1.552     0.799 -52.03   0
       575    401.3698     85.4994 307.7730867  +6.6494718     1902.865     3029.398     2865.238     77.94606     155.2742     311.0125      1.626     3.98     822.0892      54.8101     269.1223        19     1.396     0.857 -32.63   0
       576    149.2376     82.2895 307.8779440  +6.6423295     3038.689     4818.476     5062.475     77.94606     155.4599     310.9815      1.695     3.72     829.5135      54.8101     408.6824        25     1.408     0.972 -39.24   0
       577     31.1466     80.0596 307.9270791  +6.6392766     11722.19     19151.24     21536.19     77.94606     155.4599     310.9506      1.781     3.77     833.0952      54.8101     1498.682        53     1.637     1.285 -36.48   0
       578    765.9713     79.7113 307.6217997  +6.6640673     788.1199     1380.696     2121.251      78.0693     155.2742     310.8579      2.286     5.76     817.2294      54.8101     101.5634        10     1.285     0.728 -61.72   0
       579    297.6604     80.7054 307.8163351  +6.6479707     1291.266     2076.401       2171.7     77.82263     155.5217     311.0434      1.675     4.13     828.9092      54.8101     182.1118        13     1.259     0.679 -42.87   0
       580    558.6913     79.3557 307.7079316  +6.6572806     670.2058     1222.936     1221.509     77.94606     155.4599     311.0743      1.914     6.11     818.1168      54.8101     103.5698        11     1.793     0.586 -38.07   0
       581    832.8849     74.7706 307.5941638  +6.6683421     6031.255     9376.771     10257.76     77.94606     155.2742      310.796      1.671     3.70     816.4003      54.8101     773.3192        35     1.482     1.076 -36.62   0
       582    778.0410     75.0746 307.6169405  +6.6663849     3212.178     4882.096     5049.092     77.82263     155.5217     310.9815      1.578     3.92     816.9144      54.8101     393.5646        24     1.369     0.946 -48.77   0
       583    423.2710     75.2691 307.7643319  +6.6544300     1113.477      1645.74     2075.436     77.94606     155.6453     310.9197      1.570     4.93     820.9442      54.8101     152.7819        11     1.174     0.648 -42.01   0
       584    102.3919     75.3832 307.8976389  +6.6436051     532.4918     828.8063     980.9303     77.57518     155.2742      310.796      1.770     5.31     829.4976      54.8101     91.21442         5     0.983     0.812  79.32   0
       585    570.7684     80.5458 307.7028739  +6.6571937      658.496      1010.41     836.3013     77.82263     155.5835     310.9197      1.582     4.82     818.1487      54.8101     91.65778         6     1.196     0.550 -47.93   0
       586    540.3920     73.3371 307.7157368  +6.6591526     1009.391     1556.033     1511.188     77.32694     155.2742     310.7651      1.748     3.43     818.0685      54.8101     165.3739        10     1.085     0.624 -49.12   0
       587     55.6398     73.1151 307.9171383  +6.6429681     850.2567      1452.15     2002.545     77.94606     155.4599     310.9197      1.960     6.24     831.4208      54.8101     106.6718        11     1.257     0.871 -13.33   0
       588    432.5174     72.0203 307.7605997  +6.6560813     984.8358     1527.805     1661.516     77.69901     155.2123     310.8888      1.678     5.46     820.5436      54.8101     121.0652        11     1.034     0.814 -30.73   0
       589     71.3686     72.0236 307.9106407  +6.6439481     3055.771     4915.214     5377.946     77.32694     155.3361     310.7341      1.694     4.02       830.67      54.8101     410.7288        23     1.447     0.903 -44.53   0
       590    595.4989     68.6588 307.6929984  +6.6629293     1238.597     1897.248     1927.605     77.69901     155.5217     311.0743      1.679     4.39     817.8204      54.8101     166.7773        15     1.256     0.907 -48.61   0
       591     14.0038     67.5401 307.9346239  +6.6438680     2387.363     4203.602     5014.283     77.32694      155.398     310.7032      1.957     3.90     833.0023      54.8101     279.3442        26     1.481     1.010 -47.89   0
       592    772.5059     62.6171 307.6196580  +6.6713433     1917.245     2946.423     2619.455     77.82263     155.3361      310.796      1.675     4.01      816.459      54.8101     265.7451        20     1.387     0.918 -45.90   0
       593     86.2195     63.2379 307.9047677  +6.6480751      754.528     1353.061     802.1781     77.57518     155.3361     310.6723      1.700     3.40     829.7339      54.8101      128.838         6     0.887     0.601 -58.26   0
       594    413.4459     62.6496 307.7688386  +6.6593106     994.4083     1587.807     1391.438     77.94606      155.398     310.9815      1.618     3.93     821.4161      54.8101     163.7611         9     1.254     0.578 -36.19   0
       595    110.1862     61.5148 307.8948689  +6.6495928     821.3724     1296.971     1355.346     77.57518     155.2742     310.8579      1.780     4.46     829.2633      54.8101     160.6406        10     1.219     0.577 -46.58   0
       596     99.2154     56.2583 307.8996042  +6.6513939     9159.247     14664.04     15120.12     77.32694     155.4599     310.7032      1.715     3.83     829.1737      54.8101     1248.861        42     1.537     1.137 -39.55   0
       597    428.1823     56.0210 307.7629391  +6.6625414      2463.07     3878.424      3341.81     77.69901      155.398     310.8579      1.653     3.77     820.6842      54.8101     313.2825        22     1.326     0.969 -41.97   0
       598    249.3665     55.7366 307.8372407  +6.6566573     603.3613     948.9951     973.2583     77.82263     155.5835     310.9197      1.702     5.26     829.4028      54.8101     109.6934         5     1.053     0.741 -37.38   0
       599    266.0265     50.5701 307.8304932  +6.6593499     1432.393     2588.364     3334.989     77.45116     155.3361      310.796      1.938     5.01      829.338      54.8101     191.1354        20     1.650     0.886 -43.71   0
       600    641.9836     48.3814 307.6743659  +6.6728567     18135.49     27787.69     29467.62     77.69901     155.2742     310.8888      1.639     3.73     817.2079      54.8101     2340.319        49     1.539     1.134 -44.18   0
       601    671.5020     49.3720 307.6620682  +6.6734352     626.4235     864.7284     481.4839      78.0693     155.2742     310.9197      1.289     3.42     817.2355      54.8101     154.4081         5     0.775     0.436 -67.56   0
       602    541.8992     44.4304 307.7160822  +6.6711376     5200.647      8022.14      8440.85     77.94606     155.2742     311.0125      1.679     3.85     817.4925      54.8101     736.6807        32     1.515     1.019 -43.05   0
       603    697.7241     43.1765 307.6513812  +6.6768701     638.5734     973.7963     1825.697     77.57518      155.398     310.8888      2.276     4.57     816.6374      54.8101      97.9884         8     0.949     0.626  80.31   0
       604    267.9365     40.4471 307.8300409  +6.6635934     8748.628     14135.18      15850.3     77.82263      155.398     311.0125      1.754     3.70     829.2336      54.8101     1115.276        46     1.639     1.166 -41.22   0
       605      9.0626     42.9119 307.9375088  +6.6538692     1188.548     1814.619     1968.312     77.82263      155.707     310.9815      1.565     3.58     831.0495      54.8101     213.7415        12     1.230     0.659 -48.23   0
       606    629.6104     42.1212 307.6797171  +6.6750273      1042.02     1778.549     2338.679     77.57518     155.2742      310.796      1.679     4.61     817.0427      54.8101     168.3281        10     1.296     0.652 -42.42   3
       607    628.1168     38.1762 307.6804702  +6.6766061     3124.887     4942.416     5981.981     77.82263     155.2742     310.8888      1.689     3.79     816.9325      54.8101     416.8094        24     1.377     0.960 -38.14   2
       608    447.2956     40.0355 307.7555359  +6.6697820     22202.63      34945.3      36869.2      78.0693      155.398     311.0743      1.687     3.67      819.681      54.8101     2897.367        53     1.574     1.184 -35.85   0
       609    327.5393     40.9463 307.8052610  +6.6653886     1150.893     1781.844      1936.15     77.94606     155.4599     310.9197      1.693     3.84     826.7924      54.8101      152.586        13     1.137     0.802 -27.24   0
       610    925.2642     40.0616 307.5569436  +6.6857556     1919.293     2820.381      3080.43     77.94606     155.5217     310.9815      1.573     3.77      813.958      54.8101     241.0259        17     1.218     0.840 -52.96   0
       611    532.6152     40.2944 307.7200786  +6.6725343     642.9953     896.1495     915.7192     77.69901     155.2742     310.7651      1.574     5.28     817.5002      54.8101     86.07794         7     0.925     0.850  -6.83   0
       612     33.3387     39.9414 307.9275237  +6.6559131      2405.03     3781.275     4045.036     77.94606     155.4599     310.9815      1.707     3.96     830.2729      54.8101     349.7276        20     1.362     0.926 -43.78   0
       613    260.0879     44.6372 307.8331605  +6.6615999     1956.748     3059.119      4426.08     77.94606      155.398     310.9506      1.762     3.92     829.2847      54.8101     253.6934        19     1.282     0.930 -31.61   0
       614    255.8724     37.1645 307.8351638  +6.6645434     2972.838     4728.729     5395.059     77.82263     155.5217     310.9506      1.693     3.74     829.2078      54.8101     403.6713        24     1.382     0.998 -47.06   0
       615    308.6732     35.4583 307.8132841  +6.6670210     1101.929     1833.482     2304.438      78.0693     155.5217     310.9197      1.755     5.05     827.9648      54.8101     146.2938        12     1.171     0.797 -23.42   0
       616    945.9587     30.5938 307.5486619  +6.6903549     834.4453     1487.461     1589.503     77.20252     155.2123     310.6723      2.110     5.48     812.7317      54.8101     148.9244        10     1.236     0.685 -49.69   0
       617    697.0480     29.7187 307.6521137  +6.6824037     1745.743     2866.639     2907.798     77.94606     155.5217     310.9815      1.725     3.79       816.23      54.8101     249.0359        17     1.279     0.887 -43.56   0
       618    102.3405     30.2484 307.8991839  +6.6622372     493.4519     716.1653      613.581     77.94606     155.5217     311.0125      1.549     4.29      828.723      54.8101     80.50171         5     0.928     0.566 -38.45   0
       619     13.7006     26.3399 307.9361420  +6.6608671     456.7249     831.1562     562.4244     77.69901     155.4599     311.0743      1.835     4.98     829.5211      54.8101     92.06561         5     1.132     0.620 -52.59   0
       620    262.4442     25.2398 307.8328353  +6.6696873     695.1516     1053.803     1117.023     77.69901     155.5217     310.8579      1.531     4.54     829.0913      54.8101     120.2878         8     1.329     0.440 -44.72   0
       621    207.9586     25.4884 307.8554641  +6.6677540     682.4269     701.5082    -18.86679     77.94606     155.4599     310.9815      1.359     3.90     828.9664      54.8101     99.46863         7     0.938     0.596 -60.00   0
       622    963.3465   1018.8874 307.5083828  +6.2828891     5487.918     10315.02     11512.56     77.94606      155.398     296.1937      2.054     4.27     843.6304      54.8101     596.6863        47     1.734     1.346 -45.32  16
       623    247.5496   1019.1287 307.8055442  +6.2588484      1163.11     1922.769     1971.185     77.94606     155.5217     293.8803      1.798     4.79      851.162      54.8101     155.3063        15     1.313     0.888 -74.47  16
       624    529.5344     20.6396 307.7220193  +6.6805458     2839.155     4243.142     4120.954     77.94606     155.4599     311.0743      1.634     3.62     817.1586      54.8101     411.5944        23     1.341     0.981 -36.64   0
       625    723.1217   1016.8798 307.6081841  +6.2757020     2333.967     4262.754     5505.647     78.19234     155.7687     310.0838      2.308     4.65     849.7369      54.8101     281.4677        26     1.569     1.044 -37.16  18
       626    446.3951   1017.8875 307.7230360  +6.2660284     824.1385     1107.239      797.514     77.45116     155.2123     304.0099      1.478     4.63     853.4325      54.8101     124.8736        10     1.088     0.672 -51.78  16
       627    738.4624   1016.5576 307.6018260  +6.2763475     1042.588     1502.113      1985.51     77.94606     155.4599     311.0434      1.562     3.44     849.6191      54.8101     163.0395        12     0.951     0.855 -66.88  16
       628    790.7556     15.8340 307.6136441  +6.6912682     474.0567     689.4913     405.8437     77.57518     155.4599     310.8269      1.433     4.29     814.3266      54.8101     91.45874         5     0.755     0.696 -36.60   0
       629    370.0550   1014.1768 307.7548534  +6.2650022     1617.184      2710.25     2674.501     77.57518     155.5217     310.7651      1.804     6.21     853.2096      54.8101     196.9916        22     1.818     0.870 -41.84  16
       630    708.3386   1011.7769 307.6144926  +6.2773149     564.1298     722.0143     743.9778     77.57518     155.4599     310.8579      1.496     5.25     849.7378      54.8101     100.6115         5     1.049     0.741 -36.13   0
       631    756.6255   1003.9721 307.5947067  +6.2821504     6753.877        11919     12722.53     77.45116     155.3361     310.8269      1.891     4.02     848.7902      54.8101     764.0659        43     1.605     1.271 -44.05   0
       632    552.1744   1004.4447 307.6795723  +6.2751202     3867.368     6588.374     6969.102     77.45116     155.5835     310.8269      1.834     4.16     851.6998      54.8101     478.9605        31     1.537     1.103 -43.57   2
       633    549.3046    996.7413 307.6810223  +6.2782047     7458.766     12616.74     14021.68     77.82263     155.5217     311.0743      1.858     4.10     851.5135      54.8101     940.5894        41     1.540     1.250 -44.23   2
       634    522.4276   1005.6671 307.6918810  +6.2736199     968.7394     1467.683     1567.512     77.57518     155.4599     310.8579      1.744     5.02     852.1777      54.8101     141.3289        12     1.102     0.782 -32.60   0
       635    302.3514   1003.1379 307.7833316  +6.2672893     13726.89      23114.6     25528.09     77.94606     155.4599     311.0125      1.860     4.20     851.9522      54.8101     1665.021        61     1.936     1.195 -37.59   0
       636    817.8793   1003.2453 307.5693002  +6.2844956     812.8474      1413.49     1558.648     77.94606     155.5217     310.9506      1.828     6.90     847.4953      54.8101     93.31696        15     1.364     0.979 -37.87   0
       637    426.9188   1003.3412 307.7316104  +6.2713816     919.6379     1439.198     943.2077     77.94606     155.5835     310.9506      1.710     5.57     852.8046      54.8101     133.8144        13     1.279     0.797 -40.25   0
       638    273.3397   1000.9088 307.7954508  +6.2672363     783.2733     1317.114     1473.927     77.82263     155.5835     311.0125      1.861     5.59     851.3307      54.8101     107.5146        10     1.313     0.671 -43.67   0
       639    918.0134    997.4261 307.5279214  +6.2902387     7494.431     13405.96     14304.81     77.69901     155.3361     310.8888      1.901     4.00     845.4364      54.8101     828.1828        46     1.668     1.306 -41.80   0
       640    891.6252    993.6055 307.5390050  +6.2909362     10574.26     19364.96     21285.38     77.45116     155.3361      310.796      1.979     4.17     846.1148      54.8101     1190.042        56     1.757     1.385 -37.09   0
       641   1013.1500    993.1909 307.4885639  +6.2951582     3826.035      7416.66     8301.927     77.45116      155.398     310.6413      2.062     4.80     840.8621      54.8101     449.8083        38     1.649     1.306 -42.63  16
       642    604.2985    994.1082 307.6582789  +6.2811317     1321.374      2096.71     2086.779     77.94606     156.0154     310.9197      1.714     5.17      851.438      54.8101     169.1272        12     1.132     0.756 -55.91   0
