#   1 NUMBER                 Running object number                                     
#   2 X_IMAGE                Object position along x                                    [pixel]
#   3 Y_IMAGE                Object position along y                                    [pixel]
#   4 ALPHA_J2000            Right ascension of barycenter (J2000)                      [deg]
#   5 DELTA_J2000            Declination of barycenter (J2000)                          [deg]
#   6 FLUX_APER              Flux vector within fixed circular aperture(s)              [count]
#   9 FLUXERR_APER           RMS error vector for aperture flux(es)                     [count]
#  12 FLUX_RADIUS            Fraction-of-light radii                                    [pixel]
#  13 FWHM_IMAGE             FWHM assuming a gaussian core                              [pixel]
#  14 BACKGROUND             Background at centroid position                            [count]
#  15 THRESHOLD              Detection threshold above background                       [count]
#  16 FLUX_MAX               Peak flux above background                                 [count]
#  17 ISOAREA_IMAGE          Isophotal area above Analysis threshold                    [pixel**2]
#  18 A_IMAGE                Profile RMS along major axis                               [pixel]
#  19 B_IMAGE                Profile RMS along minor axis                               [pixel]
#  20 THETA_IMAGE            Position angle (CCW/x)                                     [deg]
#  21 FLAGS                  Extraction flags                                          
         1    151.9454     23.9099 307.8653264  +6.6680082     3001.429     10253.14     15714.54     93.53331     186.6951     373.8733      3.328     8.60     1248.517     65.87506     336.1147        88     2.682     2.149 -22.34   0
         2    897.4090     21.1151 307.5554166  +6.6937950     1474.218     4322.792     6574.544      93.2359     186.5463     373.5389      3.321    11.28     1215.057     65.87506     187.8079        42     2.258     1.589 -29.25   0
         3    963.0963     17.3169 307.5282261  +6.6975259     771.8625     2147.129     3696.522     93.53331     187.3633     373.8362      3.264     7.52     1211.654     65.87506     101.4004        10     1.667     0.950 -82.93   0
         4    681.6138     13.8507 307.6454031  +6.6896870     2159.901      7127.47      10353.5     92.93755     186.9181     373.4273      3.176     8.65     1220.318     65.87506     261.1958        69     2.434     1.987 -22.12  16
         5    602.0070     13.1908 307.6785309  +6.6873326     1224.946     3561.416     4681.294     92.93755     186.6951     373.5389      2.881     9.84     1222.461     65.87506     155.1017        29     1.861     1.526  86.61   0
         6    402.1775      9.6010 307.7617522  +6.6822118     1751.201     5933.008     10148.02      93.2359     186.5463     373.4273      3.576    11.90     1237.769     65.87506     218.0289        73     2.851     2.126 -25.93  16
         7      3.3287      9.7728 307.9276029  +6.6689172     2601.095     7646.358     10401.07     93.38473     178.0919     317.0774      2.933     8.63     1249.191     65.87506     337.6218        59     2.207     2.027 -48.61  26
         8    298.7046      4.8003 307.8049431  +6.6807707     3445.175     11986.21     18792.39     93.08685     186.4718     339.1689      3.394     8.97     1248.904     65.87506     415.8208        90     2.834     2.069 -25.09  24
         9     73.2967      6.2433 307.8986277  +6.6726996     808.1406      2234.97       4130.3     93.68166     186.8438     357.5068      3.735     5.17     1249.187     65.87506     107.0044         8     1.343     0.563  40.54  16
        10    364.7620      4.5580 307.7774814  +6.6830580     767.9724     1491.988      2411.04     93.38473     186.9181     335.9602      2.144     4.31     1241.736     65.87506     113.3113         8     1.074     0.629 -78.60  16
        11    623.8375      1.1738 307.6698562  +6.6930199     1105.445     1552.211     1694.473      78.5213     145.3796     277.8647      1.539     4.99      1221.97     65.87506     225.3262        11     2.049     0.343  -4.55  24
        12    611.8827    992.0196 307.6415518  +6.2830937     847.9482     1554.942     2370.062      93.2359     186.5463     373.6504      2.251     5.52     1277.956     65.87506     111.2084         8     1.385     0.620 -16.72   0
        13    455.6559    989.3278 307.7065596  +6.2790488     1046.822     2391.243     3487.697     93.53331     186.8438     373.6876      2.894     8.18     1276.988     65.87506     133.6315        15     1.671     1.118  12.01   0
        14    890.2414    981.2246 307.5262431  +6.2967250     24112.73     55627.89     68807.84      93.2359     186.7694     373.4645      2.540     6.38      1274.97     65.87506     2619.026        96     2.525     1.548 -19.81   0
        15    196.5593    979.7608 307.8145421  +6.2744318     735.2669     1622.755      2537.29     93.38473     186.9924      373.576      3.067     4.96     1276.644     65.87506     100.7798         6     0.952     0.732  19.38   0
        16    789.3518    973.6787 307.5684206  +6.2965234     983.4557     2421.248     3516.306     93.68166     186.9924     373.6504      3.029     6.45     1275.068     65.87506     149.1799        10     1.565     0.746   6.73   2
        17    736.4218    972.9387 307.5904404  +6.2950858     3235.081     8235.057     10645.94      93.2359     186.9181     373.6132      2.771     7.22     1275.094     65.87506     354.1378        56     2.402     1.505 -24.53   0
        18     31.8160    969.3449 307.8833462  +6.2732755     1067.807     2696.178     4446.632     92.93755     186.8438     373.3902      3.294     8.18     1273.928     65.87506     134.9548        17     2.208     0.847 -35.74   2
        19    924.5031    967.9277 307.5124504  +6.3033478     3822.732     8722.363     10303.45     93.53331     187.0666     373.6876      2.457     6.35      1273.99     65.87506     463.5881        50     2.347     1.279 -26.09   0
        20    897.3561    959.5302 307.5240125  +6.3059259     1175.776     2330.286     2700.767     93.68166     186.9181     373.7619      2.138     6.90     1273.514     65.87506     140.5839        18     1.334     1.207  75.13   0
        21    618.8222    956.0008 307.6398768  +6.2982098     1969.177     5510.716      6514.42      93.2359     186.5463     373.3902      2.768     9.33     1276.433     65.87506      217.192        45     2.325     1.427 -17.60   0
        22    231.8278    956.2758 307.8006785  +6.2853063     1711.396     4859.522     5657.938     93.53331     186.9181     373.6876      2.772     9.27      1276.54     65.87506     196.2771        40     2.106     1.487  -6.10   0
        23      1.1310    953.6823 307.8966248  +6.2787306      711.415     1122.813     889.1924      78.5213      144.997     277.1141      1.536     2.89     1273.517     65.87506     165.9512         5     0.929     0.334  86.82  24
        24    582.7635    943.8047 307.6552704  +6.3020611     499.3394     972.0684     1742.851     92.63823     186.6207     373.5017      2.125     4.41       1276.3     65.87506     110.7252         5     1.447     0.382   4.40   0
        25    261.3217    942.9575 307.7888715  +6.2917874     558.5758     1603.071     2463.688     93.53331     186.9181     373.7619      3.121     5.03     1276.199     65.87506     109.5037         5     1.040     0.687  26.99   2
        26    867.0782    935.0400 307.5374146  +6.3150521     3461.399     8238.526     10368.31     93.53331     186.9181     373.7619      2.600     6.74     1271.978     65.87506     386.2865        56     2.436     1.448 -18.70   0
        27    305.0684    931.0605 307.7710937  +6.2981524     3787.431     10609.96     14368.19     93.82977     186.8438     373.7247      2.932     7.30     1276.114     65.87506     375.9457        71     2.512     1.732 -21.09   0
        28    225.2994    930.0526 307.8042746  +6.2959284     2945.498     8044.215     11198.87     93.68166     186.9181     373.9847      2.928     7.90     1275.393     65.87506     280.8862        61     2.457     1.626 -16.29   0
        29    403.4614    931.8018 307.7301823  +6.3011002     912.4355     2318.528      3541.09     92.93755     186.6951     373.3902      3.151     7.89     1276.093     65.87506     107.6869        14     1.707     1.021 -82.82   0
        30    718.2625    912.6993 307.6000060  +6.3193857     779.5259     1802.989     2336.254     93.38473     186.9924      373.799      2.624     4.35     1272.631     65.87506     115.6597         5     0.964     0.559  36.54   0
        31    950.6970    908.2169 307.5035624  +6.3288891     680.1366     1299.539     1919.856     93.53331     186.6951     373.4645      1.732     4.43     1268.966     65.87506     111.3694         5     1.180     0.474 -29.75   0
        32    637.3336    905.8865 307.6338659  +6.3195336     1194.569     2638.791     3091.405     93.68166     187.1408     373.7619      2.355     7.45     1273.861     65.87506     148.6337        21     1.635     1.107 -34.08   0
        33     35.3555    903.1882 307.8841084  +6.3007355     1221.419     3529.859     4709.295     93.08685     186.7694     373.3902      2.825     9.97     1273.058     65.87506     134.0627        31     1.937     1.430 -39.15   0
        34    178.6966    902.7217 307.8245608  +6.3056808     884.8804     2181.354     3032.696     93.38473      187.215      373.799      2.784     8.43     1275.024     65.87506     111.6454        14     1.580     1.256   6.31   0
        35     52.8556    902.0002 307.8768766  +6.3018071     981.9031     2310.325     2373.331     92.78801     186.4718     373.2786      2.342     6.83     1273.216     65.87506     156.9966        14     1.446     0.904   8.00   0
        36    632.5344    895.9201 307.6361946  +6.3234946     2846.208     7432.279      9527.16     93.97765     187.0666     373.6876      2.793     8.27     1273.555     65.87506      306.436        55     2.368     1.688 -12.06   0
        37    315.7888    889.4240 307.7680405  +6.3157159     5936.802     17538.07     25752.59     93.23591     186.6951     373.6132      3.157     7.82     1275.401     65.87506     587.5427        96     2.692     2.021 -20.25   0
        38    870.1474    891.7305 307.5375889  +6.3330540     1401.353     3301.308     4053.272     93.53331     186.7694     373.6132      2.664     7.65     1269.195     65.87506     172.0249        27     1.792     1.171 -33.48   0
        39    794.7738    872.5802 307.5695542  +6.3384883     1296.442     3536.653     4792.717     93.08685     186.6207     373.6132      2.922    11.08     1269.669     65.87506     151.4603        34     2.279     1.501 -36.65   0
        40     61.8065    873.9932 307.8741023  +6.3136793      963.391     3001.456     4063.446     92.93755     186.6951     373.5389      3.104     9.18     1272.605     65.87506      127.089        17     2.273     1.035  14.29   2
        41    831.0903    871.8901 307.5544847  +6.3399691     874.0052     1964.934     2703.325     93.68166     187.5115     373.8362      2.870     4.39      1268.84     65.87506     112.8788         6     0.806     0.681 -22.73   0
        42    530.6564    864.3281 307.6795929  +6.3331902     125799.9     360919.3     507212.4     93.53331     186.8438     373.6876      3.027     7.28     1273.808     65.87506     12886.66       200     2.864     2.063 -18.30   0
        43    375.0877    867.0649 307.7441506  +6.3269186     2886.856     8631.282     12316.83     93.68166     187.1408     373.7247      3.121     8.14     1274.604     65.87506     292.9512        66     2.391     1.900 -22.88   0
        44    318.1686    865.5480 307.7678552  +6.3256628      4401.94     13096.04     18846.16     93.53331     187.0666     373.6504      3.195     8.31     1274.954     65.87506     420.9274        83     2.768     1.870 -23.44   0
        45    636.3209    861.3918 307.6357797  +6.3378907     1382.417      3977.98     5554.164     93.23591     186.3228     373.5389      3.052    11.05     1271.912     65.87506     169.1051        37     2.205     1.543 -23.44   0
        46    868.8831    860.1176 307.5391726  +6.3460788     2381.738      6189.96     8202.277     93.38473      187.215     373.8362      2.906     8.61     1267.253     65.87506     291.8994        55     2.605     1.496 -22.54   0
        47    611.7454    855.1858 307.6462011  +6.3396451     1271.991     3504.373     5723.449     92.93755     186.8438     373.3902      3.544     9.22     1272.125     65.87506      180.145        26     1.660     1.430 -14.25   0
        48   1002.3062    854.0406 307.4839259  +6.3529779     2644.188     6057.931      7444.77     93.82977     186.8438     373.8362      2.506     6.98      1263.51     65.87506     294.6587        42     2.186     1.284 -23.63   0
        49    859.0743    873.9742 307.5427851  +6.3400288     956.6875     1811.632     1694.335      93.2359     186.7694     373.6876      2.076     5.98       1268.3     65.87506     119.4905        11     1.130     0.889 -60.81   0
        50    604.4819    848.5053 307.6494439  +6.3421667     746.3313     2139.035     3794.351     93.38473     187.2892     373.8362      3.324     5.64     1271.867     65.87506     97.34802         8     1.178     0.761  21.00   2
        51    887.6478    847.5853 307.5317936  +6.3518761     1727.285     4055.079     5044.279     92.93755     186.8438     373.4273      2.701     7.31      1266.28     65.87506     177.2565        27     1.661     1.279 -49.11   0
        52    344.5528    845.9592 307.7575501  +6.3346320     755.5792     1446.075     2750.785     93.53331     186.9181     373.5389      3.466     4.25     1274.457     65.87506     106.2399         6     0.930     0.830   2.38   3
        53    346.9455    842.9875 307.7566558  +6.3359394     923.1589     2151.126     2795.038     92.93755     186.8438     373.3902      2.657     5.65     1274.408     65.87506     136.0011        11     1.381     0.651   9.72   2
        54    480.6711    833.1649 307.7014128  +6.3444197     1031.048     2823.789     5072.407     93.53331     186.9181     373.7247      4.024    11.02     1272.516     65.87506     116.0061        25     2.228     1.519  74.95   2
        55    826.8096    832.6009 307.5575796  +6.3560674     612.6295     1219.308     1925.702     92.93755     186.5463     373.4273      1.884     3.73     1266.529     65.87506     80.92603         5     1.512     0.265  40.70   0
        56    529.9269    830.0214 307.6810485  +6.3473457     2143.384     6593.917     10571.17      93.2359     186.6951     373.6504      3.566    12.07     1271.538     65.87506     254.9325        63     2.936     1.637  -8.47   0
        57    499.6840    824.0753 307.6938169  +6.3488046     6831.287     20725.06     30030.91     93.82977     187.2892     373.8362      3.163     7.92     1271.605     65.87506     726.7853       102     2.796     2.000 -19.13   0
        58    912.9559    821.8456 307.5221370  +6.3633475     1821.841     4775.409     6037.268     93.68166     186.9181     373.6504      2.779     9.46     1264.888     65.87506     234.0125        39     2.106     1.464 -22.30   0
        59    292.7885    814.1740 307.7801320  +6.3460563     998.9714     3003.363     4453.105      93.2359     186.6951     373.6504      3.273     6.28     1274.579     65.87506     138.1453        11     1.486     0.745  42.09   2
        60    757.7932    808.3336 307.5870760  +6.3638248     21907.89     60864.85     82619.38     93.08685     186.6207     373.5017      2.900     7.23     1266.468     65.87506     2213.205       115     2.738     1.860 -20.97   0
        61    215.3518    806.5306 307.8125703  +6.3466515     1926.481     6017.002      9853.58     93.68166     186.8438     373.7619      4.190     9.29     1273.609     65.87506     203.3135        58     2.329     1.852 -16.32   0
        62    680.9822    800.2207 307.6192711  +6.3646467     28643.04     93072.73     156312.8     93.38473     186.7694     373.6132      3.664     9.49       1267.6     65.87506     3321.129       207     3.766     2.368  15.69   0
        63    882.9251    803.4587 307.5352335  +6.3699594     3917.157      9966.12     12937.92     93.82977     186.9181     373.6876      2.693     7.12     1264.423     65.87506     406.1379        61     2.306     1.625 -15.83   0
        64    324.9231    800.8278 307.7672268  +6.3526359     6751.465      21080.1     31280.03     93.53331     186.9181     373.6876      3.211     8.34     1274.177     65.87506     616.7662        99     2.837     2.021 -18.05   0
        65    386.6442    798.5616 307.7416526  +6.3556141     7485.091      23216.6     33915.42     93.38473     186.8438      373.576      3.186     7.81     1273.164     65.87506     760.1901       100     2.776     2.023 -19.84   0
        66    214.8173    785.2454 307.8135097  +6.3554311     736691.4      2390002      3589750     93.08685     186.7694     373.4273      3.282     9.24     1272.346     65.87506     64273.41       572     3.083     2.436 -20.66   4
        67    924.7479    795.9930 307.5181012  +6.3744209     856.5953     2165.695     2513.822     93.08685     186.6951     373.2786      2.667     6.86     1263.915     65.87506     113.0344         9     1.841     0.717 -75.21   2
        68    620.4977    794.0250 307.6446165  +6.3652128     2253.132     6571.049     9076.129     93.82977     186.6207      373.576      3.029     8.86     1268.044     65.87506     231.0311        63     2.504     1.814 -23.10   0
        69    879.8329    794.9065 307.5368049  +6.3733925     3012.633     7892.679     10285.82     93.82977     186.7694      373.799      2.814     6.80     1264.082     65.87506     376.6794        58     2.287     1.641 -14.29   0
        70    389.5587    781.2746 307.7410229  +6.3628554     17764.17     55582.05     81016.95     93.53331     186.9181     373.7619      3.184     8.14     1271.635     65.87506     1667.848       128     2.878     2.091 -18.03   0
        71    655.9608    783.9341 307.6302165  +6.3705533      903.336     2477.617     2995.586     93.53331     186.8438     373.8362      2.613     9.43     1266.909     65.87506     112.1064        20     2.157     1.150  -8.72   0
        72    507.3496    780.1775 307.6921062  +6.3672014     2331.525     7425.207     10747.78     93.08685     186.9924      373.576      3.092     8.69     1268.587     65.87506     283.5074        64     2.486     1.771 -18.61   0
        73    424.1232    778.1750 307.7267623  +6.3652792     1472.838     4802.851     8628.175      93.2359     186.8438     373.6876      3.782    11.43     1270.708     65.87506     186.1202        53     2.305     2.012  -0.54   0
        74    752.1907    776.6207 307.5904675  +6.3767479     4441.898     12795.69     17791.91      93.2359     186.5463     373.5017      2.996     7.80     1264.118     65.87506       457.99        80     2.688     1.810 -21.47   0
        75    897.6426    764.8629 307.5304086  +6.3863962     2769.165     7019.975     9561.358     93.68166     186.8438      373.799      2.778     7.57     1262.696     65.87506     292.4613        55     2.340     1.560 -25.12   0
        76    110.8891    769.0254 307.8572472  +6.3586906      4080.58     12495.28     21696.19     93.82977     186.6951     373.5389      4.453    11.40     1269.246     65.87506      401.739       132     4.103     2.263   8.66   2
        77    947.6763    763.6454 307.5096540  +6.3885450     698.6401     1525.464     3059.456     93.53331     186.9924     373.7619      2.071     4.76     1261.587     65.87506     105.0604         8     1.382     0.465   4.98   0
        78    540.9733    762.1290 307.6787384  +6.3757714      784.143     2165.364     2642.438      93.2359     186.7694     373.6504      2.528     7.52     1266.773     65.87506     103.8221        10     1.695     0.935  60.73   0
        79    653.5103    760.9748 307.6320053  +6.3799620     682.5352     1600.593     2299.596     93.82977     186.6951     373.5389      3.139     5.25     1265.413     65.87506     94.32141         6     1.043     0.747 -26.16   0
        80    892.2976    756.6703 307.5329044  +6.3896066     1310.021     3551.643     4266.783     93.53331     187.1408     373.7619      2.710     9.35     1262.358     65.87506     158.9646        28     1.965     1.467 -16.78   0
        81    952.2576    756.1382 307.5080011  +6.3917986     842.1428     2099.002      2946.05     93.82977     186.8438     373.7619      2.972     7.05     1260.973     65.87506     109.8337         8     1.557     0.894 -16.42   0
        82    920.8221    756.4246 307.5210570  +6.3906464     1438.007     3448.415     4174.967     93.08685     186.6951     373.6876      2.597     8.52      1262.27     65.87506     169.6445        26     1.894     1.071 -14.22   0
        83    217.6151    750.8057 307.8135076  +6.3697580     1084.881     3062.411     6714.287     93.23591     186.5463     373.5389      5.831     9.76     1269.988     65.87506     123.8634        22     2.461     1.079 -16.85   0
        84    936.3423    743.7681 307.5150299  +6.3963881      1129.33      2941.94     4611.311     93.53331     186.9181     373.6504      3.489     8.53     1261.341     65.87506     166.3279        20     1.713     1.187 -15.28   0
        85   1010.5014    738.1190 307.4843957  +6.4011608     3593.529     9012.917     12244.83     93.53331     187.4374     373.8362      2.788     7.09     1256.336     65.87506     371.9795        60     2.479     1.502 -19.24  16
        86    978.6279    737.5002 307.4976642  +6.4003690     869.4921     2192.173     3192.424     93.68166     186.6207     373.6132      3.123     8.06     1258.359     65.87506     107.5001        13     1.543     1.175  -2.56   0
        87     23.2259    724.2614 307.8951894  +6.3742835     916.5395     2451.999     3406.118     93.23591     186.9181     373.6132      3.061     9.32     1264.882     65.87506     133.9518        17     1.724     1.406   6.53   0
        88    635.3848    714.0026 307.6411151  +6.3987787     1765.358     4003.001     5761.983      93.2359     186.4718     373.5017      2.974     9.01     1261.908     65.87506     214.4044        29     2.533     0.895 -20.28   3
        89    634.0915    711.2529 307.6417449  +6.3998725     2177.564     5027.312     7216.593     93.53331     186.6951     373.9105      2.789     8.90     1261.655     65.87506     224.6117        35     2.367     1.152 -23.26   3
        90    581.6953    711.7908 307.6635043  +6.3979214     624.3541     1694.911     2176.135     93.38473     186.4718     373.4645      2.909     7.38     1262.635     65.87506     97.39136         8     1.554     0.983 -79.85   0
        91     97.8748    709.1821 307.8646748  +6.3829925     1374.827     4063.157     5745.559     93.08685     186.6207     373.6132      3.143    10.84     1265.404     65.87506     147.2189        38     2.016     1.719   6.29   0
        92    971.3480    707.2064 307.5017033  +6.4126510     1223.353     3070.247     3763.012     93.08685     186.6951     373.3158      2.651     8.68     1257.043     65.87506      147.735        19     1.603     1.312 -63.70   0
        93    610.4854    707.9948 307.6516657  +6.4004404     614.6127     1867.327     3378.524     93.08685     186.5463     373.3902      3.543     6.62     1261.735     65.87506     99.80188        10     1.755     0.701  75.83   0
        94    751.2842    704.5853 307.5932591  +6.4064919     7030.916     21314.13     29850.82     93.23591     186.6207     373.6132      3.082     7.74     1258.812     65.87506     727.7677        92     2.716     1.911 -22.37   0
        95    881.4658    702.6234 307.5392159  +6.4115891     1345.165      3482.21     4713.634     93.23591     186.9181     373.6876      2.916    10.17     1258.684     65.87506     150.3605        23     2.181     1.323 -16.60   2
        96    225.2234    698.7892 307.8120986  +6.3915088     1909.968     6103.405     9539.771      93.2359     186.6951     373.6132      3.450    10.69     1266.549     65.87506     204.0786        64     2.650     1.938 -18.88   0
        97    632.0782    697.3322 307.6430489  +6.4055598     2287.076     7314.994     11412.51     93.82977     186.9924     373.7247      3.432    10.85     1260.447     65.87506     231.0032        75     2.825     1.925 -18.62   0
        98    703.3373    685.9554 307.6138126  +6.4126119     1244.289     3641.344     4576.768     93.68166     186.8438      373.799      2.961     7.20     1258.302     65.87506     163.0895        22     1.686     1.374 -83.63   2
        99    969.8193    682.0854 307.5031791  +6.4229839     4035.959     10583.56     14057.62      93.2359     186.6207     373.6504      2.766     7.15     1255.592     65.87506     406.8062        64     2.523     1.547 -20.01   0
       100    658.1489    685.1702 307.6326211  +6.4114465     487.3688     963.5248     1887.897     93.38472     187.0666     373.6132      1.874     3.87     1258.856     65.87506     76.97217         5     1.339     0.321  31.23   0
       101    908.6808    682.1336 307.5285900  +6.4209534     1052.589     2503.455     2820.368     93.82977     187.1408     373.7619      2.555     7.58     1256.618     65.87506     140.4333        15     1.725     0.931 -55.49   0
       102     47.5128    677.9284 307.8866602  +6.3942390     8397.657     26056.89     39039.77     93.82977      187.215     373.7247      3.271     8.26      1263.26     65.87506     784.9948       111     2.829     2.147 -17.85   0
       103    692.9148    668.6239 307.6187260  +6.4194318     1147.184     3268.817     4248.102     93.68166     186.6207     373.5389      2.934    11.04     1257.117     65.87506     139.9856        27     1.939     1.751 -86.85   2
       104    714.7446    667.9366 307.6096755  +6.4204355      1372.47     4211.412     5730.172     93.82977     186.8438     373.7247      3.148    11.37      1257.03     65.87506     160.4296        42     2.212     1.629 -24.24   0
       105    544.4557    664.3970 307.6805743  +6.4162807     875.4062     2112.535     4191.769     92.93755     186.6951      373.353      4.589     8.31     1260.457     65.87506     104.8772        15     1.797     1.075   8.20   2
       106    987.8212    663.4641 307.4963194  +6.4312724     2136.707     5495.069     7224.152     93.23591     186.9181      373.576      2.708     7.77      1254.48     65.87506     208.0889        40     2.083     1.403 -31.60   0
       107    953.3960    662.5444 307.5106594  +6.4305208     3511.745     9386.629     12085.52     92.93755     186.6951      373.353      2.741     7.27     1254.829     65.87506     351.2762        61     2.454     1.544 -21.64   0
       108    112.2018    656.7754 307.8604887  +6.4051275     7392.626     24112.02     36948.47      93.2359     186.5463     373.4645      3.333     8.31     1262.896     65.87506     665.8947       112     2.854     2.196 -16.52   0
       109    396.4236    655.7461 307.7423931  +6.4149649     692.4677     1602.093     2832.341     93.08685     186.9181     373.5017      2.062     3.57     1264.066     65.87506     128.0216         5     1.488     0.247 -48.80   0
       110    948.3227    645.5300 307.5133375  +6.4373864      3018.11     8277.549     11329.86     93.97765      187.215     373.6876      2.976     7.74     1254.137     65.87506     312.8678        65     2.453     1.740 -18.73   0
       111   1003.6348    640.5109 307.4905139  +6.4412793     41511.67     106530.6     139424.8     93.82977     186.8438     373.7247      2.789     6.97     1253.588     65.87506     3863.499       130     2.685     1.805 -20.62   0
       112    542.0666    641.1091 307.6823497  +6.4258271     14280.82     47325.61     72576.38     93.68166     187.0666     373.7619      3.346     8.60     1259.224     65.87506     1408.183       126     2.934     2.185 -19.36   0
       113    149.2563    637.8853 307.8457253  +6.4141634     954.2402     2548.509     3100.198     93.68166     186.9181     373.9105      2.961     8.80     1262.712     65.87506     124.0221        16     1.748     1.238   2.30   2
       114    439.3521    625.0596 307.7255825  +6.4290673     18051.44     60691.91     94957.37     93.68166     186.9181      373.799      3.398     8.59     1260.966     65.87506      1686.86       142     2.990     2.259 -19.59   0
       115   1017.4595    623.5280 307.4853353  +6.4487531     1569.206     3967.531     4480.743     93.82977     186.9181     369.0509      2.650     9.22     1252.986     65.87506     181.8185        29     1.882     1.262 -25.22  16
       116    114.8407    621.0954 307.8605958  +6.4199616      714.426     1501.624     2514.318     93.68166     186.8438     373.8733      2.757     5.26     1261.778     65.87506      100.875         7     1.328     0.589  12.03   0
       117    712.0221    610.2865 307.6127409  +6.4441737      1206.09      2210.35     3154.238     93.68166     186.6951      373.576      2.400     6.93     1254.065     65.87506     158.4507        16     1.937     0.695 -19.46   3
       118    711.1396    606.7783 307.6132254  +6.4455946     1641.427     3635.663     5240.233      93.2359     186.8438     373.6504      2.613     9.97     1253.884     65.87506      166.969        32     2.236     1.356  -7.32   3
       119    764.7087    603.5110 307.5910678  +6.4487104      4751.36     14261.07     20471.87     93.68166     187.5115     373.8362      3.085     8.02     1253.707     65.87506     471.1235        85     2.706     1.930 -19.68   0
       120   1004.5414    601.4142 307.4914447  +6.4574688     736.3093     1879.357     2324.059     92.93755     186.8438     373.3902      2.835     7.17     1251.583     65.87506     101.2344         9     1.826     0.789 -11.14   0
       121    588.6641    600.9503 307.6643301  +6.4439637     944.3589     2781.168     3941.298     93.53331     186.8438     373.7619      3.211     8.85     1255.912     65.87506      118.973        18     1.823     1.199  10.06   2
       122    841.0336    585.9067 307.5599312  +6.4585002     1087.848     2752.625     3691.499     93.82977     186.7694      373.799      2.925     9.30     1252.219     65.87506     117.0958        20     1.721     1.401 -22.47   0
       123    799.4831    584.2265 307.5772593  +6.4578266     927.2545     2501.555     2927.393     93.53331     186.6207     373.6504      2.623     7.99      1252.59     65.87506     112.7549        15     1.813     0.986  58.35   0
       124    227.9600    579.7274 307.8149740  +6.4408085     2248.101     7442.297     11903.66     93.53331     186.9181      373.799      3.471     9.89     1259.596     65.87506     270.9585        72     2.550     2.083 -15.97   0
       125    780.1126    575.4467 307.5856056  +6.4608175     50887.82     160837.8     235343.7     93.68166     186.7694     373.7247      3.206     8.15     1251.994     65.87506     4912.578       181     3.009     2.144 -20.44   0
       126    162.0175    574.3672 307.8425637  +6.4408387     16531.52      55980.5     89132.38      93.2359     186.6951      373.576      3.463     8.74     1259.859     65.87506     1588.657       149     3.033     2.320 -19.28   0
       127     86.6623    572.6985 307.8739411  +6.4390295     1627.277     3127.302     5444.061     93.38473     187.0666      373.799      2.508     7.13     1260.058     65.87506     188.8149        18     1.963     0.726 -22.01   3
       128     86.8558    569.1357 307.8739809  +6.4405084     1888.171     4802.104     7661.857     93.82977     186.9181     373.7247      3.203    11.29     1259.907     65.87506     204.6995        45     2.667     1.468  -2.32   3
       129    335.2603    561.3480 307.7709930  +6.4519574     4638.801     15949.44     25491.36     93.68166     186.8438     373.7247      3.440     8.89     1256.481     65.87506     437.0355       107     2.831     2.291 -16.53   0
       130    816.5076    562.6226 307.5709065  +6.4673166     1566.826     4312.142     5012.805     93.68166     186.6951     373.5389      2.713     9.64     1251.319     65.87506     190.8533        40     2.080     1.522 -26.67   0
       131    501.8177    558.1398 307.7018681  +6.4587904     1596.462     3432.245      6004.67      93.2359     186.8438     373.4645      3.428     9.88     1254.756     65.87506     186.3479        30     2.508     1.085  -5.59   3
       132    501.3155    554.4447 307.7022011  +6.4603010     1835.435     4336.935     6521.237     93.68166     186.8438     373.7247      3.047     9.39     1254.474     65.87506     213.1949        31     2.611     0.943  -0.24   3
       133    770.9822    558.0000 307.5899859  +6.4677278     1475.273     3083.264     4611.346     93.08685     186.3228     373.3158      2.543     8.46     1250.926     65.87506     183.4026        19     2.349     0.850  -2.70   3
       134    770.7333    554.9839 307.5901904  +6.4689662     1867.757     4504.316     6313.045     93.08685     186.7694     373.6132      2.688     9.61     1250.745     65.87506     186.2825        34     2.228     1.156   0.80   3
       135    148.8105    550.4493 307.8488600  +6.4502863     1685.372      5650.98      9455.86     93.08685     186.7694      373.353      3.763    11.29     1258.881     65.87506     202.6134        53     2.574     1.930 -36.39   2
       136     20.2330    548.7365 307.9023611  +6.4467285     1495.783     4842.849     6872.455     93.53331     186.9924     373.6876      3.240    12.85     1259.622     65.87506     156.8018        54     2.248     2.044  37.34   0
       137    243.9777    545.9785 307.8094536  +6.4552877     23155.35     80469.28       130190     93.38473     186.7694     373.6876      3.491     9.09     1257.041     65.87506     2100.909       159     3.041     2.364 -18.53   0
       138    766.8878    537.8063 307.5923650  +6.4759394     4806.322     15712.69     22924.57     93.08685     186.5463     373.4273      3.185     8.35     1249.669     65.87506     491.8005        93     2.786     1.977 -21.40   0
       139    470.6678    536.5551 307.7155421  +6.4666824     11609.63     39978.27     65498.55     93.68166     186.8438     373.7619      3.559     8.86     1253.248     65.87506     1044.789       139     3.060     2.333 -17.17   0
       140    630.3456    530.5141 307.6493693  +6.4744517     941.6087     2873.653     4587.249     93.68166     186.8438     373.9476      3.561     6.91     1250.073     65.87506     129.0098        12     1.394     1.229 -47.78   2
       141    299.8792    525.5536 307.7869053  +6.4655806     1245.575     4078.983     6209.304     93.68166     186.9181     373.6876      3.300    11.32     1253.825     65.87506     146.8915        40     1.974     1.807  69.29   0
       142    115.1253    524.4978 307.8637372  +6.4598951     7100.837     24060.51     38130.59      93.2359     186.9924     373.7247      3.436     8.86     1257.507     65.87506     690.4586       118     2.902     2.295 -18.05   0
       143   1017.9136    526.0866 307.4884053  +6.4890431       522.94     1216.591     1609.532     93.38473     187.1408     365.5728      2.629     3.89     1243.611     65.87506     107.2738         5     1.029     0.420 -45.01  16
       144    844.0062    524.5002 307.5607528  +6.4839789       587.48     1604.002     2278.021     93.38473     186.4718     373.4273      1.975     3.72     1248.367     65.87506     99.89563         6     1.565     0.255  35.86   0
       145     79.0826    521.9064 307.8788061  +6.4597705     908.8068       2081.9     2716.286     93.38473     187.2892     373.8733      2.490     4.79     1257.893     65.87506        126.9         7     1.259     0.517  22.31   2
       146    939.6998    518.4903 307.5211737  +6.4896116     1729.224     5342.458     7232.149     93.68166     187.3633     373.6876      3.084     9.73     1244.612     65.87506     188.5969        49     2.286     1.703 -22.35   2
       147    412.0047    505.2608 307.7409801  +6.4776775        11254     38879.01     63849.94     92.93755     186.7694     373.4645      3.518     9.06     1250.752     65.87506     1072.831       134     3.037     2.330 -18.73   0
       148    620.7631    506.5180 307.6541584  +6.4840535     3131.211     6767.753     11177.46     93.68166     186.9181     373.6876      3.308    10.43     1248.605     65.87506     328.2333        59     3.357     1.405 -19.51   3
       149    619.6559    503.0239 307.6547360  +6.4854612     3257.532     7729.291     10039.55      93.2359     186.9181     373.5017      2.608     7.51     1248.338     65.87506     322.1467        36     2.161     1.135 -14.17   3
       150    177.3033    503.1191 307.8386131  +6.4707925     5225.864     18201.83     29566.11     93.53331     187.2892      373.799      3.516     8.90      1254.61     65.87506     466.9989       120     3.008     2.326 -11.70   0
       151    541.3770    499.6107 307.6873911  +6.4842879     715.9352     1708.995     3280.589     93.23591     186.6951      373.576      3.851     6.33     1249.129     65.87506      113.434         7     1.401     0.803  59.71   2
       152    916.6926    499.3703 307.5313781  +6.4967576     1414.595     3247.902     5014.604     93.82977     186.6207     373.6132      3.241     8.50     1243.525     65.87506     175.1876        22     2.135     0.946 -23.99   3
       153    914.9563    497.0000 307.5321793  +6.4976802     1463.945     3386.292     4981.831     92.78801     186.4718     373.2414      2.691     8.13     1243.404     65.87506     203.1847        22     2.082     0.888 -17.80   3
       154    588.7987    497.0708 307.6677633  +6.4869033     1824.992     6179.808     10053.53     93.08685     186.3973     373.5017      3.528    11.09      1248.21     65.87506     186.2303        64     2.473     2.022  -7.00   0
       155    937.3349    490.5571 307.5230919  +6.5010793     1129.804     3345.969      5041.59     93.68166     186.8438     373.7247      3.268    11.27     1242.358     65.87506     138.0017        34     2.421     1.461 -44.32   0
       156    501.0103    490.0219 307.7044937  +6.4869178     2012.708     5268.645     7474.478      93.2359     186.6207      373.576      3.148     7.29     1248.813     65.87506     208.8914        31     1.749     1.398   0.70   3
       157    500.7923    486.4876 307.7047032  +6.4883713     1832.946      4627.15      7556.59     93.08685     186.5463     373.4273      3.814    13.14     1248.448     65.87506     217.0454        44     3.236     1.727 -15.49   2
       158    347.9234    487.2546 307.7682241  +6.4830000     885.6621     2111.998     2876.275     93.82977     186.9181     373.7247      2.696     7.47     1249.983     65.87506     124.4122        12     1.446     1.079  17.89   0
       159    856.2108    486.0824 307.5569664  +6.5002595     879.0907     2455.787      4529.05      93.2359     186.5463     373.5389      3.901     8.45     1244.067     65.87506     142.2214        15     2.161     0.923  -0.82   2
       160    688.7559    474.5879 307.6269653  +6.4994936     924.9162     2892.347     4334.458     93.08685     186.7694     373.3902      3.176    11.97     1246.558     65.87506     125.3915        26     2.270     1.756 -60.40   2
       161    361.2436    475.0500 307.7630980  +6.4884850     919.0012      1775.06     3188.666     93.82977     186.8438     373.7619      2.210     7.37     1248.767     65.87506      137.298        13     2.450     0.622 -86.79   2
       162    359.0000    474.0180 307.7640653  +6.4888373     733.1766      1989.81       3377.2     93.08685     186.3228     373.3158      2.583     6.69     1248.703     65.87506     107.8038        10     2.504     0.502 -79.59   3
       163     51.8091    475.7662 307.8917007  +6.4779352     562.9642     1515.601     2402.948     93.08685     186.6951     373.5389      3.214     4.86      1256.02     65.87506     95.64282         5     1.227     0.546  27.84   0
       164    587.5463    469.8305 307.6691990  +6.4981209     2684.843     8707.354     14110.28     93.53331     186.9924     373.6132      3.498     9.87     1246.103     65.87506     276.0294        69     2.807     2.123  -1.99   2
       165    588.3221    466.6255 307.6689842  +6.4994711     2193.716     4503.425     6531.308     93.38473     186.8438     373.6876      2.580     9.74     1245.887     65.87506     287.8848        26     2.718     0.974  21.97   3
       166    750.3447    467.3408 307.6016050  +6.5045191     4482.271     9534.817      12150.4     93.82977     186.9181     373.7247      2.521     7.30     1245.501     65.87506     476.4622        32     2.191     1.069 -18.69   3
       167    749.5805    464.1909 307.6020283  +6.5057959     4773.625     10925.74     17361.43     93.23591     186.6207     373.5389      3.112     9.51     1245.291     65.87506     471.1378        65     3.158     1.484  -8.30   3
       168     88.1742    458.0629 307.8771824  +6.4864587     1254.088     4143.535      5765.73      93.2359     186.9181     373.6132      3.178    11.60     1254.325     65.87506     168.5194        38     2.187     1.713 -56.18   0
       169    936.8398    459.2702 307.5243450  +6.5139946     691.4153     1445.567     2134.577     93.53331     186.9181      373.799      2.590     4.53     1240.737     65.87506     98.55872         6     1.017     0.573 -66.19   0
       170    989.0142    455.2430 307.5027893  +6.5173747     1783.359     4816.021     6409.365     92.78801     186.6207     373.4273      2.834     8.36     1239.419     65.87506     196.3785        40     1.790     1.713 -40.20   0
       171    272.3553    464.4300 307.8004059  +6.4899321     648.4155     2043.536     3522.838     93.23591     186.9181      373.576      3.871     8.17     1249.059     65.87506     113.1432        11     1.727     1.082 -11.14   2
       172    322.1872    451.4914 307.7801269  +6.4969295     734.3853      1942.91     2949.107     93.38473     186.6207     373.4645      1.878     3.45     1247.036     65.87506     127.6166         5     1.419     0.243  72.78   2
       173    325.8655    451.3139 307.7786038  +6.4971246     718.3415     1850.356     3264.434     93.68166     187.1408      373.799      3.152     8.17     1247.003     65.87506     85.52319         8     2.117     0.881  -6.46   2
       174    688.5839    437.5676 307.6282792  +6.5147891     4033.678     13815.42     21415.99     93.23591     186.6207      373.576      3.354     9.49     1243.853     65.87506     429.7428        95     2.870     2.102 -18.03   0
       175    611.8273    434.2011 307.6603018  +6.5136484     717.0463     2432.683     3540.161     93.08685     186.6207     373.4645      3.355    11.74     1243.505     65.87506     98.67932        14     2.480     1.547 -37.33   2
       176    581.8788    428.7577 307.6729349  +6.5149098     4681.602     15393.49     28247.14     93.53331     186.9181     373.7247      3.852     9.19     1243.146     65.87506     476.6466       131     3.143     2.520  14.39   0
       177    913.5999    426.9500 307.5350888  +6.5265888     1271.865      3765.58     4606.944     92.78801     186.3228      373.167      2.922    11.46     1240.096     65.87506     155.4908        40     2.273     1.610 -35.69   0
       178    353.0269    423.8235 307.7682385  +6.5093855     7124.038     25812.21     43105.92     93.08685     186.7694      373.576      3.569     9.53     1244.454     65.87506     719.2524       123     3.027     2.322 -18.83   0
       179     99.3780    424.3565 307.8736630  +6.5007612     709.9598     1577.765     1733.787     93.08685     186.7694     373.5017      1.876     4.55     1252.068     65.87506     120.9678         8     1.297     0.453  81.86   0
       180    882.8497    417.5795 307.5481867  +6.5294501      1511.79     4927.781     6865.486     93.08685     186.9924      373.576      3.174    12.50     1239.962     65.87506     173.7083        53     2.577     1.686 -19.60   0
       181    211.2926    415.8210 307.8274282  +6.5079996     3681.529     10253.55     16405.72     93.53331     186.6951     373.5017      3.310    10.51     1247.585     65.87506     425.7994        79     3.080     1.918 -27.49   2
       182    209.5110    412.4730 307.8282817  +6.5093243     3118.871     6691.003     8091.696     93.68166      187.215     373.7619      2.315     5.46     1247.437     65.87506     330.0636        22     1.570     1.168  -3.09   3
       183   1015.1863    404.0383 307.4936217  +6.5393991      3270.17     9619.117     12785.05      93.2359     186.6951     373.3902      2.938     7.98     1234.765     65.87506     316.3165        69     2.500     1.744 -23.01  16
       184    111.3831    405.5144 307.8693085  +6.5089469     1176.005     2606.543     4619.644     93.23591     186.6207     373.6504      3.254     8.99     1250.951     65.87506     149.3108        24     2.486     0.907 -25.26   3
       185    111.1536    401.3860 307.8695433  +6.5106456     1352.888     3419.505     5349.373     92.93755     186.6951     373.4645      3.122    11.59     1250.789     65.87506     136.2543        34     2.644     1.414 -29.19   3
       186    132.7703    401.3380 307.8605588  +6.5113824     736.5828     1611.143     3399.436     93.38473     186.9181     373.6504      2.903     5.48     1250.066     65.87506     112.8177         7     1.273     0.665 -13.19   0
       187      7.8384    387.9077 307.9129466  +6.5127871      985.338     3059.937      4621.84     93.82977     186.8438     371.1895      3.222    10.10     1253.342     65.87506     153.9569        22     2.214     1.435  24.92  18
       188    409.8309    387.1429 307.7458588  +6.5264250      1916.97     6621.877     10996.06     93.53331     186.9181     373.6132      3.528    12.73     1241.556     65.87506     211.1539        73     2.789     2.069 -31.95   0
       189    749.9265    384.2519 307.6045658  +6.5388476     3830.142     12886.38     20531.03     93.68166     186.9924     373.7619      3.607    10.40     1239.054     65.87506     419.6793       107     3.330     2.095 -16.55   0
       190    994.7446    378.8135 307.5029644  +6.5491532     1329.982     4137.108     5544.405     92.93755     186.8438     373.4273      2.907    10.59     1234.131     65.87506     144.4404        37     1.948     1.603 -51.90   2
       191    458.7198    370.4706 307.7260952  +6.5349323     699.5342     2292.379     2740.501     93.97765     187.2892     373.7619      2.830     9.94      1239.11     65.87506     132.6227        14     2.017     1.366  65.04   0
       192    815.9071    366.9125 307.5777157  +6.5481880     10431.86     33176.04     49935.72     93.68166     187.4374     373.8362      3.284     8.08     1236.261     65.87506     1000.451       124     2.885     2.184 -23.50   0
       193    588.5094    361.8984 307.6724247  +6.5427626     689.2026     1814.904     3406.144     93.68166     187.4374     373.6876      3.672     6.26     1237.138     65.87506     106.9329         7     1.392     0.792 -15.49   2
       194    672.4302    353.1260 307.6378293  +6.5491575        21815     74594.34     117293.5     93.53331     186.9181     373.7247      3.403     8.74      1236.56     65.87506     2281.785       153     3.008     2.305 -18.93   0
       195    534.4377    351.5800 307.6952515  +6.5452419      737.475     1696.765     3384.481     93.23591     186.6207     373.4273      4.116     5.74     1236.253     65.87506     90.73438         7     1.109     0.837 -30.74   0
       196     72.4921    349.1965 307.8873773  +6.5309326     1741.311     6008.467     9834.968     93.23591     186.5463     373.4645      3.499    11.00     1250.523     65.87506     200.6472        70     2.685     2.062 -31.64   0
       197    518.2999    348.2071 307.7020741  +6.5461029     1757.139     4385.013     6389.476     93.38473     186.4718     373.4645      2.922     8.41     1235.932     65.87506     200.0164        28     1.876     1.229  13.54   3
       198    517.7277    344.0258 307.7024526  +6.5478121     1637.673     4217.384     7941.598      93.2359     186.7694     373.6132      3.907    15.02     1235.527     65.87506      181.424        50     2.988     2.100 -16.15   2
       199    381.2466    341.5057 307.7592786  +6.5443418      6499.44     23187.63     38092.16     93.53331     186.8438     373.8733      3.570     9.37     1238.908     65.87506     706.0583       122     3.050     2.318 -20.50   0
       200    245.7790    341.6514 307.8155924  +6.5397968     602.3861     1393.941     3226.608     93.08685     186.9924     373.5017      4.317     5.11     1242.425     65.87506     85.79675         6     1.139     0.649  22.73   0
       201    470.0576    332.0802 307.7226731  +6.5511742     2208.391     7670.309     12984.66     93.68166     186.9181     373.7247      3.802    10.73     1234.986     65.87506       235.45        87     2.835     2.210 -25.85   0
       202    739.0544    329.9460 307.6109077  +6.5609349     917.6396     2608.533     3797.626     93.97765     186.9181     373.7247      3.039     8.32      1235.01     65.87506     124.0916        16     1.697     1.140  55.07   0
       203    360.3802    316.2958 307.7688025  +6.5540708     1923.677     6729.833     11580.65     93.53331     186.6951     373.5017      3.641    11.32     1237.691     65.87506     231.3201        75     2.605     2.160 -35.50   0
       204    217.0611    318.9389 307.8282972  +6.5482325     714.7238     1689.831     2740.205     93.68166     186.9181     373.7619      2.996     4.57     1242.936     65.87506      94.3114         4     0.983     0.656 -42.18   2
       205    214.9615    316.5403 307.8292510  +6.5491543      600.836     1749.109      2773.54     93.68166     186.9924     373.7619      3.211     6.55     1242.974     65.87506     83.80811         6     1.527     0.789  85.34   2
       206    727.8608    311.6316 307.6161761  +6.5681356     15383.47     51435.52     79265.62     93.38473     186.9924     373.6504      3.360     8.57     1233.623     65.87506     1538.477       138     2.945     2.245 -20.65   0
       207    726.1653    296.4797 307.6173894  +6.5743422     1677.889      5695.77     8214.577     93.53331     186.9924     373.7619      3.361    11.36     1232.408     65.87506     192.0845        58     2.399     1.849 -48.78   0
       208    743.2313    295.2389 307.6103355  +6.5754176     825.4978     2142.715     3672.329     93.23591     186.6207     373.5389      3.440     7.01     1232.702     65.87506     112.3003        11     1.396     0.986 -16.31   0
       209    981.3588    286.3105 307.5116256  +6.5869467     1867.834      3830.52     5686.021     93.68166     186.9181     373.7619      2.866    11.70      1227.48     65.87506     229.0902        32     2.657     1.654 -21.59   3
       210    981.0427    283.6736 307.5118453  +6.5880262     1983.322      4339.99     5534.266     93.53331     186.9924     373.7619      2.662     7.89     1227.402     65.87506     225.4678        21     1.925     1.043  16.38   3
       211    222.2040    281.9775 307.8274056  +6.5636791     1710.347     4694.273     8243.737      93.2359     186.6207     373.5017      3.521    12.67     1241.563     65.87506     172.5983        43     2.211     2.020  32.63   2
       212    221.9229    278.3826 307.8276437  +6.5651556     1304.106     2439.434     3757.259     93.08685     186.6207     373.6132      2.571     6.30     1241.623     65.87506     188.4595        11     2.139     0.521 -25.64   3
       213     94.2701    277.8709 307.8807321  +6.5611340     5633.477     5817.792      6015.74     93.68166     187.0666     373.6876      0.594     1.01      1248.95     65.87506     3160.521         8     0.533     0.380   4.45   0
       214    125.9298    269.5528 307.8678506  +6.5656223     666.1041     1381.691     2377.015     93.68166     186.8438     373.7247      2.889     6.50     1247.442     65.87506     101.9535         7     1.606     0.738 -65.75   0
       215    699.0945    261.8722 307.6298064  +6.5877535     1408.196      4194.06     7667.631     93.53331     186.9924     373.7619      3.861    13.37     1229.447     65.87506     160.0999        43     2.609     1.906 -14.55   2
       216    201.6047    246.2134 307.8371761  +6.5777777     515.9321     1230.583      1987.32     93.23591     186.6207      373.576      3.299     4.32      1243.18     65.87506     79.22473         5     0.952     0.559  40.07   0
       217    432.3962    235.7626 307.7415723  +6.5897380      5757.97     20873.94     35533.08     92.63823     186.6951     373.5017      3.652     9.48     1228.921     65.87506     620.4387       121     3.093     2.306 -23.44   0
       218    758.0974    234.6549 307.6061870  +6.6009479     4230.145     13474.79     21068.04     93.53331     186.9181     373.9476      3.379     8.87      1228.64     65.87506     444.4683        92     2.796     2.065 -21.57   0
       219    119.1267    227.5014 307.8720987  +6.5827763     673.7037      1509.52     3144.763      93.2359     187.0666     373.6876      3.599     6.76     1249.041     65.87506     88.66968         7     1.446     0.886 -67.58   0
       220    557.1400    223.5139 307.6901178  +6.5989228     1199.333     2405.026     5000.282     93.82977     187.0666     373.8362      3.968     8.17     1224.651     65.87506     132.2938        19     2.322     0.804 -30.56   2
       221    555.2891    220.1207 307.6910014  +6.6002642     1132.052     2989.133     4344.047     93.38473      187.215     373.8362      3.133     6.13     1224.589     65.87506     144.9003        12     1.563     0.675  29.50   3
       222    863.2381    217.6146 307.5630407  +6.6114540      3615.11     11528.33     16298.04     93.38473     186.6951     373.3902      3.142     8.31     1227.684     65.87506     357.5767        84     2.676     1.959 -16.50   0
       223    914.9816    219.6840 307.5414560  +6.6123016     693.2702     1542.616     2297.158      93.2359     186.5463     373.6876      1.911     2.54     1226.516     65.87506     78.86951         3     0.906     0.212 -28.01   3
       224    949.8374    215.4419 307.5271047  +6.6152016     3555.772     10348.11     13978.08     93.38473     186.9181      373.576      2.951     7.48     1225.303     65.87506     352.6154        72     2.486     1.793 -22.93   0
       225    661.3835    216.4743 307.6470105  +6.6052733     912.6126     2567.817     4528.711     93.08685     186.6207      373.576      3.855    10.03     1226.566     65.87506     129.3387        17     2.292     1.223  34.50   2
       226    713.3832    203.8156 307.6258140  +6.6122202     11105.46     37826.77     58401.37     93.38473     186.5463     373.6504      3.348     8.71     1226.756     65.87506      1163.17       124     2.921     2.212 -22.59   0
       227    316.9371    203.5222 307.7906636  +6.5992428     2191.134     6670.912     11874.66     93.97765     186.9924     373.7247      3.731    10.66     1236.236     65.87506     213.5381        77     2.750     2.099 -37.87   0
       228    918.3804    217.7735 307.5401068  +6.6132031     829.7222     2287.619     2964.911     93.08685     186.6951     373.6132      3.036    10.54       1226.3     65.87506      105.411        14     2.073     1.493  -0.13   2
       229    881.2277    200.7241 307.5561265  +6.6190273     2577.659     7760.254     11337.96     93.53331     186.9181     373.6876      3.131     8.51     1225.862     65.87506     305.7251        64     2.479     1.808 -27.45   0
       230    946.9938    201.9892 307.5287376  +6.6206683     1064.371     2725.552     4097.239      93.2359     186.6951     373.6132      3.281     8.02     1224.586     65.87506     148.1899        16     1.671     1.121  35.51   0
       231    425.7724    202.1178 307.7454588  +6.6034245     1198.914     2366.047      4284.24     93.53331     186.6951     373.6504      2.888     8.54     1227.468     65.87506     159.8164        20     2.691     0.757 -23.41   3
       232    424.8372    198.4842 307.7459700  +6.6048954     1194.263     3183.154         4937     93.68166     186.9181     373.6504      3.361    10.42     1227.342     65.87506     137.2708        28     2.556     1.184  -7.79   3
       233    984.4245    201.8793 307.5131770  +6.6219446     661.8077      1496.11     2188.852      93.2359     186.6951     373.7247      2.899     4.63     1223.751     65.87506     107.6621         5     0.874     0.697  47.78   0
       234     82.5815    192.1863 307.8884854  +6.5961592     1481.872     4706.309     7040.822     93.23591     186.5463     373.6132      3.302    11.06     1251.671     65.87506     156.4812        46     2.113     1.811 -48.94   0
       235    252.7078    188.4812 307.8178761  +6.6033319     8635.923      31298.3     52364.89     93.38473      187.215      373.799      3.618     9.35     1242.049     65.87506     934.4764       135     3.051     2.408 -19.64   0
       236    228.9723    191.4896 307.8276434  +6.6013021      1645.04     4001.372     7024.204     93.82977     186.6207      373.576      3.773    12.21     1243.635     65.87506     165.9065        38     2.799     1.483  -1.87   2
       237    228.3106    188.6026 307.8280159  +6.6024734     1667.693     4463.203     7716.576     92.93755     186.5463     373.3902      3.361     9.62     1243.807     65.87506     198.8002        24     2.221     1.162  39.86   3
       238    376.6970    183.8681 307.7664784  +6.6093438     12543.22     44949.21     75417.66     93.68166     186.9924     373.6876      3.585     9.48     1230.974     65.87506     1498.449       142     3.138     2.362 -20.54   0
       239    131.2476    186.5236 307.8684427  +6.6001144     1055.012     3315.963      6009.06     93.53331     186.9924     373.6876      3.635     8.50     1249.054     65.87506     165.0435        16     1.718     1.176  83.47   2
       240    281.2261    181.6319 307.8062495  +6.6071075      4656.32     16692.76     29189.67     93.08685     186.6207     373.5389      3.745     9.82     1240.431     65.87506      543.613       123     3.202     2.313 -15.65   0
       241    715.7847    179.7056 307.6256247  +6.6222644     9286.134     31740.24     49447.66     93.38473     186.6951     373.5017      3.383     8.76     1225.831     65.87506     1023.437       124     2.954     2.226 -20.01   0
       242     32.8904    177.6193 307.9096376  +6.6005300     2732.517      8695.98     14782.05     93.53331     186.6207      373.576      3.632    10.14      1253.86     65.87506     273.4889        88     2.849     2.131 -27.39   0
       243    974.5099    161.4365 307.5186537  +6.6383344     833.7043     2331.915     3281.359     93.82977     186.8438     373.7619      2.837     7.40     1221.648     65.87506     132.9783        11     1.875     0.818 -22.56   2
       244    251.4517    154.8124 307.8195336  +6.6172056     7637.819     27968.79     47231.71     92.93755     186.8438     373.3902      3.622     9.81     1244.042     65.87506     976.5088       129     3.123     2.344 -19.37   0
       245    566.3038    157.6219 307.6885226  +6.6264593     752.2966     1489.123     2414.883     93.53331     186.6951     373.5017      2.723     4.19     1224.057     65.87506     89.50452         6     0.932     0.538  44.29   0
       246    683.7343    152.6071 307.6398616  +6.6324076     2383.851     5587.816     8767.033     93.08685     186.6207     373.5389      2.955     9.06      1224.11     65.87506     264.3011        48     2.728     1.330 -18.80   3
       247    682.9995    149.0000 307.6402882  +6.6338742     2036.099     4595.805     7405.695     92.78801     186.3228      373.353      2.761     8.28     1223.901     65.87506     226.5559        25     2.188     0.931  -6.15   3
       248     93.7651    148.8209 307.8853002  +6.6144530     1406.559     4805.125      7804.17     93.08685     186.6951     373.4645      3.640    10.28     1251.088     65.87506     186.3027        50     2.315     1.897 -41.85   0
       249    364.4389    145.5269 307.7728667  +6.6247847     1196.295     3426.263     5794.477     93.53331     186.9181      373.799      3.587    11.50     1232.921     65.87506     131.9958        30     2.238     1.645 -77.20   2
       250    328.3484    141.3603 307.7880136  +6.6253122     797.5697     2109.314     4052.539     93.53331     186.9924     373.7247      3.855     7.63     1237.637     65.87506     130.9091         9     1.731     0.941  56.28   2
       251     83.2531    144.0378 307.8898325  +6.6160810     730.4546     1968.534     3466.921     93.53331     186.9924     373.7247      2.671     5.93     1251.544     65.87506     89.74292         8     1.486     0.666 -86.92   0
       252    181.7490    132.3923 307.8492720  +6.6241615     1622.488     5248.995     8652.957     93.08685     186.6951      373.353      3.526    11.19     1247.955     65.87506     209.8795        61     2.648     1.940 -31.22   0
       253    643.0196    130.8048 307.6575239  +6.6400755     1746.064     5690.399      9809.94      93.2359     186.5463     373.5017      3.519    11.48     1223.138     65.87506     228.5631        59     2.612     1.857 -40.89   2
       254    595.0807    129.6262 307.6774976  +6.6389804     2895.689     6771.674     9435.013     93.53331     186.6951     373.7619      2.791     7.60     1223.357     65.87506     315.5851        38     2.298     1.181 -13.53   3
       255    598.2011    119.7527 307.6765319  +6.6431642     14301.84      49973.3     83623.13     92.93755     186.4718     373.2042      3.611     8.68     1223.088     65.87506     1580.082       175     3.448     2.523 -41.48   2
       256    321.1506    124.1117 307.7915877  +6.6322028     1003.822     3704.796     6176.468     93.68166     186.6951     373.8362      3.455    10.80     1239.571     65.87506     142.4973        31     2.376     1.367 -81.26   2
       257    277.2982    113.9475 307.8101646  +6.6349513     1209.303     3787.744     6069.837     93.53331     186.9181     373.9476      3.487    11.48     1244.483     65.87506     143.2631        36     2.100     1.945  -2.36   0
       258    663.5130    105.1577 307.6498636  +6.6513519     922.6725     2454.754     3789.337     93.68166     186.7694     373.7619      3.425     9.32     1221.969     65.87506     150.1537        18     1.980     1.224 -35.80   2
       259    404.6360     94.7327 307.7578629  +6.6471082     1108.634      3796.89     4978.863     93.53331     186.9924      373.799      3.018    11.01     1230.991     65.87506     155.6332        31     1.880     1.796 -67.04   0
       260    876.9961     90.4116 307.5615830  +6.6644819     1404.021     3741.902     4929.888      93.2359     186.5463      373.576      2.995    10.94     1219.552     65.87506     167.1182        33     2.166     1.540 -33.16   0
       261    858.8040     90.6931 307.5691388  +6.6637667     718.0487     2037.457     2753.783      93.2359     186.5463     373.3902      2.767     6.64     1220.092     65.87506     91.55188        10     1.550     0.798  17.09   0
       262    368.1393     88.4669 307.7732501  +6.6484902     616.7805     1526.528     2688.577     93.82977     186.8438     373.7247      3.107     5.68     1236.436     65.87506      92.1593         7     1.304     0.696   6.32   0
       263    116.0771     85.6896 307.8781551  +6.6412851     1000.571     2671.392     4600.461     93.53331      187.215      373.799      3.636     7.46     1249.732     65.87506     135.4456        12     1.730     0.902 -20.84   0
       264      1.8490     81.2775 307.9258006  +6.6393161     2087.596     3681.937      4404.55     88.49843     157.6604      291.284      2.002     7.25     1254.013     65.87506     257.3135        24     2.054     0.849 -82.29  24
       265    799.3306     75.4801 307.5943809  +6.6680957     1979.699     6392.045     9261.717     93.97765     187.2892     373.6876      3.161    10.09     1219.058     65.87506     238.3851        61     2.529     1.879  -7.65   0
       266    744.2380     75.7760 307.6172812  +6.6661578     1021.835     3263.423     4776.436      93.2359     186.6207     373.5017      4.113    12.33     1219.689     65.87506     124.9608        30     2.305     1.836 -12.45   0
       267     39.1940     74.1392 307.9105137  +6.6435067     896.9236     2635.094      4254.07     92.93755     186.6951     373.4645      3.430    10.10     1252.198     65.87506     102.6903        17     2.273     1.251 -45.56   2
       268     66.0923     57.7954 307.8998815  +6.6511545      2909.78     9483.389     14733.08      93.2359     186.5463     373.4273      3.412     9.02     1250.736     65.87506     320.1346        84     2.655     2.118 -20.11   0
       269    395.9579     58.1693 307.7627028  +6.6619328      776.246     2185.929     3530.707      93.2359     186.8438     373.5389      3.304     6.98      1234.89     65.87506     110.4252         9     1.412     0.966  63.61   0
       270    608.4330     49.2971 307.6746450  +6.6726218     5100.461     17250.28      27309.2     93.82977     186.7694     373.8362      3.456     8.83     1222.381     65.87506     589.9144       103     2.859     2.160 -18.59   0
       271    508.7108     46.2962 307.7162152  +6.6705683       1562.1     4624.855     7307.066     93.68166     187.3633     373.7619      3.446    11.81         1226     65.87506     187.4087        44     2.619     1.582 -41.11   2
       272    233.8628     42.0112 307.8306519  +6.6632432     2348.635     8535.552     15938.15     93.08685     186.6951     373.5389      4.515    10.67     1248.306     65.87506     326.6019        97     3.139     2.172 -29.37   0
       273    413.8056     41.1712 307.7558535  +6.6695486     6118.363     21009.09     34157.68     93.08685     186.6951     373.5017      3.496     9.09     1234.095     65.87506     676.4995       115     2.963     2.275 -22.72   0
       274    891.7994     41.1476 307.5570781  +6.6853307     799.3481     2157.259     3162.906     92.78801     186.3973     373.2042      3.546    10.27     1216.168     65.87506     116.8641        13     2.212     1.330 -30.92   0
       275    594.0814     41.0788 307.6808894  +6.6755446      936.626     2232.461     4391.537     93.82977      187.215     373.9476      3.580     6.72     1222.567     65.87506     130.2255        11     1.412     0.897 -62.88   3
       276    597.2313     40.4735 307.6795999  +6.6758988     820.4753     1822.539     3987.095     93.53331     186.9181     373.7619      2.848     4.72     1222.527     65.87506     106.1804         5     1.244     0.507 -69.92   3
       277    222.7871     39.0743 307.8353566  +6.6640899     829.2594     2589.902     5453.605     93.08685     186.5463     373.5017      4.877     9.77      1248.38     65.87506     106.5317        20     2.349     1.134 -47.12   0
       278    930.0693   1019.0270 307.5084280  +6.2824102     3852.769     8692.377     10657.22      93.2359     186.7694     354.1114      2.408     7.06      1277.62     65.87506     424.4739        44     2.278     1.212 -22.85  16
       279    690.1328   1016.8892 307.6082020  +6.2753948     1260.049       3250.7     4794.527     93.82977     187.1408      372.422      3.419    10.28     1277.288     65.87506     153.8159        28     2.204     1.338 -19.71  18
       280    496.5046     22.4582 307.7220932  +6.6800172     915.5936     2334.196     3733.061     93.53331     186.9181     373.8733      3.297     8.36     1228.359     65.87506     104.1969        14     1.592     1.228 -15.24   0
       281    519.1388   1004.8109 307.6796605  +6.2747461     1785.245     4881.997     7272.033     92.93755     186.7694     373.3902      3.124     8.68     1277.996     65.87506     199.6256        44     2.127     1.717 -18.82   3
       282    516.1572    997.3023 307.6811516  +6.2777511     3696.806       9822.4     13583.42     93.68166     186.8438     373.9847      2.916     7.27     1277.719     65.87506     402.1942        69     2.453     1.766 -17.69   3
       283    723.6501   1004.2488 307.5946982  +6.2817239     3936.841     9564.407      12248.3     93.68166     186.7694     373.6504      2.699     7.26     1276.468     65.87506      429.896        57     2.423     1.440 -20.37   0
       284    269.5582   1003.9798 307.7833942  +6.2668390     6308.236     17288.79     23682.28     93.08685     186.6951     373.5389      2.926     7.31     1278.485     65.87506     599.0685        86     2.679     1.757 -21.84   0
       285    884.6662    997.5218 307.5280145  +6.2898055     4918.895     10835.86     13185.28     93.82977     186.9924     373.6876      2.415     6.30     1276.127     65.87506     526.7714        51     2.290     1.254 -20.38   0
       286    858.3715    993.7547 307.5390672  +6.2904975     6758.413     15891.29     19865.72     93.08685     186.9924     373.6132      2.558     6.52     1275.921     65.87506      746.087        63     2.396     1.452 -20.18   0
       287    980.3088    992.8764 307.4884256  +6.2948705     2934.658     6187.273     7396.399     93.53331      187.215     373.7247      2.434     6.90     1273.683     65.87506     346.2306        39     2.254     1.149 -14.43   0
       288    503.0782    992.8812 307.6867348  +6.2791465     2120.334     5339.189     7506.765     93.97765      187.215     373.9105      2.996     8.00     1277.405     65.87506     257.2993        44     2.269     1.447 -12.57   0
