#   1 NUMBER                 Running object number                                     
#   2 X_IMAGE                Object position along x                                    [pixel]
#   3 Y_IMAGE                Object position along y                                    [pixel]
#   4 ALPHA_J2000            Right ascension of barycenter (J2000)                      [deg]
#   5 DELTA_J2000            Declination of barycenter (J2000)                          [deg]
#   6 FLUX_APER              Flux vector within fixed circular aperture(s)              [count]
#   9 FLUXERR_APER           RMS error vector for aperture flux(es)                     [count]
#  12 FLUX_RADIUS            Fraction-of-light radii                                    [pixel]
#  13 FWHM_IMAGE             FWHM assuming a gaussian core                              [pixel]
#  14 BACKGROUND             Background at centroid position                            [count]
#  15 THRESHOLD              Detection threshold above background                       [count]
#  16 FLUX_MAX               Peak flux above background                                 [count]
#  17 ISOAREA_IMAGE          Isophotal area above Analysis threshold                    [pixel**2]
#  18 A_IMAGE                Profile RMS along major axis                               [pixel]
#  19 B_IMAGE                Profile RMS along minor axis                               [pixel]
#  20 THETA_IMAGE            Position angle (CCW/x)                                     [deg]
#  21 FLAGS                  Extraction flags                                          
         1    745.4870     23.5292 307.6456056  +6.6898837      2282.39     8083.054     10710.48     94.10925     187.7727     374.8379      3.080     9.45     1231.102     66.07127     283.1616        63     2.305     1.960 -48.49   0
         2    666.0340     22.8094 307.6787272  +6.6875965     1180.831     3831.551     4869.903     93.36411     187.2512     374.6515      2.910    11.93     1233.293     66.07127      140.231        38     2.230     1.871 -62.06   0
         3    465.9618     19.4699 307.7621819  +6.6824587     1580.967     5887.863     9463.603      93.8119     187.4748     374.9124      3.521    11.88     1243.998     66.07127     216.1962        64     2.480     2.003 -50.29   0
         4     67.0076     19.3544 307.9283653  +6.6694657     2428.157      9158.03      12448.9     93.36411     187.3257     374.4277      3.142     9.04     1265.571     66.07127     336.4043        72     2.470     2.093 -33.03   0
         5    363.4688     15.9640 307.8049942  +6.6805638     4056.635     9543.562     14193.59      93.8119     187.5493     374.9497      2.771     9.16     1255.035     66.07127     448.5964        50     2.695     1.283 -38.94  19
         6    361.6125     12.1794 307.8058960  +6.6820684     2824.322     6430.411     8580.365     93.66288     187.1019     374.7261      2.443     8.31     1255.418     66.07127     315.3256        35     2.313     1.044 -36.27  19
         7    137.1481     16.3630 307.8992519  +6.6729996     905.9144     2464.779     4517.181      93.8119     187.4748     374.8379      3.138     7.60     1263.564     66.07127     128.5725        15     2.040     0.793 -32.98   0
         8    430.4635     13.8014 307.7771611  +6.6836451     712.3489     1680.661     2705.199     93.21437     187.1765     374.5769      3.065     6.84     1247.341     66.07127     110.5111        11     1.782     0.737 -32.81   2
         9    429.0125     10.0000 307.7778946  +6.6851700     674.4966     1645.315     2463.105     93.36411     187.0272     374.5769      2.990     3.74     1247.739     66.07127     104.9656         5     0.817     0.504  26.69   2
        10    689.4520      7.5497 307.6694889  +6.6946700      3263.85     11646.36     16682.96     94.10925     187.3257     370.2256      3.197    10.01     1232.502     66.07127     387.6754        79     2.714     2.086 -65.44  19
        11    681.1796      3.5424 307.6730707  +6.6960582     2835.696     9136.096     12075.41     93.51361     180.7215     321.5167      2.974     9.34     1232.715     66.07127     381.1394        64     2.632     1.746 -10.86  27
        12    853.9594      8.9930 307.6009109  +6.6994214     614.6516     1657.382     2536.344     93.21437     187.1019      374.465      2.693     6.49     1228.423     66.07127     103.0569         8     1.937     0.611  -9.65  16
        13    289.8330      4.9029 307.8360428  +6.6827331     1862.319     6305.545     9037.605     94.10925     187.3257     341.9404      3.244     9.79     1265.389     66.07127      258.571        62     2.391     1.987 -32.95  24
        14    924.8553      6.3508 307.5714666  +6.7028161     652.1666     1316.673     2440.806     93.96069     187.4748     359.4666      1.959     4.09     1227.335     66.07127     115.0895         6     1.194     0.401 -30.49  16
        15    450.9332      3.7426 307.7689759  +6.6884732     2116.139     7540.933      9537.49     94.10925     182.7967     324.6299      2.935    11.00     1246.371     66.07127     299.9962        57     2.425     1.807 -14.86  24
        16    712.1349      2.5050 307.6602108  +6.6974945     5501.893     11581.83     14544.31     93.96069     168.3145     304.0542      2.484    10.69      1231.63     66.07127     644.5554        49     2.609     1.220 -15.13  24
        17    852.5897    984.3699 307.5685289  +6.2959491     1381.838     2842.085     3054.512     93.36411     187.2512     374.6515      2.335     7.60     1289.928     66.07127     145.2281        17     1.637     0.987 -30.34   0
        18    401.0635   1023.4799 307.7551452  +6.2650824     762.7659     1362.593     1891.023     84.90094     152.5546     285.7703      1.967     4.25     1291.997     66.07127     135.3997         6     1.030     0.499   1.55  24
        19    800.4431    982.7100 307.5902909  +6.2949425     3766.532     8861.557     11273.28     93.96069     187.4003     374.9124      2.577     6.13     1289.969     66.07127     420.4612        49     2.088     1.447 -41.44   0
        20     95.6631    980.2471 307.8837240  +6.2729892     1340.077     3309.524     3671.985      93.8119     187.3257     374.9124      2.637     8.95     1289.305     66.07127     151.9507        25     1.657     1.351 -53.11   0
        21    988.6376    977.6051 307.5121268  +6.3031604     4823.201     9515.442     9634.531     92.91416     187.1765     374.5396      2.026     4.85     1287.819     66.07127     570.2229        40     1.820     1.237 -39.10   0
        22    271.5636    980.4609 307.8105047  +6.2786495     624.4943     1279.051      2092.92     93.96069     187.4748     374.8006      3.359     4.84     1292.601     66.07127     89.66687         5     1.129     0.588 -31.93   0
        23    962.0344    969.7659 307.5234648  +6.3055403     1222.249     2693.855     2437.458     93.66287     187.1765     374.5396      1.966     6.05     1287.326     66.07127     193.6255        20     1.666     1.092 -58.61   0
        24    683.0918    965.5007 307.6397197  +6.2982468     2454.448     5871.349     7090.921     93.96069     187.9957     374.8006      2.514     6.45     1290.774     66.07127     313.4631        42     1.926     1.544 -23.54   0
        25    295.7975    965.9564 307.8009104  +6.2854398     1848.658     5137.196      5689.15     93.21437     186.9525     374.4277      2.591     8.28     1292.669     66.07127     222.0154        43     1.870     1.775 -27.27   0
        26    822.4580    965.0354 307.5817241  +6.3029679     792.7123     1324.271     1018.749      93.8119     187.4748     374.8379      1.708     2.69     1288.755     66.07127     129.9979         6     0.767     0.498  88.21   0
        27     64.5935    963.3983 307.8972286  +6.2789413     998.7554     2129.949     2529.564     93.21437     187.1019     374.6142      2.415     5.81     1288.738     66.07127     138.8527        11     1.473     0.645   0.12   0
        28    607.6101    956.9779 307.6714270  +6.2993165     878.7493     2066.739     2090.989     93.51361     187.1765     374.6515      2.143     5.89     1290.589     66.07127     147.5596        11     1.707     0.572 -13.32   2
        29    647.6841    953.1409 307.6548761  +6.3022074     666.2518     1260.142      1272.94     93.96069     187.5493     374.9124      2.057     5.18     1290.276     66.07127     81.42419         7     1.110     0.684 -82.33   0
        30    327.3489    950.8419 307.7882908  +6.2927210     633.5966     1260.163     1622.362     93.96069     187.4748     374.8379      1.851     6.56     1292.327     66.07127     137.6891         7     2.060     0.587  -2.13   0
        31    931.2253    944.5281 307.5371407  +6.3149800     4443.265     10169.06     11751.82     93.51361     187.3257     374.7633      2.363     5.80     1285.419     66.07127     550.8787        48     2.002     1.381 -33.86   0
        32    368.8665    940.7144 307.7713534  +6.2982644     4212.288     11369.92     13973.26     94.10925     187.7727     374.9124      2.707     6.66     1291.909     66.07127     446.3081        62     2.140     1.800 -20.91   0
        33    468.2786    941.6127 307.7299435  +6.3011342     903.2011     2248.079     3258.885     93.51361     187.1019     374.6142      3.082     8.36     1290.758     66.07127     141.5103        14     1.687     1.349   2.61   0
        34    289.2191    939.6594 307.8045413  +6.2961014     3045.589      8744.62      10963.9     93.51361     187.3257     374.6142      2.798     7.43     1291.983     66.07127     319.3354        58     2.214     1.739 -35.55   0
        35    783.0067    921.4949 307.5996167  +6.3196956      784.841     1934.147     2902.944     93.66288     187.1019     374.6142      3.241     7.37     1287.002     66.07127     105.4982         8     1.424     1.068  58.11   2
        36   1014.3151    918.3426 307.5034358  +6.3285048     1039.858      2051.72     2933.875     93.96069     187.4748     374.9869      2.487     7.07     1282.363     66.07127     195.8564        14     1.822     0.769 -39.38  16
        37    702.6995    915.2606 307.6332566  +6.3196643      1196.85     2765.509     3008.005     93.66288     187.4003     374.9869      2.398     6.28     1288.124     66.07127     141.7172        17     1.317     1.111 -33.81   2
        38     98.9235    913.2248 307.8846465  +6.3008159     1362.295     3819.136     4928.231     93.51361     187.4003     374.8006      2.766     9.73     1288.056     66.07127     184.2742        36     1.997     1.722 -58.67   0
        39    243.0878    910.7317 307.8247251  +6.3065594     914.6845      2135.06     2944.698     94.10925     187.7727     374.8752      2.565     5.49     1290.367     66.07127     124.4858         8     1.391     0.610  11.18   2
        40    116.8186    913.0882 307.8772027  +6.3014577      751.095     1748.423     2264.363     93.66287     187.1765     374.7261      2.488     5.42     1288.407     66.07127     104.9965         5     1.178     0.704 -79.02   0
        41    696.5601    905.3813 307.6361463  +6.3235509     3272.975     8453.741     10174.41     93.51362     187.2512     374.5396      2.617     7.10     1287.604     66.07127      380.351        47     2.102     1.480 -36.24   0
        42    379.7297    898.8671 307.7682511  +6.3159269     6468.007     19035.38     24423.34     93.96069     187.5493     374.8379      2.876     7.18     1290.597     66.07127     621.9452        78     2.291     1.954 -36.66   0
        43     58.0903    904.0073 307.9019561  +6.3032922     624.2446     1505.641      1636.85     93.51361     187.1019     374.5769      2.444     4.82     1287.126     66.07127     88.62598         7     1.281     0.514  -5.68   0
        44    934.4426    901.6064 307.5372494  +6.3328375      1615.64     3863.109     4169.942     93.36411     187.1019     374.5023      2.292     6.96     1283.278     66.07127     184.1434        29     1.638     1.320 -33.37   0
        45    116.4292    898.5373 307.8778596  +6.3074631     561.4695     1057.906     1078.181     93.66288     187.4748     374.7633      1.809     3.95     1288.015     66.07127     117.7959         5     1.109     0.402  16.56   0
        46    924.2559    883.4332 307.5421030  +6.3400238     1015.369     2486.181     2888.339      93.8119     187.4748     374.8379      2.515     7.86     1282.954     66.07127     133.2511        17     1.616     1.193 -46.63   0
        47    858.5602    882.1729 307.5694937  +6.3384133     1591.701     4080.308     5107.461     93.51361     187.2512     374.6888      2.768     9.00      1283.57     66.07127     194.7372        34     2.017     1.454 -33.45   0
        48    127.5410    882.9459 307.8737647  +6.3142750     913.6656     2504.115      2661.96     94.10925     187.4003     374.8379      2.444     9.08     1287.911     66.07127     124.2206        18     1.764     1.306  29.83   0
        49    895.1807    882.7190 307.5542307  +6.3393759     1125.456      2569.54     2619.767     93.51361     187.1019     374.7633      2.096     6.66      1283.25     66.07127     179.0189        18     1.617     1.038  -2.08   0
        50    594.5697    873.8871 307.6796675  +6.3332592     138868.7     394854.6     503570.8     94.10925     187.2512     374.7261      2.847     7.14     1288.388     66.07127     14586.18       210     2.587     2.097 -22.69   0
        51    438.9997    876.6887 307.7443316  +6.3270328     3002.122     9034.515     11203.89     93.06438     186.8778     374.4277      2.805     7.75      1288.88     66.07127     337.1886        63     2.307     1.829 -44.80   0
        52    382.1516    875.1747 307.7680466  +6.3258052     4760.449     14654.69      19847.1     93.51361     187.5493     374.7261      3.027     7.56     1289.748     66.07127     469.6029        77     2.403     1.927 -41.75   0
        53    700.3616    870.8864 307.6357303  +6.3379420     1557.984     4409.851     5072.589     93.96069     187.4003     374.8379      2.715     8.87      1285.45     66.07127     192.8972        40     2.051     1.603 -37.66   0
        54    932.9459    869.6125 307.5389518  +6.3460222     2835.203      6727.48     7353.356     93.21437     187.4003     374.5023      2.371     6.23     1282.505     66.07127     348.0256        41     2.017     1.331 -35.73   0
        55    675.3251    864.9005 307.6463549  +6.3396036     1565.182     4150.693     5528.964     93.36411     187.6238     374.7261      2.723     9.62     1286.393     66.07127     178.0315        37     2.077     1.519 -45.95   0
        56    667.6957    860.7183 307.6496724  +6.3410853     873.2277      2892.42     4341.991     93.66288      187.847     374.9497      3.187     9.03     1286.323     66.07127     129.4683        19     2.433     0.936 -80.81   0
        57    863.3257    863.2599 307.5681484  +6.3463906     942.0743     1862.063     1581.936     94.25757     187.4748     374.8006      1.878     5.22     1282.734     66.07127      132.243         9     1.326     0.581 -10.31   0
        58    951.6183    857.4774 307.5315879  +6.3516471     1782.461     4000.028      4392.48     93.36411     187.1765     374.8006      2.324     6.47      1281.51     66.07127     235.1743        28     1.728     1.230 -32.67   0
        59    410.4734    853.4614 307.7569937  +6.3357096     1078.335     2809.762     3854.899     94.10925     187.4748     374.8752      2.998     8.52     1288.052     66.07127     131.9049        19     1.636     1.240  63.77   0
        60    546.3051    842.8005 307.7008115  +6.3445456      1347.51     3357.575     4868.215     93.36411     187.0272     374.3531      3.002     9.06     1286.209     66.07127     176.4001        26     1.884     1.215 -10.84   2
        61    890.2104    841.9868 307.5576746  +6.3560621       504.87     1011.738     2086.649     93.66288     187.1765     374.7633      2.797     4.67     1280.992     66.07127     105.8143         5     1.244     0.498 -15.96   0
        62    594.6956    838.9331 307.6807983  +6.3477206     2179.676     5812.678     8337.707     93.96069     187.6982     374.8379      3.133     8.96     1285.624     66.07127      261.652        30     2.316     1.340 -61.81   3
        63    592.3480    838.3146 307.6817965  +6.3479000     2099.224     4726.733     6620.239     93.96069     187.4003     374.9869      3.288    13.56     1285.538     66.07127     233.1169        35     3.030     1.761 -18.28   2
        64    928.1898    837.5542 307.5420133  +6.3591278     734.9771     1732.166     1710.695     93.36411     187.3257      374.465      2.433     4.63     1280.547     66.07127     111.0189         7     1.431     0.425 -70.13   0
        65    563.8123    833.6786 307.6938325  +6.3488886      7377.12     22585.96      28788.1     93.51361     187.1019     374.6515      2.878     7.30     1285.288     66.07127     757.2471        80     2.342     1.924 -32.29   0
        66    977.2261    831.4260 307.5218061  +6.3632529     2085.442     4710.482     4479.614     93.36411     187.2512     374.6888      2.215     6.68     1279.866     66.07127     224.7982        34     1.850     1.328 -42.88   0
        67     75.3705    825.1365 307.8974470  +6.3364779     622.4745     1438.285     1591.481     93.66288     187.4748     374.7633      2.660     7.13     1285.161     66.07127     112.6024         8     1.569     0.907  31.98   0
        68    357.0009    822.0094 307.7803198  +6.3469739     1154.847     3661.869     5045.399     93.21437     187.1019     374.5769      3.009    10.22     1287.285     66.07127     152.1423        24     1.883     1.545  41.61   2
        69    821.8147    817.9120 307.5869607  +6.3637995     25076.16     67195.47     82260.62     93.66287     187.2512     374.6515      2.655     6.60     1280.384     66.07127     2664.145       103     2.344     1.824 -34.23   0
        70     57.5066    820.3771 307.9050449  +6.3378618     1072.846     2248.156     2488.607     93.96069     187.2512     374.6515      2.378     7.21     1284.946     66.07127      118.571        16     1.315     1.106 -76.46   0
        71    280.7737    817.5078 307.8122041  +6.3463476     1542.613      3544.39     5707.277     94.10925     187.1765     374.6515      3.351     7.65       1288.8     66.07127     194.6711        20     2.038     0.804 -63.57   3
        72    278.2001    814.7618 307.8133687  +6.3473992     1983.656      4557.34     8155.589     92.76369     187.1765     374.5769      3.987     8.87     1288.687     66.07127     200.9767        36     2.328     1.318 -66.10   3
        73    744.9244    809.7558 307.6192459  +6.3646750     32009.15     100714.4     155641.2      93.8119     187.5493     374.8752      3.445     9.35     1281.715     66.07127     3954.058       193     3.513     2.310  21.08   0
        74    946.9537    813.0062 307.5350300  +6.3698899     4227.763      10312.4     12726.09     93.36411     187.2512     374.4277      2.483     6.44      1278.86     66.07127     457.6359        52     2.158     1.475 -35.01   0
        75    388.7772    810.4337 307.7674847  +6.3527983     7273.263     23585.36     31475.09     93.36411     187.2512     374.5769      3.036     8.02     1286.341     66.07127      806.646        88     2.457     2.024 -34.57   0
        76      2.1517    811.9764 307.9283727  +6.3395240     1271.283     2662.279      2899.43     91.39833     162.7447     297.5057      2.087     8.14     1284.615     66.07127     157.7173        21     1.757     1.055  89.42  24
        77    450.6633    808.1891 307.7417985  +6.3557448     7696.473     24733.61     32803.31     93.36411     187.2512     374.6888      3.014     7.88     1286.152     66.07127     829.7971        89     2.428     2.027 -42.33   0
        78    943.8939    804.4861 307.5365913  +6.3733147     3661.984     8907.564     10506.34     93.96069     187.9957     374.9497      2.479     6.14     1278.271     66.07127     438.3341        52     2.065     1.555 -37.75   0
        79    987.3911    806.3864 307.5184187  +6.3739392     1261.224     2435.434     3044.586     93.66288     187.1765     374.7261      2.022     6.22     1278.775     66.07127      153.152        14     1.203     0.905 -58.69   0
        80    684.7891    803.7903 307.6444821  +6.3651874     2355.794     7416.499     10133.02     93.51361     187.2512     374.8006      3.100     8.48     1281.865     66.07127     285.8915        56     2.379     1.690 -36.77   0
        81    278.6649    794.8876 307.8138501  +6.3556344     729443.6      2516832      3475838     93.96069     187.6982     374.8379      3.155     9.44     1287.768     66.07127     63791.84       536     2.812     2.494 -21.60   4
        82    719.9067    793.7509 307.6302020  +6.3704817     1048.767     2714.442     3099.244      93.8119     187.3257     374.9869      2.479     7.45     1281.007     66.07127     126.4612        16     1.542     1.009 -76.43   0
        83    571.2895    789.8203 307.6922049  +6.3672722     2631.918     8099.834     10415.02      93.8119     187.1765     374.6515      2.900     8.33     1281.455     66.07127     292.8318        61     2.395     1.748 -39.03   0
        84    487.8163    788.1180 307.7270124  +6.3652572     1664.528     5318.208     8369.821     93.51361     187.1019     374.6888      3.810    10.61     1284.394     66.07127     183.2391        55     2.247     2.055 -81.01   0
        85    863.6531    787.7471 307.5705616  +6.3776346     12041.19     11866.39     11735.17     94.25757     187.3257     374.9124      0.727     1.00     1277.232     66.07127     5326.022         8     0.516     0.487  -7.42   0
        86    174.2238    778.6155 307.8578797  +6.3589520     4025.407     12832.19     20619.26     93.66288     187.2512     374.7633      4.251    14.18     1284.779     66.07127     463.4384       129     4.202     2.786  16.44   2
        87    166.7157    774.4131 307.8611481  +6.3604446     1344.621     3138.278     5572.095     93.51361     187.3257     374.6515      3.660     6.27      1284.29     66.07127     155.9617        17     1.326     1.205  52.13   3
        88    816.3336    786.0577 307.5903185  +6.3767969     5243.658     13948.87     16594.43     94.10925     187.4003     374.8379      2.642     6.80     1278.478     66.07127     569.1118        61     2.197     1.642 -34.33   0
        89    474.4380    801.3145 307.7321344  +6.3593631     713.7581     1859.636     2703.591     93.96069     187.4748     374.8379      2.709     4.19     1285.873     66.07127     128.1305         5     1.009     0.495  88.12   0
        90    961.9397    774.5048 307.5300899  +6.3863008      3278.65     8226.288      9614.17      93.8119     187.4748     374.9497      2.541     6.42     1276.486     66.07127     355.4868        51     2.117     1.549 -40.30   0
        91   1010.8117    773.8223 307.5097663  +6.3881676     994.5338     1929.009     2670.385     93.51361     187.2512     374.7261      2.038     5.21     1276.473     66.07127     119.7118        11     1.217     0.670   5.82   0
        92    605.1785    771.3726 307.6787214  +6.3760056     936.0704     2248.395      2346.53     93.36411     187.2512     374.8006      2.350     7.16      1280.17     66.07127     99.40381        13     1.467     0.979  -1.02   0
        93    956.0336    766.3621 307.5328235  +6.3894773     1593.392     3847.756     4846.755     93.66287     187.2512     374.5769      2.413     9.13     1275.875     66.07127     196.7941        29     1.896     1.227 -40.63   0
        94    985.6995    765.5471 307.5205003  +6.3907763       1582.8     3708.649     4079.945      93.8119     187.4748     375.0987      2.428     7.48     1275.819     66.07127     193.3516        31     1.964     1.251 -34.30   0
        95   1016.0584    765.0533 307.5078776  +6.3919647     1161.614     2147.513     1965.163     94.10925     187.4748     374.8379      1.738     6.30     1275.674     66.07127     154.3762        13     1.398     0.807 -14.15  16
        96    453.5482    790.8660 307.7411849  +6.3630038      18598.2     60158.71     81296.81     93.96069     187.4003     374.8006      3.055     7.70       1285.1     66.07127       1809.5       119     2.573     2.106 -33.11   0
        97   1000.4769    753.6059 307.5147507  +6.3961945     1228.257      3002.03     4184.788     93.51362     186.8778     374.6515      2.691    10.18     1274.793     66.07127     144.3365        25     2.080     1.388 -50.91   0
        98    973.8311    757.0630 307.5257276  +6.3939007     621.3738      1598.02     1463.677     93.66288     187.5493     374.8006      2.343     6.85     1275.179     66.07127      90.1189         7     1.282     1.027   9.88   0
        99    928.4549    741.9303 307.5451296  +6.3986881     745.4866     1417.264     1951.436     93.96069     187.3257     374.7633      2.200     5.05     1274.564     66.07127     110.8933         7     1.144     0.630  -6.78   0
       100     87.2038    733.8936 307.8956258  +6.3746026     973.7259     2548.897     3448.782     93.66287     187.1019     374.5023      2.949     8.80     1281.684     66.07127     122.9644        16     1.669     1.295  68.64   0
       101    698.7374    722.0897 307.6414386  +6.3994333     2479.158       7607.3     10584.24     93.96069     187.6238     374.9124      3.049     8.80     1275.142     66.07127      253.006        58     2.308     1.785 -37.45   0
       102    162.6621    720.6388 307.8646639  +6.3825529     1098.849     1835.467     3654.337     93.96069     187.4748     374.8752      3.749    10.70     1281.178     66.07127     141.4482        16     2.265     1.409 -39.39   2
       103    161.4966    717.2518 307.8652643  +6.3839156     1185.117     2923.426      4098.56      93.8119     187.4003     375.1359      2.825     8.05     1280.945     66.07127     132.1979        18     2.124     0.853  -7.48   2
       104    673.0121    719.2070 307.6522464  +6.3997890     820.8234     2263.724     3207.075     93.51361     187.2512     374.7261      2.608     4.75     1275.359     66.07127     141.4181         7     1.496     0.428 -49.78   0
       105    945.0754    713.8701 307.5391567  +6.4108335      1618.94      4395.58     5546.083     94.25757     187.6238     374.8379      2.736     9.97     1272.421     66.07127     168.3923        37     2.115     1.358 -40.12   0
       106    815.3812    714.0667 307.5931471  +6.4065426     8137.628     23974.96     30395.45     93.51361     187.4748     374.7261      2.816     7.28     1273.646     66.07127     854.9878        80     2.357     1.824 -38.42   0
       107    289.2138    708.3478 307.8123976  +6.3917717     2019.512     6628.077     8887.396     93.21437     187.4003     374.5396      3.021     9.02      1280.83     66.07127     240.4417        62     2.274     2.049 -30.20   0
       108    695.8912    706.9502 307.6431357  +6.4056026     2737.548     8263.718     10822.54     93.96069     187.2512     375.0614      2.923     8.13     1274.314     66.07127     287.8486        60     2.290     1.783 -43.49   0
       109    954.2635    699.1334 307.5358285  +6.4172269     792.1823     1648.266      2199.74     93.96069     187.4748     374.8379      2.552     6.89     1271.296     66.07127     126.0612         9     1.503     0.887 -52.42   0
       110    767.7561    696.4908 307.6135692  +6.4122650     1383.327     3963.355     6083.526     93.96069     187.4003     374.9497      3.422     9.93     1273.163     66.07127     158.5836        27     2.091     1.315  13.94   2
       111     54.5736    693.5721 307.9105817  +6.3902113     700.4722     1924.264     2624.417     93.36411     187.2512     374.6515      2.593     6.61     1280.147     66.07127     102.8121         9     1.594     0.769 -62.07   0
       112    972.0058    691.9960 307.5286823  +6.4207544     1260.618     3062.472      3255.43     93.21437     187.1019     374.6888      2.325     8.76     1270.737     66.07127      156.818        20     1.560     1.373 -23.47   0
       113    111.4844    687.5563 307.8870944  +6.3945618     8387.836     28051.39     38946.04     93.96069     187.4003     374.8006      3.153     8.04      1279.93     66.07127     910.3076        97     2.484     2.169 -44.55   0
       114    571.2581    687.9737 307.6956671  +6.4093958     558.2969     1257.314     2073.053     93.51361     187.4748     374.6142      3.098     5.01     1276.728     66.07127     84.78674         5     1.184     0.600  -9.86   0
       115    757.2251    680.6380 307.6184897  +6.4184797     1165.984     2716.268     3940.777     93.51361     187.2512     374.6142      2.886     8.62     1272.496     66.07127     142.2583        21     2.000     1.037  -3.63   2
       116    756.4637    677.5002 307.6189128  +6.4197528     1186.833     2315.679     3561.662     93.96069     187.5493     374.8379      2.533     6.74     1272.357     66.07127     159.6869        14     2.154     0.591  -0.48   3
       117    779.3149    677.1957 307.6094090  +6.4206213     1407.801     4582.899     5537.215     93.36411     187.0272     374.4277      2.871    11.29     1272.327     66.07127      157.825        43     2.145     1.765 -37.52   0
       118    611.2733    674.7745 307.6794542  +6.4161578     1147.254     3281.521     3760.208     93.51361     187.3257     374.7633      2.712     9.75     1275.773     66.07127     146.4061        24     1.950     1.390   2.43   0
       119   1017.3808    672.1564 307.5104593  +6.4304315     4249.941     10554.56     12176.48     93.36411     187.3257     370.6027      2.513     6.10     1269.352     66.07127     449.0748        53     2.015     1.594 -37.88  16
       120    176.1789    666.3969 307.8608810  +6.4054291     7066.318     25132.67     35348.72     93.51361     187.1019     374.5769      3.197     8.62     1278.215     66.07127       751.45        94     2.492     2.197 -31.98   0
       121    463.9929    669.1286 307.7409639  +6.4136955     866.6983     2087.868     3391.452     93.36411     186.9525     374.7633      3.719     5.46     1277.621     66.07127     121.7515         8     1.572     0.535 -81.23   2
       122   1012.2645    655.1888 307.5131617  +6.4372837      3507.15     9163.036     11559.23     93.36411     187.2512     374.6515      2.745     6.41     1267.349     66.07127     392.1482        61     2.170     1.728 -33.94  16
       123    607.3184    652.3580 307.6818597  +6.4253008     11381.14     20935.29     24142.29     93.96069     187.4748     374.7633      2.021     7.69     1273.791     66.07127     1403.152        22     2.024     0.831 -44.91   3
       124    606.0388    649.2473 307.6824978  +6.4265458     15783.49     39291.96     55015.97      93.8119     187.4748     374.6142      2.906     9.51     1273.521     66.07127     1550.249        97     2.865     1.851 -26.75   3
       125    214.1977    650.0522 307.8456087  +6.4134320     835.6193     2012.973     3720.351     93.21437     187.1765     374.3531      3.616     5.80     1276.926     66.07127     109.9696         9     1.150     0.823 -55.82   2
       126    211.8149    645.6689 307.8467497  +6.4151670     741.1234     1562.205     3839.429     93.36411     187.3257     374.7261      2.957     3.46     1276.733     66.07127     108.7909         5     0.803     0.431  16.21   0
       127    503.2622    634.6524 307.7257832  +6.4292350     17999.98     65150.05     93150.44     93.96069     187.4003     374.8006      3.237     8.64     1274.684     66.07127     1848.935       125     2.647     2.246 -33.88   0
       128     47.3238    636.9844 307.9155263  +6.4133781     603.3189     2054.724     2885.069     93.36411     187.1765     374.6888      1.888     3.03     1277.664     66.07127     89.43469         4     1.356     0.198  58.28   2
       129    775.6801    617.6058 307.6129366  +6.4451504      1889.84     6079.313     8126.912     93.51361     186.9525     374.5769      2.945     8.26     1267.466     66.07127     208.6864        52     2.072     1.796 -34.71   0
       130    828.8750    613.0370 307.5909422  +6.4487682      5156.87     15780.56     20380.49      93.8119     187.5493     374.8752      2.913     7.35     1266.718     66.07127     527.5797        73     2.354     1.885 -41.44   0
       131    652.3176    613.2952 307.6644464  +6.4429220     943.9008     2787.716     4241.338     93.66288      187.847     374.9869      3.243     9.61     1269.652     66.07127     126.5237        13     2.072     1.243   5.70   2
       132    904.6401    596.1651 307.5599652  +6.4582064     1184.067     3490.119     5008.292     93.66288     187.4003     374.6142      3.037    10.37     1264.763     66.07127     131.5781        31     2.026     1.480 -48.62   0
       133    863.4279    593.5793 307.5772125  +6.4579382      958.434     2805.649     3525.547     93.21437     187.2512     374.8006      2.888     9.21     1265.488     66.07127     113.9309        20     1.659     1.426  40.20   0
       134    293.4697    591.0351 307.8146101  +6.4404312     2237.885     5300.741     7185.719      93.8119     187.4003     374.9497      2.764    10.50       1272.9     66.07127     289.6072        42     2.703     1.386 -13.67   3
       135    293.1525    587.4687 307.8148633  +6.4418959      2032.58     5179.772     7665.977     93.96069     187.4003     374.8379      2.855    10.37     1272.569     66.07127     228.8096        33     2.695     1.112   2.78   3
       136    843.9532    585.0477 307.5856096  +6.4608347     57581.64     179139.9     235976.7     93.96069     187.3257     374.8752      2.972     7.78     1265.241     66.07127     5910.885       192     2.806     2.117 -28.16   0
       137    226.0784    583.8665 307.8429119  +6.4411945     15869.12     58820.46     88785.57     94.10925     187.5493     374.8006      3.367     8.81     1273.459     66.07127     1814.517       133     2.719     2.383 -36.94   0
       138      5.7696    582.8324 307.9346703  +6.4344140     1545.544     4480.295     6780.486     93.36411     187.1765     352.6399      3.140    12.67     1275.544     66.07127     159.3959        45     2.352     1.900 -40.27  26
       139    151.3749    582.0238 307.8740770  +6.4395142     1651.959     4199.803       7189.9     93.36411     187.2512     374.7633      3.459    14.04      1275.08     66.07127     198.9812        47     2.877     2.106   1.36   2
       140    150.5012    578.4870 307.8745611  +6.4409485     1723.875     3290.588     4173.365     93.96069     187.9957     374.9124      2.435     5.90     1274.828     66.07127     180.2159        14     1.295     0.918  29.30   3
       141    880.7205    572.0580 307.5707390  +6.4674011     1817.012     5132.368     6211.278     93.96069     187.4748     374.8006      2.773     9.71     1264.096     66.07127      190.313        45     2.297     1.550 -36.16   0
       142    399.4406    570.8049 307.7711751  +6.4522575      4386.44     16921.72     25201.24     93.06438     187.1019     374.5396      3.360     9.64     1270.458     66.07127     523.4872        92     2.612     2.210 -38.18   0
       143    834.6171    565.5716 307.5901550  +6.4685871     2101.834     6470.993     8465.146     93.51362     187.1765     374.7261      2.997     8.93     1264.531     66.07127     224.2732        54     2.248     1.757 -22.71   0
       144    567.3010    567.3278 307.7014011  +6.4591671     1390.623     2861.361     4287.459     93.66288     187.6238     374.8379      2.239     6.37     1268.242     66.07127     213.3073        15     1.754     0.651 -40.59   3
       145    564.9736    564.7019 307.7024592  +6.4601774     2122.365     5386.927     8012.636     94.10925     187.1765     374.8006      3.122    10.02     1268.133     66.07127     195.5466        48     2.660     1.553 -35.22   2
       146    213.7048    558.5691 307.8489236  +6.4512530     2040.812     6195.761      10722.2     94.10925     187.2512     374.8752      3.873    11.97     1273.057     66.07127     212.4492        54     2.334     2.111  -2.50   2
       147    610.2542    560.7717 307.6837385  +6.4632773     772.5658      1965.72     2535.396     93.66288     187.5493     374.7261      2.617     4.96     1267.493     66.07127     91.78552         9     1.355     0.514 -50.04   2
       148    609.4660    556.6062 307.6842077  +6.4649745     716.7144      1625.84     2553.913     93.36411     187.1765     374.6142      2.509     6.39      1267.33     66.07127     97.54688         8     1.558     0.735   4.27   2
       149    307.9297    555.4962 307.8097966  +6.4556023      21989.1     85888.49     129897.7      93.8119     187.5493     374.8379      3.405     9.37     1269.924     66.07127     2514.422       146     2.760     2.406 -35.85   0
       150     84.8920    558.7089 307.9025501  +6.4469819     1550.506     4692.715     7298.328     93.96069       188.07     374.9124      3.282    11.02     1274.062     66.07127      180.683        43     2.259     1.969  41.57   2
       151    830.8065    547.4705 307.5923533  +6.4759502     5681.249     17918.29     23005.69     93.36411     187.0272     374.6888      2.911     7.71      1263.81     66.07127     617.0629        74     2.364     1.894 -37.14   0
       152    534.6124    546.1012 307.7157311  +6.4668818     12042.22     43031.38     65367.84     93.66288     187.1765     374.5396      3.377     8.53     1267.215     66.07127     1121.911       126     2.764     2.319 -29.77   0
       153    695.6749    542.4760 307.6487899  +6.4736241     1039.918     2331.461     4220.397     94.25757     187.7727     374.9497      2.682     6.17     1265.215     66.07127     137.8152        11     1.753     0.610  82.18   2
       154    692.2632    541.7715 307.6502343  +6.4738045     923.7231     2216.749      4042.94     93.51361     187.4748     374.7633      3.375     7.94     1265.306     66.07127     131.5142        11     1.815     0.971  71.61   2
       155    179.0643    534.0189 307.8641811  +6.4602743     6650.908     25552.52     37057.73     93.51361     187.4748     374.6515      3.303     8.98     1271.509     66.07127     759.4254       103     2.589     2.303 -38.85   0
       156    364.2389    537.2546 307.7869707  +6.4649853     990.7406      2279.88     3648.376     93.96069     187.5493     374.8379      2.530     6.84     1268.061     66.07127     146.4359        12     1.593     0.824 -33.58   3
       157    364.5490    533.3754 307.7869732  +6.4665998     1133.366     2867.427     4420.132     93.51362     187.4748     374.7261      2.988     8.41     1267.663     66.07127     123.9363        21     1.872     1.055  -8.23   2
       158    145.0071    533.5354 307.8783776  +6.4593604      769.584     1983.599     3183.135     93.36411     187.1765     374.6142      3.023     6.68     1271.952     66.07127     98.13171        10     1.688     0.742 -82.22   0
       159   1004.1536    527.7668 307.5208365  +6.4897249     2105.491     5875.457     6611.634     93.66287     187.4748     374.7633      2.579     7.57      1260.52     66.07127     269.1073        42     1.984     1.543 -25.48   0
       160     43.3980    518.5663 307.9211928  +6.4622260     6971.191     25922.72     37629.74     93.06438     187.2512     374.6142      3.303     8.83     1272.515     66.07127      830.244       102     2.592     2.274 -44.07   0
       161    475.8920    514.8887 307.7412394  +6.4778778     10760.57      42093.8     62485.22     93.96069       188.07     374.9497      3.371     9.75     1265.641     66.07127     1246.543       113     2.681     2.292 -36.87   0
       162     25.8989    512.7833 307.9286755  +6.4640448     56003.64     200357.5     291761.5     93.96069     187.1765     374.6142      3.282     8.65     1272.314     66.07127     6391.662       187     2.727     2.420 -29.50   0
       163    685.2538    516.0186 307.6540244  +6.4842281     3077.826     6712.677     8345.032     93.36411     187.4748     374.5769      2.336     9.34     1263.258     66.07127     328.2612        32     2.243     1.084 -23.89   3
       164    682.6000    512.8139 307.6552379  +6.4854673     3377.544     8022.339     11508.72     93.36411     187.1019     374.6142      2.876    11.96     1263.053     66.07127     343.6543        45     2.872     1.399 -16.79   3
       165    241.2816    512.7175 307.8390001  +6.4711183     5267.594     19597.15     30689.61      93.8119     187.7727     374.9497      3.462     9.08      1267.49     66.07127      547.369       105     2.597     2.439 -36.49   0
       166    979.1113    508.1735 307.5319254  +6.4970170     2036.911      5513.58      6228.37     94.10925     187.1765     374.6888      2.571     8.40     1258.659     66.07127     229.5513        41     2.104     1.428 -50.65   0
       167    607.0952    509.8816 307.6867772  +6.4842230     742.8666     2424.826     3939.557     93.66288      187.847     374.9497      3.004     8.10     1263.433     66.07127     111.9833        11     2.173     0.844  14.10   2
       168    652.7356    506.7891 307.6678773  +6.4869876     1784.913     6560.485       8983.4     93.36411     187.2512     374.7261      3.177    11.26     1262.902     66.07127      198.995        59     2.298     1.981 -25.54   0
       169   1001.9251    500.4026 307.5226876  +6.5009709     1402.299      3885.71     4582.719     93.36411     186.8778     374.6888      2.651    10.19     1257.587     66.07127     171.6858        33     1.902     1.522 -45.97   0
       170    565.6749    500.1717 307.7043533  +6.4868904     1819.199     3974.593     5556.182      93.8119     187.4748     374.8006      2.598     7.70     1262.552     66.07127     224.9308        23     2.284     0.726 -24.32   3
       171    564.6926    496.3976 307.7048902  +6.4884194     2068.619     5606.979     8529.798     93.36411     187.1019     374.5023      3.354    11.37     1262.176     66.07127     212.0645        43     2.513     1.432 -21.49   2
       172    412.7209    500.2983 307.7680380  +6.4818524     653.7969     1347.007     2599.607      93.8119      187.847     374.8752      3.310     3.74     1263.725     66.07127     134.2559         6     1.058     0.657  78.07   1
       173    928.5972    486.6068 307.5536882  +6.5042988     823.4216     2244.286     3432.905     93.21437     187.1019     374.6888      3.195     9.04     1257.374     66.07127     103.9409        13     1.773     1.287  72.82   2
       174    920.9196    492.5078 307.5566861  +6.5016089     1356.358     3541.811     6454.786     93.66287     187.7726     374.9124      4.312    10.58     1257.956     66.07127     161.9491        29     2.193     1.422   0.63   2
       175    751.6584    486.1805 307.6273826  +6.4987288     896.9201     2421.978     4124.986     93.51361     187.3257     374.6142      3.360    11.19     1259.268     66.07127     124.9779        20     2.281     1.529  55.95   2
       176    425.5295    483.1645 307.7632859  +6.4893568     1033.115     2842.528     5036.126      93.8119     187.4748     374.8752      3.652     7.66      1262.25     66.07127     124.6167        15     1.540     1.067  78.60   2
       177    651.8435    481.4785 307.6691056  +6.4974272     2596.356     6188.069     8780.863      93.8119     187.4748     374.8752      2.738    11.40     1260.613     66.07127     300.3478        41     2.758     1.313 -39.59   3
       178    650.5952    476.6386 307.6697893  +6.4993884     2611.737      5832.49     8590.894     92.91416     187.1765     374.5396      2.617     8.94     1260.365     66.07127     309.0535        39     2.346     1.261 -29.75   3
       179    116.6408    483.1758 307.8919018  +6.4792608     641.3906     1277.118     2242.909     93.51361     187.2512     374.5769      3.478     5.80     1269.237     66.07127     76.60876         6     1.163     0.815 -26.47   0
       180    814.6318    477.5791 307.6014504  +6.5043328      4138.65     8195.613     9329.078     93.36411     187.2512     374.6515      2.124     7.69      1258.11     66.07127     491.7723        32     2.308     0.892 -21.79   3
       181    813.4757    473.8574 307.6020576  +6.5058346     5513.501     13210.55     18422.54     93.96069     187.4003     374.7633      2.768     9.33     1257.894     66.07127     582.1152        57     2.612     1.371 -22.76   3
       182    334.9814    474.6317 307.8012791  +6.4899311     721.1799     1641.124     2386.475     93.51361     187.2512     374.6888      2.179     5.18      1262.49     66.07127     108.9419         7     1.319     0.576  35.98   0
       183    998.6183    469.2648 307.5251151  +6.5137428      792.986     1807.101     2246.669     93.51361     187.4748     374.6515      2.611     6.61     1254.773     66.07127     110.8942         8     1.329     0.922  23.21   0
       184    151.8461    467.6816 307.8777703  +6.4868208     1176.092     4119.275     6544.742     93.96069     187.4748     374.8752      3.449    12.58     1266.572     66.07127     143.3048        43     2.259     1.950  27.32   0
       185    790.9039    465.0377 307.6117551  +6.5087492     828.1807     1898.448     3422.221     93.96069     187.3257     374.9869      3.687     5.66     1257.652     66.07127      118.668         9     1.150     0.783 -53.46   2
       186    388.7188    463.6417 307.7792762  +6.4962305     1007.271     2826.717     4255.466     93.96069     187.4748     374.7633      3.149     9.63     1261.058     66.07127     140.4966        22     2.403     1.076 -30.37   0
       187    753.5321    448.9988 307.6278599  +6.5141685      3781.76      6809.39     8561.488     93.36411     186.9525     374.6142      2.019     6.89     1257.205     66.07127     509.4601        19     1.752     0.758 -40.77   3
       188    752.5500    445.6952 307.6283805  +6.5155029     4502.105     12049.12     17874.83      93.8119     187.3257     375.0242      3.077    11.22     1257.068     66.07127     416.9047        60     2.773     1.694 -29.48   2
       189    674.0665    442.4178 307.6611738  +6.5143062      834.204     2487.021     3983.291     93.36411     187.4003     374.7261      3.517     7.76     1258.174     66.07127      126.615        12     1.726     0.977  20.82   0
       190    646.9064    438.8462 307.6726048  +6.5148997     5032.515     13781.55     23060.52      93.8119     187.4003     374.9869      3.463     9.64     1258.009     66.07127     541.8047        91     2.912     2.156 -20.70   3
       191    644.5151    435.7491 307.6737054  +6.5161028     3634.017     7654.598     8919.499     93.96069     187.4003     374.9497      2.311     7.10     1257.823     66.07127     429.6896        29     2.173     0.976 -18.27   3
       192    977.1714    436.8853 307.5351388  +6.5264400     1579.152     4352.979     5021.467     94.10925     187.1019     374.6515      2.594     8.46     1252.576     66.07127     196.2251        33     1.689     1.604 -29.27   0
       193    417.0055    433.2950 307.7685274  +6.5097049     6823.495     27712.39     42976.95     93.66287     187.1019     374.5769      3.464     9.38     1258.086     66.07127     835.1412       112     2.705     2.368 -39.83   0
       194    930.8007    432.6123 307.5545935  +6.5267032     600.9823     1444.428     2550.808     93.51361     187.1019     374.6142      3.006     3.47     1252.463     66.07127     83.80005         5     0.776     0.448  17.49   0
       195    947.2543    426.0099 307.5479645  +6.5299679     1951.507     5457.738     7100.412     93.21437     187.4003     374.5023      2.966    10.72     1251.788     66.07127     201.2083        44     2.495     1.559 -28.36   2
       196    274.5104    424.1451 307.8281741  +6.5088373     3422.298     13258.22     20570.89     93.96069     187.2512     374.9869      3.458     9.52     1258.974     66.07127     441.1781        92     2.689     2.269 -39.72   0
       197    176.1534    415.2567 307.8694324  +6.5092984     1231.671     2673.387     4840.503     93.96069     187.4748     374.9497      3.103     7.51     1261.951     66.07127      169.462        20     2.252     0.701 -29.62   2
       198    176.6330    411.4143 307.8693634  +6.5109033     1263.756     3272.916     5916.638     93.51362     187.1765     374.7261      3.613     8.62     1261.793     66.07127     136.2083        21     1.794     1.157 -12.76   2
       199    197.8258    408.6306 307.8606333  +6.5127476      822.877     2516.478     3823.595     93.36411     187.2512     374.6515      2.971    10.39      1261.09     66.07127     109.5587        19     1.907     1.579 -63.17   0
       200    420.8591    405.5628 307.7678638  +6.5213006     776.0684     1888.477     3110.385     93.96069     187.5493     374.8379      3.269     7.43     1255.649     66.07127     114.8677         9     1.483     1.043 -11.03   0
       201     71.5351    397.8906 307.9135863  +6.5130575     1049.738      3327.33     4897.672      93.8119     187.6982     374.8752      3.304    11.44     1266.777     66.07127     139.9196        30     2.138     1.705 -77.90   0
       202    474.1092    396.7244 307.7459890  +6.5266928     1817.788     7057.882     10350.04     93.96069     187.7727     374.8752      3.307    10.88     1253.852     66.07127     208.8582        68     2.450     2.038 -42.04   0
       203    814.4378    393.7116 307.6043660  +6.5390151     4146.292     14353.97      20187.1     93.96069     187.3257     374.8379      3.270     8.58     1252.377     66.07127      427.751        82     2.498     2.064 -28.97   0
       204    519.1285    381.9907 307.7277413  +6.5342542     721.7742     1743.468     3215.778     93.36411     187.0272     374.6515      2.805     5.55     1252.622     66.07127     127.2406         8     1.586     0.547 -75.90   2
       205    879.8796    376.4989 307.5776944  +6.5482598      11369.2     37145.58     50643.87      93.8119     187.9214     374.8752      3.095     7.98     1250.014     66.07127     1101.568       104     2.499     2.115 -44.17   0
       206    737.6031    364.2461 307.6373600  +6.5487052     21969.05     49424.07      59080.8     93.21437     187.1765     374.4277      2.394     8.36     1250.882     66.07127     2339.172        49     2.366     1.053 -40.37   3
       207    735.9895    360.8218 307.6381479  +6.5500690     22216.27     55143.12     77263.61     93.51361     187.1765     374.6888      2.887    12.13     1250.611     66.07127     2208.695        87     2.995     1.593 -37.74   3
       208    649.7341    367.5568 307.6738409  +6.5444775     780.2634     1981.326     3235.736     93.96069     187.4003     374.8752      3.261     6.86     1251.614     66.07127      116.114         8     1.360     0.969  71.98   0
       209    136.4115    359.1089 307.8878915  +6.5312206     1571.093     6261.788     9081.935     93.66288     187.1019     374.6142      3.267    10.46     1261.583     66.07127     247.9799        65     2.504     2.067 -45.70   0
       210    599.1926    362.6081 307.6950563  +6.5448790     565.5882     1346.388     3191.562     93.21437     187.2512     374.6888      2.927     3.42      1251.41     66.07127     82.68408         5     0.757     0.448 -18.59   0
       211    583.0460    357.9671 307.7019377  +6.5462728     1791.612     3809.185     5241.146     93.66288     187.4748     374.7633      2.677     9.14     1250.917     66.07127      236.959        28     2.733     0.853 -14.12   3
       212    581.9271    353.8622 307.7025428  +6.5479341      1827.64      5196.22     6440.142     94.10925     187.4748     374.9124      2.766    10.35     1250.571     66.07127     182.1127        40     2.178     1.521 -18.65   3
       213    445.1357    351.0708 307.7596032  +6.5446304     6028.923     24419.44     38133.13     93.96069     187.4748     374.8379      3.458    10.04     1250.633     66.07127     752.1335       111     2.742     2.355 -38.11   0
       214    311.8762    352.7805 307.8150391  +6.5395740     822.7896     2529.325     3560.564     93.51361     187.1019     374.7633      3.354     8.52     1252.734     66.07127     130.3416        14     1.850     1.095  68.34   2
       215    535.8612    342.6377 307.7221072  +6.5510760     2290.163     5417.344     8378.818     93.96069     187.5493     374.8379      3.518    10.76     1249.463     66.07127     266.5852        47     2.871     1.294 -33.76   2
       216    532.9631    339.4783 307.7234212  +6.5522883     2196.272      5052.63     6826.655      93.8119     187.5493     374.8379      2.910     9.30     1249.052     66.07127     255.0867        31     2.178     1.109 -38.81   3
       217    804.2497    338.9800 307.6104591  +6.5613217     1032.167     3120.227     4536.728     93.36411     187.5493     374.6515      3.232    10.44      1247.87     66.07127     118.4457        24     2.109     1.442 -13.65   2
       218    425.3557    327.3179 307.7686465  +6.5538094      2074.41     4699.399     6948.167     93.96069     187.4748     374.8006      2.717    10.26     1249.805     66.07127     249.6588        39     2.693     1.090 -29.26   3
       219    424.1153    323.6536 307.7692874  +6.5552845     1898.469     4485.654     6697.519     93.96069     187.4748     375.0242      2.827     9.03     1249.726     66.07127     237.8645        35     2.443     1.118 -19.53   3
       220    792.8914    322.9098 307.6157328  +6.5675994     15517.68     34770.68     45459.14     93.96069       188.07     374.9497      2.582    10.49     1246.694     66.07127     1725.344        63     2.807     1.300 -34.26   3
       221    791.1908    319.5719 307.6165539  +6.5689247     15541.31     35199.16     42704.33     93.51361     187.2512     374.6888      2.448     6.97     1246.477     66.07127     1600.338        57     2.305     1.338 -26.92   3
       222    968.8866    317.0690 307.5426329  +6.5757291      934.007     2367.586     3024.968     94.10925     187.7726     374.8752      2.496     8.25     1244.175     66.07127     107.1526        18     1.711     1.111 -73.55   0
       223    791.4535    307.2288 307.6168619  +6.5740385     1825.376     4255.377     5972.776     93.66288     187.5493     374.7261      2.772    10.41     1245.436     66.07127     217.0114        34     2.520     1.198 -41.98   3
       224    789.5071    304.0504 307.6177800  +6.5752898     1805.695     3805.143     5080.144      93.8119     187.2512     375.0614      2.207     8.51     1245.207     66.07127     207.3909        25     2.135     0.947 -50.17   3
       225    228.7293    308.5107 307.8511690  +6.5551669     633.9999     1753.333     3257.346      93.8119     187.7727     374.8379      3.539     6.02     1254.502     66.07127      105.823         8     1.408     0.723 -42.91   0
       226    807.0675    305.2354 307.6104265  +6.5753703     875.3489     1998.924     2986.959      93.8119     187.5493     374.9497      2.884     7.38     1245.156     66.07127     110.4667        14     1.937     0.788 -23.94   0
       227    286.5132    292.9290 307.8276350  +6.5634998     1540.665     3774.209      6141.97     94.10925     187.7727     374.8379      3.150    11.20     1251.057     66.07127      191.327        34     2.569     1.444 -23.67   3
       228    285.9676    288.3860 307.8280166  +6.5653609     1417.474      3622.75     5127.678     93.51361     187.1765     374.7261      2.832     9.06     1250.935     66.07127     160.2177        28     2.431     0.941  -5.79   3
       229     16.1297    283.7139 307.9405471  +6.5584647      17577.1     67418.79     100944.5     94.10925     187.7727     374.8752      3.363     9.06     1268.031     66.07127     2417.624       135     2.729     2.368 -43.18  16
       230    599.4636    274.5555 307.6979266  +6.5813068     658.3312     1690.178     3400.376     93.96069     187.4003     374.8752      3.930     6.10      1242.62     66.07127     94.73853         8     1.160     0.901  -3.59   0
       231    763.6556    271.2476 307.6296560  +6.5880171     1513.756     4510.021     7151.259     93.96069     187.4748     374.9497      3.406    13.26     1243.214     66.07127     168.1326        40     2.281     2.146 -25.26   2
       232    263.4199    258.1957 307.8384328  +6.5771106     697.8371     1650.932     2629.703     93.51361     187.1019     374.6142      2.303     5.15     1252.011     66.07127     96.71631         9     1.432     0.524 -27.31   0
       233    496.4209    245.3860 307.7418302  +6.5900140     5204.072     22064.31     35873.43     93.66288     187.1019     374.7261      3.604    10.45     1240.405     66.07127     740.3497       114     2.895     2.333 -40.21   0
       234    823.3484    245.9535 307.6056500  +6.6004188     3525.925     7071.386     9575.891     94.10925     187.3257     374.9124      2.455     8.90      1241.51     66.07127     436.0663        32     2.685     0.888 -52.28   3
       235    821.4854    242.5202 307.6065420  +6.6017783     4083.513     10116.33     13719.84      93.8119      187.847     374.9497      2.734    10.96     1241.364     66.07127     423.4187        48     2.547     1.503 -50.41   3
       236    185.7383    241.0483 307.8713671  +6.5816629     826.3344     1962.431     3228.167     93.96069     187.4003     374.9124      2.627     6.20     1257.842     66.07127     109.8488        12     1.844     0.587 -47.28   0
       237     23.3623    234.9491 307.9391968  +6.5788700     1475.807     2909.216     4033.206     93.66287     187.3257     374.8006      2.291     9.48     1271.052     66.07127     190.9008        25     2.243     1.117 -10.60   3
       238     24.9608    232.0000 307.9386316  +6.5801421     1184.099     2722.063      4126.49     92.76369     187.1765     374.5023      2.934    12.00     1271.091     66.07127     181.2822        24     3.216     1.247  12.66   3
       239    618.5563    229.3612 307.6915059  +6.6006210      1147.23     2510.107     4047.776     93.66288     187.4003     374.6515      3.046     8.94     1238.866     66.07127     167.4612        18     1.991     1.122 -44.40   2
       240    619.0000    233.5125 307.6911805  +6.5989185     944.2841     2029.007     2788.985     93.06438     186.8778     374.4277      1.873     3.57     1239.277     66.07127     133.6503         5     1.037     0.355  85.95   3
       241    622.0124    232.2722 307.6899679  +6.5995295     1309.655     2733.532     4395.901     93.36411     187.0272     374.6142      2.528     7.63     1239.129     66.07127     176.7322        19     2.081     0.784 -55.02   3
       242    927.7684    228.9833 307.5627325  +6.6108283     3723.738     7605.645     9814.088     93.51361     187.1765     374.6888      2.392     8.41     1239.905     66.07127     428.2003        40     2.512     1.155 -35.07   3
       243    926.9770    225.5348 307.5631786  +6.6122290      3377.43     7624.664     8818.458     93.51361     187.4748     374.7261      2.423     7.78     1239.745     66.07127      385.777        34     2.178     1.077 -27.55   3
       244    980.0190    227.7755 307.5410106  +6.6130230     1067.126     3202.661     4050.033     93.66288     187.2512     374.7633      2.832     9.05     1238.136     66.07127     117.5907        20     1.876     1.220  89.16   0
       245     53.7162    224.8726 307.9268992  +6.5840319     6766.563     25373.22     38768.84     94.10925      187.847     374.8752      3.404     8.98     1268.967     66.07127     934.1223       107     2.655     2.329 -40.07   0
       246   1013.7507    224.9626 307.5270560  +6.6152803     3963.993     11591.82     14813.59     93.66287     187.4003     374.6888      2.842     7.30     1236.747     66.07127     412.1475        65     2.222     1.798 -34.49  16
       247    726.2789    226.9574 307.6467216  +6.6051205     961.7217     2304.811     4019.209      93.8119     187.4748     374.8379      3.244     7.68     1240.407     66.07127     152.6488        15     2.064     0.901 -42.70   0
       248    546.5130    219.0085 307.7218621  +6.6025563     710.8302     1386.431     2795.312     93.51361     187.1019     374.5769      3.252     3.76     1238.145     66.07127     89.56128         6     0.813     0.500  89.97   0
       249    776.5255    211.4893 307.6263172  +6.6131519     10496.64      22097.5     26083.48     93.96069      187.847     374.9124      2.278     6.96     1240.013     66.07127     1127.487        40     2.179     1.100 -20.61   3
       250    917.3783    216.1464 307.5674936  +6.6158006     687.7432     2083.515     2814.838     93.36411     187.4748     374.6142      2.752     4.80     1239.048     66.07127     105.2509         7     1.373     0.476 -64.37   0
       251    549.4363    215.8413 307.7207520  +6.6039615     606.4894     1470.714     2061.881     93.66288     187.4748     374.6888      1.644     3.42     1238.045     66.07127     105.2115         5     1.450     0.233 -72.20   0
       252    382.3630    213.8208 307.7904042  +6.5993486     2267.879     5266.743     9496.882     93.51361     187.1765     374.5396      3.600    10.95     1246.013     66.07127     247.3763        51     2.798     1.899 -36.04   3
       253    379.7176    212.2928 307.7915579  +6.5998942     1718.877     4586.188     7516.986     93.66288      187.847     374.9497      3.452     9.91     1246.077     66.07127     188.0021        27     2.034     1.346 -70.09   3
       254   1009.9932    210.9297 307.5290946  +6.6209627     1082.317     3041.201     4273.762     93.36411     186.9525     374.7261      3.115    10.06       1236.3     66.07127     137.7604        23     2.086     1.352 -23.07   2
       255    945.1710    210.4157 307.5561112  +6.6190728     2770.033     8631.559     10712.81     93.51361     187.1765     374.7633      2.877     7.88     1237.976     66.07127     306.2213        58     2.192     1.792 -46.98   0
       256    777.8475    214.8920 307.6256515  +6.6117875     12492.94     30595.45     39309.94     93.96069     187.4003     374.9869      2.648     9.10     1240.172     66.07127      1308.65        71     2.777     1.439 -27.70   3
       257    489.0887    212.4841 307.7459999  +6.6033831     1494.821     2850.375     4864.849     93.66287     187.7726     374.9497      2.879     7.70     1238.483     66.07127     168.7744        22     1.872     0.953 -14.99   3
       258    490.1000    208.3359 307.7457195  +6.6051318     1293.131     3628.105     5150.558     93.96069     187.6238     374.8006      2.964    10.80     1238.348     66.07127     168.8281        28     2.448     1.327  -9.58   3
       259    146.5137    201.9206 307.8890342  +6.5965625     1272.221     4818.156     7111.163     93.66287      187.847     374.9869      3.319    12.58     1261.995     66.07127     177.4457        49     2.283     1.929 -42.93   0
       260    317.8847    199.6381 307.8177400  +6.6031091     9820.256     25231.67     39698.17     93.96069     187.4003     374.8006      3.262     9.88     1249.538     66.07127     1087.155        97     3.124     2.199 -37.77   3
       261    315.9638    196.0000 307.8186637  +6.6045511     7355.897     15237.67     18348.18     92.76369     187.1765     374.5769      2.271     6.53     1249.599     66.07127     777.3317        29     2.044     1.050   3.06   3
       262    293.2870    200.8898 307.8279419  +6.6017879     1769.546     3800.003     5691.896     93.66288     187.9957     374.9869      2.632    10.20     1250.639     66.07127      240.486        34     2.745     1.057 -40.90   3
       263    290.8638    197.3440 307.8290717  +6.6031752     1562.547     3966.318     5094.206     94.10925     187.4003     374.8379      2.684    10.94      1250.77     66.07127     204.8696        35     2.601     1.281 -41.26   3
       264    441.8788    194.8716 307.7662600  +6.6091280      14505.3     36499.52     52106.64     94.25757     187.7726     374.8006      2.970     9.89      1240.21     66.07127       1543.7        87     3.120     1.660 -37.62   3
       265    439.5247    191.4824 307.7673555  +6.6104530     11531.67     27365.23     33134.21     94.25757      187.847     374.9124      2.529     6.91     1240.079     66.07127      1111.64        45     2.139     1.347 -25.39   3
       266    197.2580    197.4241 307.8680536  +6.6000822     1175.136     1999.726     3030.906     93.51361     187.4748     374.6888      2.054     6.14      1258.92     66.07127     141.4584        13     1.366     0.777 -29.09   3
       267    197.1482    193.3005 307.8682396  +6.6017841      876.521     2593.642      3170.84     93.96069     187.4748     375.0987      2.813     8.21     1259.186     66.07127     125.8724        15     1.943     0.970  14.20   3
       268    346.1753    192.3737 307.8062042  +6.6070376     5242.089     13862.19      21491.4     93.36411     187.2512     374.7261      3.284    10.36     1248.067     66.07127     581.5465        64     3.044     1.464 -36.48   3
       269    780.6073    191.0428 307.6253087  +6.6217414     10208.76     24467.67     31620.28     93.36411     187.1765     374.5023      2.674     9.67     1239.184     66.07127      1133.14        62     2.758     1.390 -34.31   3
       270    779.0179    187.4711 307.6260915  +6.6231670     9168.476     19584.51     23895.38     93.36411     187.3257     374.7633      2.330     6.43     1239.034     66.07127     1007.636        42     2.159     1.170 -25.34   3
       271    344.0077    188.9902 307.8072220  +6.6083662     4272.807     10218.17     13277.77     93.36411     187.2512     374.7261      2.729     7.56     1248.086     66.07127     414.4204        35     2.125     1.254 -28.02   3
       272     98.1677    188.1944 307.9096361  +6.6006570     3023.811     7854.022     10984.71     93.21437     187.2512     374.5769      2.844     8.91     1265.257     66.07127      380.235        55     2.701     1.478 -48.58   3
       273     95.3231    184.9906 307.9109299  +6.6018889      2089.08     4767.734     6587.926     93.51361     186.9525     374.6142      2.581     8.76     1265.513     66.07127     202.1829        26     2.263     0.947 -55.50   3
       274    315.3895    164.4464 307.8199751  +6.6175826     6941.754      29800.5     46986.56     93.36411     187.2512      374.465      3.522     9.79     1249.447     66.07127     999.5217       117     2.860     2.354 -33.36   0
       275     61.2969    163.2931 307.9258399  +6.6097484     1380.267     4578.656     6925.366     93.96069       188.07     374.7633      3.253    11.80      1268.75     66.07127     201.0126        42     2.066     1.875 -33.26   2
       276    747.0756    160.6295 307.6403041  +6.6332304     2401.218     8529.111     11710.32      93.8119     187.5493     374.8752      3.144     9.45      1238.36     66.07127     268.5095        64     2.374     1.915 -34.80   0
       277    155.5055    157.4988 307.8868012  +6.6152289     1059.076      2334.28     4413.786     93.96069       188.07     374.6515      2.839     8.45     1263.097     66.07127     122.1127        16     1.991     1.001 -71.04   3
       278    158.9659    160.0099 307.8852746  +6.6143036     1610.522     3441.795     4862.145     93.36411     187.2512     374.6515      2.666     8.07     1262.971     66.07127     215.7726        29     2.461     0.951 -40.29   3
       279    158.9552    155.7105 307.8854254  +6.6160814     1039.363     1904.439     2398.997     93.96069     187.4003     374.9497      2.328     5.92     1262.978     66.07127     160.1147         9     1.327     0.743   6.46   3
       280    430.4810    154.1303 307.7723900  +6.6256066     1262.829      3800.63     6394.238     94.25757     187.7726     374.8752      3.566    12.05     1238.811     66.07127      130.166        34     2.251     1.795  83.44   2
       281    394.1796    153.7273 307.7875233  +6.6245887     1007.749      2638.32     3969.756     93.51361     187.3257     374.8006      3.123     8.72     1242.114     66.07127     149.7953        16     2.252     0.942 -74.38   0
       282    246.0103    142.7813 307.8496076  +6.6242759     1693.609     5006.165     7668.563     93.51361     187.1019     374.6888      3.480    11.36     1258.371     66.07127     201.0708        48     2.671     1.808 -46.82   2
       283    706.5990    140.2953 307.6578517  +6.6403242     1651.134     6542.127     9323.017     93.36411     187.0272     374.3904      3.129    11.35     1236.858     66.07127     258.3906        64     2.304     2.108 -44.05   0
       284    663.0969    130.7061 307.6762961  +6.6428748     16330.36     41990.98     67024.74     93.96069     188.1443     374.7261      3.670     9.43     1236.142     66.07127     1696.824       165     4.386     2.297 -52.28   2
       285    661.3475    127.3218 307.6771394  +6.6442177     13764.98     29595.16     32735.95     93.96069     187.4748     374.8379      2.123     5.84     1235.861     66.07127     1347.404        24     1.607     1.133 -42.15   3
       286    388.1090    135.4011 307.7906741  +6.6319701      1092.91     2644.954     4517.889     93.06438     186.9525     374.5769      3.569     4.90     1243.931     66.07127     148.4479        12     1.117     1.024  29.63   2
       287    383.5098    131.7318 307.7927143  +6.6333376     973.9525     2429.819     4504.936     94.10925     187.6238     374.8006      3.699     5.20     1244.635     66.07127     123.2355         8     1.042     0.734 -36.58   0
       288    342.2407    125.5037 307.8101148  +6.6345660     1121.519     2135.516     3863.138     93.96069     187.3257     375.0242      2.855     6.31     1250.221     66.07127     182.1709        13     1.752     0.639 -31.49   2
       289    341.1624    121.6555 307.8106946  +6.6361224     934.1586     2509.208     3609.893     93.96069     187.5493     374.8752      3.057     7.77     1250.629     66.07127     131.5164        16     2.448     0.690   1.68   2
       290     39.0096    106.6832 307.9370510  +6.6324311     469085.3      1827258      2728592     93.51361     187.1019     374.6515      3.361    10.67     1270.771     66.07127     61731.86       431     2.923     2.550 -30.86   4
       291    726.0165    113.6966 307.6506642  +6.6519571     1003.096     3400.662      4635.56      93.8119     187.2512     374.6515      3.005    10.88     1234.786     66.07127     157.6766        30     1.964     1.680 -32.66   0
       292    469.3320    105.8525 307.7578465  +6.6468414     1225.866     3371.219     5710.709      93.8119     187.4003     374.7633      3.438    10.69     1237.879     66.07127     150.2439        31     2.334     1.364 -44.21   2
       293    941.5219    100.5483 307.5613417  +6.6643964     1252.144     2721.225       3092.2     93.96069     187.5493     374.8379      2.385     7.79     1232.297     66.07127     140.7959        20     1.758     0.965 -37.63   3
       294    940.2057     97.6515 307.5619878  +6.6655519     1165.799      2291.13     2720.518     93.36411     187.2512     374.4277      2.263     8.27     1232.288     66.07127     158.6725        15     1.877     1.018 -43.12   3
       295    921.3360     98.3697 307.5698237  +6.6646424     739.6141     1799.374     2360.016     93.66288     187.5493     374.7633      2.682     7.79     1232.802     66.07127     93.51086         8     1.361     1.248  16.51   2
       296    924.2908    101.0391 307.5685027  +6.6636342     703.2012     1639.243     2255.784     93.96069     187.4003     374.8752      2.023     4.25     1232.868     66.07127     111.6533         5     1.512     0.341 -47.37   2
       297    180.8642     95.0588 307.8783645  +6.6418829     1163.574     3089.548     5021.982     94.10925     187.4003     374.8752      3.728     8.62     1262.981     66.07127     138.6415        19     1.826     1.137 -44.26   0
       298     61.7560     91.4508 307.9280962  +6.6394761     3418.069     12757.65     20185.77     94.10925     187.4003     374.8752      3.525     9.37     1268.454     66.07127     504.0023        92     2.639     2.301 -39.51   0
       299    863.5126     86.7269 307.5943035  +6.6675806     2231.681     4571.003     5637.562     94.10925     187.7727     374.8379      2.188     7.76     1232.458     66.07127     249.6707        27     1.934     0.996 -18.38   3
       300    862.5497     83.7927 307.5948037  +6.6687629     1957.529     4939.571     6478.754     93.36411     187.1765     374.4277      2.763     9.52     1232.304     66.07127     244.9309        31     2.295     1.147 -13.24   3
       301    808.5372     87.6244 307.6171730  +6.6654234     1084.827     2366.097     4074.787     93.51362     187.4748     374.7261      3.028     7.01     1232.644     66.07127     141.1726        16     1.949     0.706 -12.86   2
       302    810.0817     85.0000 307.6166184  +6.6665591     1126.463     2930.223     4115.924     93.06438     186.8778     374.4277      3.123     7.08      1232.49     66.07127     154.0963        11     1.775     0.792 -22.46   3
       303    103.4809     83.2912 307.9109957  +6.6442172     1191.516     3091.597     4128.319     93.66288     187.7727     374.9124      2.864    10.02     1265.001     66.07127     150.4742        23     2.087     1.342 -76.73   0
       304     45.5244     80.0852 307.9352439  +6.6436449     976.9901     2081.943     3835.074     94.10925      187.847     374.9124      4.184     5.55     1269.388     66.07127      186.767        12     1.617     0.850 -60.93   0
       305    802.9180     73.9621 307.6199758  +6.6708916     802.5033     1994.424     3272.258     93.96069     187.5493     374.8006      3.389     6.62     1231.951     66.07127     115.9459         9     1.508     0.815 -31.23   0
       306    129.7800     67.6717 307.9005738  +6.6515381     2573.338     10030.72     15173.84     93.51361     187.3257     374.7633      3.351     9.37     1263.995     66.07127     353.2032        79     2.618     2.119 -43.62   0
       307    672.4603     58.8524 307.6748295  +6.6728983     5118.833     18981.52     27422.21     93.96069     187.4003     374.8379      3.271     9.07     1233.613     66.07127        653.2        94     2.620     2.158 -40.33   0
       308    572.8970     56.3259 307.7163880  +6.6707013     1593.675     3920.826     5735.674     93.66288     187.6982     374.8752      2.976     9.62     1235.777     66.07127     167.5183        32     2.251     1.147 -37.57   2
       309    570.7618     53.3870 307.7173770  +6.6718472     1262.745      2822.63     4139.468     93.51361     187.2512     374.5023      2.424     6.17     1235.959     66.07127     159.8743        16     1.433     0.968 -44.86   3
       310    300.0073     52.5036 307.8301866  +6.6633785     2910.667     7590.969      12934.6     93.66288     187.0272     374.5769      4.867    13.53     1260.391     66.07127     362.9858        71     3.817     1.637 -26.47   2
       311    297.4713     48.7593 307.8313702  +6.6648442     1986.544      4552.42     7553.234      93.8119     187.4748     374.9124      4.274     8.46      1261.06     66.07127     227.2325        23     2.044     0.979 -19.66   3
       312    478.6994     52.4563 307.7557566  +6.6692312     6728.442     16202.31     22164.39     93.66288     187.4748     375.0987      2.817    10.35     1240.522     66.07127     743.2917        64     2.946     1.444 -31.69   3
       313    477.1309     48.6171 307.7565402  +6.6707679     5255.506     12011.05     15366.08     93.36411     187.3257     374.7261      2.467     7.31     1240.898     66.07127     515.1022        41     2.318     1.169 -24.32   3
       314     64.7554     53.8262 307.9281289  +6.6551351       735.54     1177.337     2248.284     93.36411     187.5493     374.7261      1.480     3.51       1266.9     66.07127     105.3651         5     1.018     0.349 -44.37   1
       315    955.5940     50.8046 307.5571600  +6.6854274      894.556     2373.831     3404.832     93.21437     187.1019     374.6515      3.092     8.15     1228.466     66.07127     142.8242        12     1.700     1.093 -69.13   0
       316    659.1353     49.7896 307.6806870  +6.6762130       1260.6     3815.302     6114.708     93.36411     187.2512     374.7261      3.300    10.79      1233.62     66.07127     153.3015        34     2.438     1.329 -32.46   2
       317    288.2882     47.7106 307.8352309  +6.6649779     1015.083      3095.37     7203.062     93.66288       188.07     374.9497      4.695     7.54     1262.128     66.07127     144.4862        13     1.774     0.896  53.97   3
       318    729.4272     39.0079 307.6517716  +6.6829594     626.4763     1290.174     2021.267     93.51361     187.2512     374.6142      3.057     4.59     1231.956     66.07127     84.32227         5     1.053     0.570 -14.99   0
       319    217.1961     34.3324 307.8652979  +6.6681868     3457.421     9338.885     14023.56     93.21437     187.1019     374.5769      3.168     9.47     1263.295     66.07127      423.933        69     2.760     1.973 -32.13   2
       320    214.6694     31.3071 307.8664532  +6.6693554     2228.451     3505.315     4668.217     93.96069     187.6238     374.8379      1.716     5.13     1263.313     66.07127     263.3396        11     1.170     0.812  18.41   3
       321    961.3220     30.6623 307.5554541  +6.6939442     1634.613     4643.333     5738.647     94.25757     187.5493     374.8006      2.784     9.70      1226.82     66.07127     186.0857        39     2.069     1.622 -28.64   0
       322    561.0056     33.0899 307.7221292  +6.6799241     965.1636     2144.484     3324.693     93.36411     187.1019     374.5769      2.366     6.28     1237.179     66.07127     148.0018        13     1.599     0.693 -27.29   2
       323    498.1071     32.2285 307.7483588  +6.6782302     535.7889     1044.449      1077.91     94.10925     187.1765     374.7261      2.150     3.85      1240.88     66.07127      109.672         5     1.199     0.354 -11.34   0
       324    764.4282     30.5843 307.6374766  +6.6875816     642.7918     1380.393     2554.909     93.51362     187.1765     374.7261      2.922     5.64     1230.795     66.07127     132.7736         8     1.478     0.606 -65.47   0
       325    499.9629     28.5004 307.7477123  +6.6798326     471.6873     984.8943     835.5645     93.96069     187.3257     375.0987      1.938     4.62     1240.965     66.07127     92.88342         5     1.039     0.584 -78.01   0
       326    787.5461   1013.8919 307.5946059  +6.2816263     4637.891     10403.34     11609.43      93.8119     187.3257     375.0242      2.324     5.85     1291.725     66.07127     547.1742        45     2.014     1.345 -35.24  16
       327    583.0378   1014.0892 307.6797221  +6.2748950     2208.618      5438.49     6976.916     93.96069     187.4003     374.8752      2.721     7.47     1293.281     66.07127     249.9714        45     2.147     1.586 -50.49  19
       328    580.3505   1006.8537 307.6810855  +6.2778002     4053.465     9980.939     12702.91     94.10925     187.4748     374.8752      2.640     6.28     1292.948     66.07127     462.9084        55     2.187     1.572 -27.42   2
       329    333.5077   1013.5618 307.7835992  +6.2669809     7362.951     19073.25     23505.82     94.10925     187.4003     374.9124      2.705     6.48     1293.884     66.07127     763.5829        73     2.361     1.674 -33.67  16
       330    458.0591   1014.8000 307.7317170  +6.2705305     612.9523     1160.559     1353.698     93.06438     187.0272     374.4277      1.558     3.87     1291.469     66.07127     91.35632         5     0.822     0.521  52.32   0
       331    849.2479   1012.2784 307.5689778  +6.2842973      742.491     1309.461      1337.58     93.96069     187.5493     374.7633      1.947     3.92     1292.085     66.07127     125.4763         5     0.999     0.441  -4.95   0
       332    948.8964   1007.1527 307.5276728  +6.2896505     5987.439     12218.86     13513.28     93.96069     187.3257     375.0242      2.167     5.36     1290.841     66.07127     705.6711        47     2.012     1.276 -37.21   0
       333    922.5488   1003.3247 307.5387689  +6.2903793     8092.425     17164.55     19839.74     93.96069     187.5493     374.8379      2.286     5.51     1290.684     66.07127     896.5591        56     2.041     1.389 -31.40   0
       334    566.8444   1002.8463 307.6868427  +6.2790181     1947.235     5434.156     7208.035     93.96069     187.4748     374.7633      3.142     8.24     1292.659     66.07127     221.4354        43     2.076     1.539 -26.11   0
       335    128.9927     14.6155 307.9027083  +6.6734554     612.2228     1725.528     3214.646     93.51361     187.1765     374.6515      4.247     4.80     1263.619     66.07127     90.03625         5     1.428     0.457  -7.08   0
       336    635.3149   1003.5735 307.6583186  +6.2809456     821.4072     1906.846     1788.613     94.10925     187.1765     374.6888      2.377     5.53     1292.952     66.07127      135.635         8     1.421     0.607 -27.51   0
       337    677.2644   1000.4321 307.6409640  +6.2836093      756.277     1630.859     1250.295     93.66288     187.5493     374.8006      2.538     4.57     1292.465     66.07127     103.3435         7     0.909     0.652 -73.52   0
       338    519.2225    999.0075 307.7067943  +6.2790551     1197.433     2449.146     2741.465     93.36411     187.2512     374.6142      2.170     6.53     1291.945     66.07127     150.0098        14     1.382     0.866  -9.62   0
       339    954.2484    990.8453 307.5259950  +6.2965690     28793.58     60455.46     68058.42     93.96069     187.3257     374.8752      2.224     5.25     1289.341     66.07127     3369.784        82     2.105     1.470 -33.20   0
       340     27.6306    991.6898 307.9116500  +6.2660306     1565.999     4004.974     4706.153     94.10925     187.2512     374.8006      2.568    10.04     1289.024     66.07127     175.8451        36     2.033     1.458 -38.27   0
       341    262.8520    988.1813 307.8138685  +6.2751718     787.7411     1778.493     2702.833     93.36411     187.5493     374.5769      2.671     6.12     1292.568     66.07127     116.9417         9     1.427     0.739  12.49   2
