#   1 NUMBER                 Running object number                                     
#   2 X_IMAGE                Object position along x                                    [pixel]
#   3 Y_IMAGE                Object position along y                                    [pixel]
#   4 ALPHA_J2000            Right ascension of barycenter (J2000)                      [deg]
#   5 DELTA_J2000            Declination of barycenter (J2000)                          [deg]
#   6 FLUX_APER              Flux vector within fixed circular aperture(s)              [count]
#   9 FLUXERR_APER           RMS error vector for aperture flux(es)                     [count]
#  12 FLUX_RADIUS            Fraction-of-light radii                                    [pixel]
#  13 FWHM_IMAGE             FWHM assuming a gaussian core                              [pixel]
#  14 BACKGROUND             Background at centroid position                            [count]
#  15 THRESHOLD              Detection threshold above background                       [count]
#  16 FLUX_MAX               Peak flux above background                                 [count]
#  17 ISOAREA_IMAGE          Isophotal area above Analysis threshold                    [pixel**2]
#  18 A_IMAGE                Profile RMS along major axis                               [pixel]
#  19 B_IMAGE                Profile RMS along minor axis                               [pixel]
#  20 THETA_IMAGE            Position angle (CCW/x)                                     [deg]
#  21 FLAGS                  Extraction flags                                          
         1      1.9347    100.3843 307.9354686  +6.6320726     468325.1     690035.9     731984.1     74.18713     132.5785     244.4309      1.607    10.76     840.7045     55.02745     62787.77       264     2.390     1.349 -89.24  28
         2      1.5075     47.7293 307.9374107  +6.6537941     1168.703     1561.728     1587.763     70.29743     126.9787     237.8408      1.272     4.39     834.4079     55.02745     182.0348        10     1.122     0.578  85.47  24
         3    987.9482     20.8181 307.5284150  +6.6977358     2017.221     3144.598     3426.622     77.75829     156.2004     311.9353      1.677     4.14     822.0174     55.02745     259.2388        22     1.493     0.897  74.18   0
         4    707.2745     17.2834 307.6451667  +6.6898875     8560.636     11571.21     11551.96     78.37887     156.4484     312.2457      1.437     3.42     823.6434     55.02745     1336.507        26     1.303     0.866  63.62   0
         5    627.4117     16.6215 307.6783752  +6.6875074     4498.166     6231.522     6530.753      77.8828       155.89     312.0595      1.434     3.13     823.4202     55.02745     730.9904        22     1.302     0.798  67.88   0
         6    427.6651     13.0062 307.7614979  +6.6823536     7274.217      9888.25     10621.99     77.75829       155.89     311.9663      1.402     3.15     827.5178     55.02745      1154.31        25     1.346     0.793  64.94   0
         7     28.4814     12.7589 307.9273749  +6.6691319     9532.866     13226.32     14012.92     78.25515     156.1384     312.1216      1.471     3.39     830.5746     55.02745      1423.32        33     1.374     0.977  56.24   0
         8    674.9045     11.9716 307.6587947  +6.6910051     953.5027     1267.934     1084.709     78.37887       155.89     312.1526      1.390     4.19     823.2252     55.02745     150.3669         9     1.174     0.511  54.81   0
         9    503.2055     10.1616 307.7302031  +6.6860429     962.3815     1193.627     1139.804     77.38354       155.89     311.9353      1.270     3.13     824.6342     55.02745     212.2802         9     1.087     0.577  69.87   0
        10    324.2030      7.9588 307.8046581  +6.6809892     14912.62      20377.4     21696.01     77.63357     155.8278     310.2221      1.413     3.32     832.0447     55.02745     2583.587        33     1.400     0.850  58.08  16
        11     97.8051      8.3662 307.8987174  +6.6732630     2794.711     4128.216      4267.31     77.50866     155.9521     311.7488      1.504     3.82     832.1796     55.02745     455.9688        20     1.332     0.812  62.30  16
        12    419.2975      8.6190 307.7651213  +6.6838859     866.0216     1236.857     1571.934     78.13123     156.0142     311.9353      1.407     4.59     827.9888     55.02745     145.8464        10     1.292     0.571  61.19  16
        13     88.8299      7.0848 307.9024896  +6.6734920     1689.835     2340.953      2486.25     78.25514     155.9521     305.2154      1.376     3.20     831.9031     55.02745     309.4555        16     1.241     0.769  61.51  16
        14    792.6249      6.6391 307.6100534  +6.6971149     1001.325     1379.496     1157.571      77.8828     155.9521     301.7672      1.493     3.58     823.6169     55.02745      178.944        11     1.102     0.658  61.68  16
        15    458.6764      6.1553 307.7488403  +6.6862144      777.196     1062.067     612.8136     78.13123     156.2004     297.5963      1.439     3.98     825.7985     55.02745     127.0394        10     1.075     0.719  69.07  16
        16    390.2668      5.8359 307.7772775  +6.6840676     2688.283     3422.051     3090.375     78.13123     156.2625     294.6842      1.367     3.42     829.8177     55.02745     421.9412        15     1.188     0.698  56.31  16
        17    985.2357      2.6916 307.5301437  +6.7051290     614.7969      710.817     511.6765     78.37887     142.3074     255.9717      1.564     3.43     821.4753     55.02745     103.1755         5     1.231     0.276  55.52  24
        18    651.3593      1.8695 307.6689152  +6.6943930     11115.62     12549.58     13009.21     74.18713     131.9925     243.6765      1.114     2.70     822.8967     55.02745     2209.319        18     1.016     0.720  33.05  24
        19    816.3328      1.4698 307.6003734  +6.7000354     1310.237     1554.807     1836.205      69.7439     126.2133     237.1881      1.019     2.25     823.4265     55.02745      353.399         9     0.920     0.578  14.21  24
        20    529.0661      1.6919 307.7197395  +6.6903999     1200.629     1353.582     1549.382     72.46929     129.4725     240.7562      1.117     2.58     824.4635     55.02745     254.2991         8     0.833     0.575  42.40  24
        21     69.2719      1.9404 307.9107885  +6.6749618     862.9547     1074.979     1160.505     74.83733     132.8705     244.5894      1.373     3.76      830.999     55.02745     167.1252         8     0.879     0.783   0.12  24
        22    481.5298    993.7844 307.7064272  +6.2792656     2236.331     3494.824     3344.728     77.75829     156.0763     312.0905      1.669     4.07     856.9976     55.02745     302.5733        19     1.387     0.848  70.90   0
        23    956.0569   1022.5289 307.5084418  +6.2831465     5206.325     8347.438     8287.831     78.37887     139.6267     252.7336      1.742     4.64     852.4539     55.02745     660.2655        28     1.450     1.152  22.39  24
        24    715.7500   1021.3138 307.6082611  +6.2756827     2641.143     4300.289     4416.101     78.25515     151.7321     269.9016      1.733     3.75     856.7695     55.02745     336.2266        27     1.405     1.102  65.26  24
        25    710.4581   1023.4135 307.6103885  +6.2746404      679.095     974.8486     915.1711     70.70974     127.7396     238.8166      1.486     4.25      856.834     55.02745     126.1523         8     1.266     0.471   7.09  25
        26    439.1219   1022.5402 307.7230773  +6.2659838     1067.842     1665.543     1664.995     78.37887     139.6267     252.6185      1.615     3.93     856.7938     55.02745     140.6758        16     1.219     0.884  21.28  24
        27    240.5333   1023.0693 307.8055117  +6.2591506     1216.789     1631.997     2029.773     74.70774     132.7975     244.4706      1.453     3.66     854.2693     55.02745     182.3207        13     1.104     0.809  22.65  24
        28    793.7925    995.5421 307.5767125  +6.2889109     504.4247     1024.217     891.8871     77.63357     156.0142     311.9663      1.863     3.64     854.4131     55.02745     99.03058         5     1.111     0.412 -15.71   0
        29    915.9861    985.4994 307.5263077  +6.2971064     38081.33     68014.13      72111.1     78.13123       155.89     311.9353      1.907     4.27     852.9568     55.02745     4130.833        70     1.774     1.332  62.54   0
        30    223.1775    984.0963 307.8140188  +6.2746604     1701.037     2626.395     2710.641     78.25514     155.9521     311.9974      1.548     3.92     852.8923     55.02745     238.8419        20     1.272     1.015  61.71   0
        31    110.8461    983.1172 307.8606908  +6.2713165     687.9983     863.9091      458.496     78.25514     156.1384     312.1837      1.335     5.55     851.4919     55.02745     93.76959         9     1.342     0.646  39.40   0
        32    622.3323    981.8927 307.6483598  +6.2888551     823.6677     1209.655     1065.676     78.13123     156.2625     312.2147      1.575     4.94     856.6722     55.02745     131.3242         9     1.202     0.575  53.03   0
        33    813.8383    979.3596 307.5689261  +6.2962561     2105.372     3532.631     3678.469     78.00711     156.2004     312.0595      1.833     4.46     853.8189     55.02745     242.2354        23     1.495     0.998  62.40   0
        34    762.0903    977.2403 307.5904837  +6.2954149     6464.253     10447.31     11281.36     78.25514     156.1384     312.2147      1.752     3.76     854.8563     55.02745     806.3394        36     1.557     1.147  71.87   0
        35    549.0021    976.9718 307.6789716  +6.2884498     960.8537     1505.368     1234.861     77.75829       155.89     311.9974      1.585     4.18     857.0553     55.02745     167.3925        10     1.152     0.674  58.51   0
        36    231.3969    976.4165 307.8108626  +6.2781048     1529.689     2467.767     2665.406      77.8828     155.7656     312.0284      1.878     3.71     853.0645     55.02745     221.5899        17     1.228     0.890  58.28   0
        37    195.5249    975.8101 307.8257768  +6.2771587      922.325     1586.515      1151.53      77.8828     155.7656     311.9974      1.819     5.69     852.5252     55.02745     124.7508        16     1.410     0.946  49.51   0
        38     56.5809    974.7970 307.8834993  +6.2729390     2791.646     4372.973     4143.706      77.8828     155.7034     311.9663      1.666     3.63     850.8134     55.02745     354.3716        25     1.353     1.073  51.89   0
        39    950.3763    972.1649 307.5124698  +6.3037501     5829.784     10654.37        11428     77.75829       155.89     311.9663      1.943     4.23     851.6864     55.02745     726.8259        41     1.698     1.246  64.98   0
        40    206.5111    968.8879 307.8214465  +6.2803827     689.3155     1200.832     723.1481     78.00711     156.6341     312.2768      1.663     5.03     852.5677     55.02745     140.0657        11     1.334     0.842 -87.89   0
        41    632.4697    966.6624 307.6446570  +6.2954792     666.3736      1039.79     1162.944     78.25515     156.1384     312.2457      1.717     5.11     856.3136     55.02745     105.1359         7     1.126     0.655  42.43   0
        42    924.1083    963.8595 307.5236526  +6.3063090     1628.285     2958.763     3391.284     78.13123     156.0763     312.3388      1.880     4.68     852.2045     55.02745     206.2127        24     1.454     1.099  63.67   0
        43    644.8370    960.0385 307.6397420  +6.2986245     4727.933     7287.389     7291.748     78.00711     156.0142     312.0595      1.610     3.79     856.0508     55.02745     595.3846        25     1.438     0.960  61.19   0
        44    256.9452    960.3802 307.8007902  +6.2855765     4640.731     7214.961     7638.207     77.75829     156.1384     311.9974      1.660     3.45     853.6268     55.02745      628.325        30     1.464     1.041  62.61   0
        45    783.5076    960.3079 307.5821529  +6.3031154     1172.277     1878.233     2133.637     78.25515     156.6341     312.1837      1.905     6.74     853.9229     55.02745     178.7424        16     1.624     0.852  35.23   0
        46     25.7639    958.0580 307.8968541  +6.2788194     2075.382     3285.129     2965.049     78.25514     156.1384     312.1837      1.635     3.48     850.1708     55.02745     291.7709        21     1.280     0.964  70.01   0
        47    467.0111    958.4582 307.7136321  +6.2933659     1206.654     1703.479     1467.333     77.63357     156.0763     311.9042      1.523     4.21     856.3618     55.02745     181.1268        12     1.171     0.783  45.45   0
        48    876.5348    956.5031 307.5436509  +6.3077699     832.8079     1254.981     1035.938     78.25515     156.2004     312.2147      1.666     6.12     852.8446     55.02745     108.5957        12     1.141     0.924  17.76   0
        49    948.6597    953.7424 307.5137933  +6.3112986     697.7517     1171.269     1664.119     78.37887     156.0763     312.2147      1.853     5.84     851.3222     55.02745     94.36176         8     1.195     0.804  10.96   0
        50    293.2937    953.7998 307.7859176  +6.2895046     841.0563      1258.11     1111.045     77.75829     155.7656      311.842      1.522     4.63       854.35     55.02745     131.9445         8     0.961     0.633 -76.49   0
        51   1000.9097    951.7107 307.4921642  +6.3138669     751.2423     1436.434     1073.062     78.25515     156.6341     312.2768      2.030     6.98     850.0629     55.02745     102.5073        11     1.519     0.898 -81.09   0
        52    569.4459    952.4955 307.6712974  +6.2992336      1726.95     2416.984     2186.898     78.25515     156.0763     312.3388      1.525     3.56     856.7278     55.02745     237.6318        16     1.149     0.902  47.20   0
        53    288.6492    946.9441 307.7880748  +6.2921799     1502.069     2296.871      2360.43     78.25514     156.1384     312.2457      1.704     4.69     854.0063     55.02745     230.4832        17     1.446     0.838  67.97   0
        54     58.6422    950.1238 307.8834686  +6.2831931     780.5151     1464.763     2026.051     78.13123     156.1384     312.2147      1.889     3.44     850.3517     55.02745      113.134         7     0.742     0.661 -73.72   0
        55    608.7474    948.7711 307.6551022  +6.3020771       1272.3     1945.556     1573.178     78.00711     156.2625     312.0905      1.502     4.61     856.2667     55.02745     171.4684        13     1.250     0.715  51.01   0
        56    755.5679    942.9752 307.5943300  +6.3093440     893.9285     1237.747     1437.414     77.75829     155.9521     311.9974      1.492     4.88     854.1602     55.02745       123.88         9     0.990     0.681  38.12   0
        57    893.0081    939.1392 307.5373864  +6.3154840     6374.685     10844.36     11503.99     77.63357     155.9521     311.9663      1.828     4.03     852.0846     55.02745     774.3796        38     1.587     1.200  63.83   0
        58    428.8240    936.5599 307.7302178  +6.3011352     2165.399     3040.906     3401.576      77.8828       155.89     311.9663      1.528     3.91     855.6632     55.02745     287.4288        15     1.233     0.788  67.85   0
        59    330.4871    934.9225 307.7711041  +6.2985367     10059.97     14717.86     15579.23     78.25514     156.4484     312.2768      1.566     3.48     854.1093     55.02745     1350.834        33     1.483     0.956  61.16   0
        60    250.5037    933.8919 307.8043489  +6.2962965     7401.867     11319.87     11554.16     78.25514     156.6341     312.1526      1.647     3.58     852.8566     55.02745     994.4812        34     1.512     1.028  59.08   0
        61    578.6079    928.0370 307.6683069  +6.3096351     1103.724     1643.589     1628.802     77.50866       155.89     311.9353      1.665     4.49     856.3486     55.02745     161.8701        15     1.311     0.859  69.34   0
        62    763.0151    927.4941 307.5917517  +6.3159820      651.292      1153.06     1184.112     78.00711     155.9521     311.9974      2.251     5.83     853.6464     55.02745     90.71136         7     1.236     0.774  31.31   0
        63    909.1430    924.3693 307.5311763  +6.3221159     902.6075     1429.639      2122.45     78.13123     156.1384     312.0905      1.761     4.51     851.4038     55.02745     127.5188        11     1.147     0.877  62.14   0
        64    864.7018    923.1852 307.5496698  +6.3211324     735.1808     1380.509     1104.167     78.13123       155.89     311.9663      1.967     3.42     852.3506     55.02745      131.827         7     1.062     0.663  25.72   0
        65    141.2899    924.3369 307.8500151  +6.2965977      650.832     787.1166     862.5058     78.25515     156.2625     312.2457      1.434     4.29     851.0173     55.02745     83.77509         7     1.128     0.465  29.41   0
        66    408.1946    923.3398 307.7392243  +6.3059060     484.7808     742.1333     620.9676     77.75829     156.0142     311.9663      1.355     4.11      855.067     55.02745     108.1861         5     1.049     0.459   7.11   0
        67    976.5442    919.7094 307.5033423  +6.3262716     701.3806     1031.044     1417.111     78.13123     156.0142     312.3078      1.278     3.21     850.1392     55.02745     124.0358         5     0.950     0.400  14.38   0
        68    744.9750    917.2344 307.5995836  +6.3196190     1594.681     2559.771      3096.01     77.75829     155.9521     311.9663      1.818     4.57     853.8461     55.02745     227.9317        21     1.454     0.988  66.24   0
        69    569.2432    918.7172 307.6725056  +6.3131713     465.8037     732.7689     713.9951     78.25515     156.1384     312.1526      1.342     3.44     856.1765     55.02745     90.14899         5     1.177     0.291  34.92   0
        70    837.9792    917.5466 307.5609534  +6.3225745     616.1968     849.3378     888.4106     77.75829     156.1384     311.9974      1.701     4.37     852.5135     55.02745     96.72064         6     0.968     0.562 -89.13   0
        71    976.1871    912.7197 307.5037223  +6.3291453     1192.344     2213.482     2459.182      77.8828       155.89     312.0284      2.059     6.27     849.9484     55.02745     153.7049        20     1.414     1.048  47.86   0
        72    609.2668    913.7039 307.6560529  +6.3165709      773.964     1176.992     1037.476     78.25515     156.2004     312.2147      1.619     5.71     855.5297     55.02745     110.2277         9     1.346     0.741  64.66   0
        73    530.0640    913.2161 307.6889574  +6.3141398     1268.938     1700.746     1924.603     77.75829     156.0142     312.0595      1.290     3.64     856.0878     55.02745     194.7596        13     1.230     0.686  55.26   0
        74    663.6190    910.7239 307.6335827  +6.3196064     2554.529     3714.323      3672.52     77.75829       155.89     312.1216      1.614     3.84      854.937     55.02745     339.7242        19     1.340     0.826  60.77   0
        75     60.1445    907.1183 307.8842832  +6.3009962     3155.543     4960.562     5256.185     78.25514     156.1384     312.2147      1.685     3.88     849.2346     55.02745     410.7149        28     1.576     1.010  61.35   0
        76    824.2919    906.8167 307.5669932  +6.3265503     844.8374     1476.534     1764.985     78.00711     155.9521     312.0905      1.925     5.74     852.5245     55.02745     126.7319        12     1.279     0.725  59.43   0
        77     77.6526    906.3369 307.8770398  +6.3019035     2008.056     2978.696     2915.934     78.25515     156.0763     312.1526      1.636     4.14     849.4291     55.02745     273.7966        20     1.377     0.918  61.50   0
        78    203.7901    905.9361 307.8246788  +6.3062791     2358.054     3244.537     3277.338     77.75829     155.9521     311.9974      1.432     3.51     851.6435     55.02745     295.1857        17     1.248     0.796  57.45   0
        79    942.0999    905.7463 307.5181084  +6.3308955     789.4636     1299.703     962.5359     78.13123     156.1384     312.4008      1.746     3.01     850.4612     55.02745     150.4807         9     0.838     0.811  49.65   0
        80    237.6903    902.7834 307.8107079  +6.3087112     1018.822     1464.467     1217.937     78.00711       155.89     312.0905      1.506     4.16     852.1176     55.02745     141.4425        10     1.063     0.704  37.67   0
        81    658.1854    899.8247 307.6362013  +6.3239254     7082.918     10710.08      10749.1     78.00711     155.9521     312.1216      1.564     3.44     854.7783     55.02745     983.6745        30     1.457     0.969  65.70   0
        82    342.4466    902.1007 307.7672330  +6.3124845     865.5767     1352.987     1913.544     78.25514     156.0142     312.4008      1.902     4.59     853.6345     55.02745     122.1122         8     0.919     0.652  39.09   0
        83    795.7885    900.6458 307.5790342  +6.3281528     637.5467     889.1417      918.264     77.75829     155.9521     311.9042      1.449     4.05     852.7913     55.02745     110.7971         7     1.006     0.550  69.34   0
        84     17.8947    898.5419 307.9021127  +6.3031250     1095.691     1684.728     1548.562     78.13123     156.1384     312.3078      1.538     3.48     848.4416     55.02745     175.5328        11     1.094     0.654  50.65   0
        85    895.9859    896.1109 307.5375771  +6.3333460      2680.09     4312.491     4074.985     78.00711     155.9521     312.0595      1.706     4.05     851.2982     55.02745     307.7537        24     1.428     1.009  71.95   0
        86     31.3525    896.6644 307.8965877  +6.3043497     1102.734     1963.078     2258.525     78.13123     156.0142     312.2457      1.957     3.84     848.5394     55.02745      148.341        13     1.034     0.940 -30.75   0
        87    770.2164    896.4456 307.5897926  +6.3290386     522.1116     772.6646     604.5814     77.75829     156.0142     311.9663      1.632     4.42     853.1479     55.02745      78.6098         5     0.936     0.594 -46.48   0
        88    341.2216    893.1547 307.7680400  +6.3161367     17449.08     25490.69     26626.68      77.8828     156.1384     312.0284      1.551     3.45     853.4722     55.02745     2490.253        41     1.504     0.998  64.98   0
        89     75.7927    894.3971 307.8782113  +6.3067702     1587.815     2208.153     2425.002     77.63357     155.8278     312.0284      1.490     3.46      849.005     55.02745     256.2201        14     1.120     0.824  68.56   0
        90    212.2022    892.7202 307.8216272  +6.3120154     1410.101     1885.381     1599.564     77.63357     155.6411     311.9663      1.413     3.41     851.4899     55.02745     201.8273        14     1.084     0.839  52.19   0
        91    392.4362    891.9940 307.7468125  +6.3183215     674.9669     894.5247     606.8011     77.38354       155.89     311.9663      1.564     5.28     853.8663     55.02745     94.04572         8     1.115     0.707  -0.04   0
        92    419.0784    884.1825 307.7360100  +6.3224332     1164.035     1621.192     1350.696      77.8828       155.89     312.1216      1.391     3.79     853.8068     55.02745     166.4042        12     1.079     0.773  57.60   0
        93    104.4590    883.9637 307.8666574  +6.3120345     1895.194     2627.227     1853.518     78.25514     156.1384     312.1837      1.515     3.43     849.1307     55.02745     259.4782        18     1.161     0.945  62.93   0
        94    672.4966    880.1060 307.6309142  +6.3325409     933.9691     1423.778     2248.913     78.25514     156.6959     312.0905      2.155     5.19     854.3289     55.02745     131.0434        12     1.125     0.930  81.49   0
        95    499.6530    880.3630 307.7026791  +6.3266909     738.3826     1194.836      1485.16     78.13123     156.1384     312.2147      1.828     5.64     854.5542     55.02745     91.95874        11     1.325     0.676  60.21   0
        96    886.2921    877.6611 307.5422146  +6.3406414     1787.922     2858.979      3002.59     78.13123     156.1384     312.2768      1.770     4.66     851.2503     55.02745     227.4541        21     1.497     0.937  48.90   0
        97    857.0673    877.3455 307.5543611  +6.3398033     2075.907     3285.128     3167.916     78.25515     156.0763     312.0905      1.671     4.31       851.77     55.02745     242.5211        22     1.471     0.930  56.27   0
        98    820.4121    876.6569 307.5696055  +6.3388725      3049.31     4835.215     5456.238     77.63358     156.0763     311.8731      1.706     4.18     852.2727     55.02745     395.5393        25     1.503     0.964  69.82   0
        99     87.9902    877.5292 307.8737108  +6.3141408     2661.731     3816.841     4242.643     77.75829     155.7656     312.0284      1.573     3.60     848.6218     55.02745     339.3287        23     1.319     0.967  62.33   0
       100    335.7095    875.3293 307.7709234  +6.3233117      792.129     957.5032     1332.386     78.13123     156.3864     312.1837      1.551     5.78     853.1536     55.02745     112.1731        11     1.199     0.785  63.74   0
       101    556.2974    868.2673 307.6795603  +6.3335678     358962.7     516461.2     536710.8     78.25515     156.2004     312.2147      1.550     3.52     854.4171     55.02745     49233.05       172     1.640     1.205  62.88   4
       102    450.6842    874.5510 307.7232069  +6.3274611     692.4735      1193.97     1293.685     78.25515     156.1384     312.2457      1.828     4.30     853.8589     55.02745     110.4894         7     0.974     0.541  58.17   0
       103    400.5401    870.8952 307.7441509  +6.3273012     8303.146     11832.45      12201.4     78.13123     156.1384     312.2768      1.518     3.40     853.2584     55.02745     1140.626        31     1.425     0.930  60.10   0
       104    643.8799    871.0652 307.6430980  +6.3353229     1214.148     1906.518     1865.862      78.5024     156.2004     312.1526      1.538     3.83     854.2518     55.02745     184.4138        13     1.207     0.745  54.10   0
       105    343.7130    869.3470 307.7677996  +6.3260479     13752.12     19664.03      20460.3     78.25515     156.0142     312.3388      1.550     3.36     853.0675     55.02745     1982.182        38     1.467     0.974  61.23   0
       106    894.3696    864.2111 307.5393064  +6.3464616     4851.123     7927.099     9213.166     77.75829       155.89     312.0284      1.827     4.03     850.8973     55.02745     641.9006        38     1.718     1.311  23.50   0
       107    662.2040    865.5275 307.6356729  +6.3382175     3774.164     5926.089     5812.101     77.75829     155.7034     312.0284      1.651     3.54     854.1075     55.02745     512.1108        28     1.448     1.030  59.13   0
       108    734.3344    862.1950 307.6058307  +6.3419876     758.2531     1087.817     912.3737     77.75829     155.8278     311.9663      1.473     5.93     853.1614     55.02745     107.7148        10     1.316     0.752  30.66   0
       109    636.9427    859.4931 307.6463636  +6.3398697     3535.497     5299.693     5547.362     78.13123     156.1384     312.3078      1.591     3.60     854.0228     55.02745     512.9414        25     1.551     0.900  65.07   0
       110    825.4089    858.6163 307.5681293  +6.3464858     1675.385     2305.685     2160.281     78.00711       155.89     312.0284      1.552     4.07     851.9908     55.02745      215.269        16     1.212     0.845  57.23   0
       111    627.3276    858.5543 307.6503876  +6.3399379     941.7943     1414.585     1964.337     78.13123     156.2004     312.1837      1.683     4.63     854.0399     55.02745     138.4841        10     1.278     0.624  62.53   0
       112    179.5624    859.3418 307.8362953  +6.3247055     585.9955     677.6322     525.1437     78.25515     156.2004     312.2147      1.087     3.41     850.4131     55.02745     103.2151         5     0.730     0.460 -70.90   0
       113    952.5256    857.2166 307.5153878  +6.3512753     696.1031      1179.82     993.6821     77.75829       155.89     312.0595      1.696     3.91     849.2969     55.02745      111.833         6     1.009     0.470  32.23   0
       114    629.8501    854.1373 307.6494870  +6.3418451     2310.406      3611.95     4092.032     78.25514     156.0763     312.2457      1.719     3.34     853.9417     55.02745     393.1577        18     1.235     0.874  57.39   0
       115    913.7644    851.9396 307.5316593  +6.3521701     3779.874     5707.307     6079.402     78.25514     156.1384     312.1526      1.706     7.60     850.4482     55.02745     980.7266        27     1.358     1.190  73.72   0
       116    323.5717    852.9237 307.7767110  +6.3321566     1278.565     1691.831     1407.694     78.13123     156.1384     312.1837      1.549     5.80      852.587     55.02745     164.3756        15     1.476     0.773  54.36   0
       117    371.6189    848.2025 307.7569169  +6.3357061     2917.854     3980.581     4221.059      77.8828     155.7034     311.9353      1.451     3.14     852.4915     55.02745      464.855        21     1.271     0.897  69.54   0
       118    852.6376    837.2965 307.5575296  +6.3561898     1179.714      1878.33     1966.735     78.25515     156.0142     312.3388      1.780     5.10     851.2403     55.02745      131.183        17     1.272     1.006  57.88   0
       119    507.8429    837.8959 307.7006925  +6.3444946     3381.337     4657.533     5119.582     78.25514     156.0763     312.3078      1.477     3.77     853.2569     55.02745     532.4938        21     1.397     0.795  57.68   0
       120    573.2534    836.1885 307.6735868  +6.3473742     662.9573     876.6144     466.1568     77.63357     156.0763     311.9042      1.255     3.45     853.4914     55.02745     130.8082         6     1.010     0.496  62.77   0
       121    554.6651    834.0838 307.6813759  +6.3476252     6623.971     9395.544      10963.6     78.37887     156.3864     312.2457      1.509     3.44     853.3589     55.02745     949.2888        26     1.406     0.865  61.47   0
       122    266.2843    834.2772 307.8011217  +6.3379449     772.4286     978.5172     955.4479     78.37887     156.4484     312.2768      1.410     4.13     851.2701     55.02745     119.1052         8     1.182     0.630  61.48   0
       123    561.4771    833.1990 307.6785766  +6.3482169     1330.085     2130.253     2128.053     77.50866     155.5789     311.9663      1.758     4.26      853.356     55.02745     177.0704        15     1.282     0.833  77.87   0
       124    472.4584    832.8357 307.7155549  +6.3454065     1745.479     2379.761     2345.233     78.25515     156.1384     312.1837      1.507     3.64     852.8866     55.02745     238.7196        14     1.200     0.717  59.08   0
       125    114.1209    832.4677 307.8643672  +6.3336151     1612.717     2298.571      2543.37     78.37887     156.3244     312.1837      1.497     4.02     848.0624     55.02745      236.891        15     1.304     0.766  81.71   0
       126    890.2514    831.7520 307.5420934  +6.3597252      1355.28      2014.85     1990.909     78.37887     156.0142     312.1837      1.652     4.21      850.663     55.02745     178.6802        17     1.262     0.924  64.30   0
       127    690.5956    831.1659 307.6250252  +6.3533455     664.3055      971.472     861.1185     77.50866     156.0142     311.9663      1.242     4.12     853.2669     55.02745     149.3887         7     1.022     0.548  64.87   0
       128    366.3891    829.9806 307.7596963  +6.3430543     866.1587     1271.975     875.1183      77.8828     155.8278     312.0595      1.482     4.45     851.8889     55.02745      137.952         8     1.354     0.416  66.88   0
       129    525.3694    827.9473 307.6937457  +6.3491844     21155.11     30256.36     30725.59     78.13123     156.2004     312.1216      1.507     3.35     853.0333     55.02745     3071.413        36     1.451     0.932  61.01   0
       130    939.1042    826.1828 307.5219903  +6.3636425     3492.385     5760.885     5732.046     78.13123     155.9521     312.0284      1.725     3.97     849.7053     55.02745     462.0043        30     1.565     1.093  60.93   0
       131    693.3369    820.6497 307.6242364  +6.3577779      640.027     813.1409     548.5737     78.25515     156.0763     312.2457      1.328     3.62     853.0876     55.02745     97.40387         6     0.857     0.502  44.46   0
       132     35.6190    818.8470 307.8974198  +6.3366157     1525.691     2347.672     2861.621     77.75829     156.1384     311.9974      1.713     4.35     846.8731     55.02745     237.4314        13     1.097     0.872  56.86   0
       133    317.9882    816.8138 307.7802343  +6.3468773     3577.335     5058.069     4767.111     78.13123     155.8278     312.1216      1.457     3.15     851.3585     55.02745     628.3694        21     1.338     0.810  55.42   0
       134    783.5500    812.4004 307.5870468  +6.3641769     57728.34     84967.23     88459.98     77.50866     155.7656     311.7488      1.595     3.55     851.8898     55.02745     7946.455        66     1.569     1.081  63.59   0
       135     17.8445    815.0844 307.9049264  +6.3375750     2189.787     3217.912     2869.865     78.25514     156.0763     312.1837      1.546     3.50     846.6729     55.02745     318.6793        19     1.294     0.868  58.19   0
       136    722.3054    814.4203 307.6124134  +6.3613111     713.5537     826.2698     1001.633     78.13123     155.9521     312.0284      1.274     5.04     852.7188     55.02745     128.4102         9     1.080     0.680  62.47   0
       137    426.7992    811.2782 307.7352338  +6.3527864     907.0236     1353.344     1258.128     77.50866     155.5789     311.9663      1.541     3.12     851.8605     55.02745     161.8837        10     1.028     0.640  54.32   0
       138    240.7206    810.3181 307.8125370  +6.3469831     5683.064     8882.604     11240.05     78.37887     156.3864     312.3388      1.850     3.68     849.7702     55.02745     884.5933        36     1.606     1.115  66.92   0
       139    908.7908    807.5903 307.5351957  +6.3703140     8597.889     13068.37     13311.53      77.8828     155.9521     312.0905      1.641     3.62     850.2798     55.02745     1150.215        36     1.512     1.045  60.73   0
       140    711.7900    806.9946 307.6170271  +6.3640275     22705.68     33461.43     35632.58     77.75829       155.89     312.0595      1.550     3.50     852.7114     55.02745     3238.636        46     1.606     0.986  61.90   3
       141    705.4850    803.4992 307.6197616  +6.3652613     95683.14     135846.6     140948.5     78.25515     156.6341     312.2457      1.549     3.41     852.7104     55.02745     13621.06        73     1.539     1.058  62.99   3
       142    350.2984    804.5721 307.7672256  +6.3530074     23113.11     32220.23      33350.2     78.37887       155.89     312.1526      1.518     3.31      850.949     55.02745     3335.926        48     1.467     0.994  63.26   0
       143    399.3916    804.7997 307.7468313  +6.3545484     1411.658     1936.873     2172.128     77.63358     155.8278     311.9974      1.427     4.23     851.4296     55.02745     205.9033        15     1.404     0.655  49.29   0
       144    639.1511    804.1809 307.6472862  +6.3627772     818.7352     990.2603     1399.289     77.75829     156.2004     311.9974      1.339     2.84     853.0031     55.02745     162.7228         7     0.957     0.598  59.39   0
       145    412.2010    802.3577 307.7415933  +6.3559830     24127.18     34028.09     35669.32     77.63358     155.8278      311.811      1.485     3.38     851.4897     55.02745     3435.897        41     1.456     0.945  58.91   0
       146    240.2595    788.8763 307.8134445  +6.3558192     756497.9      1590123      1733158     78.37887     156.2004     312.1526      2.176     7.48     849.1157     55.02745        64047       595     2.515     1.991  74.40   4
       147    949.3723    800.7507 307.5185694  +6.3744816     2028.964     3081.716     2889.483      77.8828     156.2004     312.1216      1.647     4.13     849.1076     55.02745     241.1404        20     1.346     0.926  54.32   0
       148    905.7626    798.9998 307.5367382  +6.3737601     6579.236      10497.6     10806.05     77.25822     155.9521     311.9974      1.652     3.68     850.2102     55.02745     903.7721        37     1.495     1.115  59.03   0
       149    646.2704    798.1102 307.6445315  +6.3655198     6938.578     10062.78      10517.2     78.13123     156.3864     312.1837      1.498     3.51     852.8763     55.02745     998.8686        30     1.486     0.909  58.57   0
       150    878.7130    799.5769 307.5479526  +6.3726257     847.9955     1263.242     830.4639     78.25515     155.9521     312.0905      1.487     4.20     850.4174     55.02745     132.8202         9     1.087     0.695  58.32   0
       151    136.0217    799.1771 307.8563859  +6.3480889     629.7706     925.9338     805.9614     78.00711     155.9521     312.1526      1.550     5.06     847.6301     55.02745      88.3244         8     1.084     0.669 -55.41   0
       152    386.5424    797.5841 307.7524077  +6.3570992     523.4869     641.1721     492.5335     77.63358     156.0763     311.9353      1.211     3.77     851.0396     55.02745     85.10522         6     0.994     0.410  71.79   0
       153    435.0350    796.2678 307.7323141  +6.3592571      1892.15     2452.193     2917.319     78.13123     156.2004     312.2768      1.386     3.44     851.4396     55.02745     267.8776        14     1.206     0.711  65.52   0
       154    160.1750    795.9613 307.8464636  +6.3502226     957.1237     1192.846     1294.336      77.8828     155.9521     311.9974      1.374     2.58     847.9265     55.02745     179.5619         8     0.814     0.646  47.11   0
       155    223.1375    792.3789 307.8204377  +6.3538022     539.7393     1240.602      3404.97      77.8828     156.1384     312.0595      3.491     4.53       848.79     55.02745     87.41644         5     1.149     0.507 -57.19   1
       156    874.3547    790.3247 307.5500695  +6.3763008     727.3232     1164.439     1037.859     78.13123     156.2004     312.2147      1.831     3.93     850.3488     55.02745     120.7749         8     0.955     0.648  85.98   0
       157    599.3157    790.1544 307.6642956  +6.3672443     1104.556     1576.019     1381.194     78.25515     156.1384     312.2147      1.597     4.70     852.6395     55.02745     183.7418        13     1.268     0.807  67.31   0
       158    150.4453    789.0939 307.8507335  +6.3527328     945.6594     1342.582     1352.663     78.13123     156.0763     312.3078      1.517     4.58     847.5353     55.02745     146.3221        10     1.279     0.599  81.37   0
       159    125.7500    789.0323 307.8609904  +6.3519339     1228.802     1860.508     1588.773     78.13123     156.1384     312.1216      1.558     4.87     847.1968     55.02745     189.4926        13     1.356     0.720  65.45   0
       160    681.4016    788.1984 307.6302717  +6.3707783     2507.844     3828.307     4140.706     77.63357     155.7034     311.8731      1.579     4.06     852.5662     55.02745     373.5192        18     1.378     0.782  64.18   0
       161    415.1438    785.0344 307.7409488  +6.3632323     58850.37     82806.59     85818.95     78.13123     156.1384     312.1837      1.467     3.36     850.6275     55.02745     9192.808        64     1.465     1.047  61.02   0
       162    532.8995    784.0222 307.6920812  +6.3675680     7754.807     10832.04     10948.08     78.25515       155.89     311.9663      1.431     3.49     851.9358     55.02745      1239.38        26     1.380     0.844  62.77   0
       163    778.0507    780.5031 307.5903900  +6.3771625     12154.04      18053.7     18419.25     78.13123     156.0763     312.3698      1.573     3.62     851.4026     55.02745     1740.791        36     1.486     0.994  60.64   0
       164    449.6176    782.6077 307.7267135  +6.3653815     4956.307     7017.109     7412.113      77.8828       155.89     312.0284      1.496     3.36     851.0262     55.02745     825.0276        25     1.356     0.872  57.43   0
       165      7.6141    776.9142 307.9104520  +6.3529898     1190.757     1644.351     1432.346      77.8828       155.89      308.782      1.547     4.00     846.5365     55.02745     179.9059        13     1.183     0.776  56.81  16
       166    446.2163    776.1237 307.7283421  +6.3679451     2456.406     3469.232     3609.768     77.75829       155.89     312.0595      1.438     3.27     850.6483     55.02745     395.9733        15     1.176     0.744  66.73   1
       167    799.6219    774.4397 307.5816330  +6.3803811     1223.399     1614.849     1915.678      77.8828     155.9521     311.9974      1.504     4.29     850.9463     55.02745     198.5795        14     1.270     0.746  59.08   0
       168    143.8934    773.0956 307.8539889  +6.3591184     3295.354     4915.621      5596.68     78.25515     156.6959     312.1216      1.549     3.50     846.9483     55.02745     499.4824        20     1.321     0.831  57.21   0
       169    128.2055    763.8799 307.8608116  +6.3623990     1934.355     2937.596     3091.552      77.8828     155.7034     311.9663      1.600     3.90     846.5485     55.02745     268.9259        15     1.300     0.732  55.27   2
       170    135.8391    772.8198 307.8573428  +6.3589634     12649.83     18287.22     19787.68      77.8828     155.9521     311.9353      1.499     3.32     846.8702     55.02745      1979.58        38     1.453     1.002  55.56   2
       171    128.0607    770.2305 307.8606594  +6.3597725     3234.414     4878.325     5463.535     78.00711     156.1384     312.1526      1.634     4.05     846.7109     55.02745     461.1879        24     1.733     0.822  42.96   3
       172    966.9755    773.3936 307.5121658  +6.3863583     534.0793     1042.058     1184.214     77.75829     155.9521     312.0284      2.067     4.02     847.9772     55.02745     94.17096         5     1.078     0.428 -64.49   0
       173    923.6150    769.0027 307.5303192  +6.3867351     6555.173     10003.02     10532.28      77.8828     155.7656     312.0284      1.632     3.59     849.1221     55.02745     856.1808        33     1.501     1.028  61.04   0
       174    972.8485    768.9488 307.5098741  +6.3883877     1491.642     2233.895     2836.222     78.37887     156.0142     312.1837      1.676     4.89      847.775     55.02745     178.8005        20     1.495     0.961  61.21   0
       175    679.1545    766.6979 307.6319197  +6.3795796     1922.199     2744.671     2897.385     78.25515     156.0142     312.3698      1.564     4.02     852.1034     55.02745     237.3791        17     1.329     0.794  59.65   0
       176    566.0103    766.0220 307.6789300  +6.3760997     2574.959     3550.559     3166.604      77.8828       155.89     312.0595      1.418     3.48      851.952     55.02745     355.3845        19     1.331     0.763  55.09   0
       177    413.8862    765.3984 307.7421256  +6.3712965     1337.243     2028.247     2060.728     77.50866     155.7656     311.9042      1.533     4.12     849.5349     55.02745     219.8254        13     1.334     0.630  75.16   0
       178    697.3063    764.2631 307.6244624  +6.3811874     530.6271     649.2158     245.2227     78.25515     156.2004     312.2457      1.329     3.85     851.9008     55.02745     82.53528         5     0.941     0.452  44.22   0
       179    917.7839    761.0394 307.5330050  +6.3898295     3028.158     4639.554     4708.081      77.8828     155.9521     311.9663      1.608     3.77     849.0088     55.02745     425.7573        23     1.395     0.939  53.13   0
       180    947.3556    760.4789 307.5207423  +6.3910402     3057.633     4434.511      4825.27     78.25515     156.1384     312.1837      1.658     3.88     848.3153     55.02745     355.9955        23     1.340     0.986  53.17   0
       181    978.0047    760.1765 307.5080235  +6.3921799     1832.673     2882.211     2705.729      77.8828       155.89     312.0284      1.637     4.37     847.6287     55.02745     217.7377        17     1.361     0.816  49.98   0
       182    817.5574    758.9044 307.5747003  +6.3873893     1139.061     1683.637     1419.066     78.25514     156.0763     312.3078      1.532     5.24     850.5276     55.02745     173.9525        13     1.322     0.760  77.88   0
       183    670.1057    760.2809 307.6358910  +6.3819282     1545.349     2145.139     2293.052     78.00711     156.3864     312.2768      1.570     3.84     851.9944     55.02745     229.5767        14     1.238     0.741  55.68   0
       184    242.6158    755.9370 307.8135660  +6.3694955      2045.71     3385.119     5193.301     77.75829     156.0763     312.0284      2.453     4.06     848.2343     55.02745     354.7982        20     1.377     1.060  75.36   0
       185    892.8370    756.4338 307.5435183  +6.3909043     671.2096     1113.961     898.9313     78.00711       155.89     311.9663      1.591     4.65     849.5088     55.02745     149.8856         8     1.085     0.565  50.28   0
       186    262.9380    751.1887 307.8052853  +6.3721333     748.1035      912.258     1100.961     77.75829     155.9521     311.9663      1.284     3.74     848.3598     55.02745     160.1739         8     1.128     0.564  60.12   0
       187    935.6097    750.5875 307.5259484  +6.3947348     1249.817     1751.346     1717.009     78.00711     155.9521     312.1216      1.508     3.97     848.2951     55.02745     156.5991        13     1.046     0.832  46.11   0
       188    158.0893    750.8400 307.8488378  +6.3687796     927.3615     1147.421     824.1264     78.25514     156.1384     312.2147      1.249     2.88     846.3107     55.02745     161.3187        10     0.889     0.741 -87.99   0
       189    909.4921    749.3018 307.5368380  +6.3944004     1342.537     2078.335     1836.155     78.25515     156.6341     312.1216      1.684     3.94     848.9169     55.02745     164.3664        14     1.028     0.966 -74.66   0
       190    962.2642    748.2208 307.5149571  +6.3965944     2461.511     3813.848     4082.079      77.8828     156.1384     312.0595      1.664     3.64     847.8451     55.02745     323.9628        20     1.239     0.979  66.40   0
       191    681.5638    747.2451 307.6315659  +6.3876902     1027.043     1579.487     2380.141     78.00711     156.0763     312.1216      1.683     4.53      851.626     55.02745     148.6565        12     1.308     0.688  59.35   0
       192   1003.9725    741.5419 307.4978564  +6.4007323     1589.317     2451.632     2103.754      77.8828     156.2004     312.0905      1.588     5.12     847.3641     55.02745     185.1676        18     1.424     0.870  71.49   0
       193    402.4635    743.1984 307.7476094  +6.3800808     543.2581     655.4047     1004.635     77.63357       155.89     311.9663      1.312     3.10     848.3298     55.02745     108.2248         5     0.732     0.464  71.24   0
       194    472.7063    742.6750 307.7184558  +6.3826348     512.7625     725.2596     874.2898     78.13123     156.3244     312.1526      1.261     2.88     849.8944     55.02745     103.4781         5     0.736     0.443  15.09   0
       195    805.0956    739.7870 307.5805105  +6.3948682     1109.399     1619.731     1541.751     78.00711       155.89     311.9974      1.633     5.82     850.2339     55.02745     179.3282        15     1.554     0.865  71.30   0
       196    630.1743    741.2166 307.6531085  +6.3884722     674.1475     1112.581     1261.033      77.8828     155.9521     312.1216      1.635     3.60      851.658     55.02745     132.1844         5     0.995     0.375  56.65   0
       197    891.5189    737.5759 307.5446915  +6.3986458     1555.011      2187.52     2354.862     78.00711       155.89     312.0905      1.503     3.34     849.2096     55.02745     218.6204        14     1.117     0.812  64.18   0
       198    866.0651    732.7278 307.5554236  +6.3998037     1093.417      1473.13     1842.693     78.25515     156.1384     312.2147      1.435     3.31     849.9463     55.02745     197.0972        11     1.159     0.643  69.47   0
       199    652.2932    732.7999 307.6442024  +6.3926815     567.8061     994.1544     622.9812     77.75829     155.7656      311.842      1.652     3.43     851.3608     55.02745     121.7338         5     1.116     0.304  54.66   0
       200    848.5804    728.9784 307.5628097  +6.4007721     1544.774     2274.983     2031.593     78.00711     156.0763     312.1216      1.499     3.57     849.8721     55.02745     244.6956        17     1.270     0.856  60.14   0
       201    111.5315    727.2193 307.8689616  +6.3769761     910.1481     1820.127      1773.13      77.8828     156.0142     312.1526      2.147     6.36      845.585     55.02745     125.7798        15     1.745     0.652  71.02   0
       202     47.4529    728.1221 307.8955415  +6.3744629     2760.664      3978.15     3949.679     78.37887     156.1384     312.1837      1.486     3.58     846.1251     55.02745     405.8159        17     1.302     0.782  56.84   0
       203    459.4957    726.3204 307.7244870  +6.3889467     612.6038     789.8235     841.7407     78.00711     156.3864     312.2457      1.447     4.28     848.7921     55.02745     99.38898         6     1.075     0.486  82.87   0
       204    565.2278    722.8361 307.6806926  +6.3939018     614.2463     1018.095     1131.774      77.8828       155.89     311.9974      1.855     3.98     850.7659     55.02745     113.5835         7     0.865     0.610  57.73   0
       205    660.1577    716.4330 307.6414806  +6.3996994     7044.421     9774.353     9961.896     78.00711     156.1384     312.0284      1.479     3.33     850.7317     55.02745     1048.754        28     1.397     0.853  63.05   0
       206    606.8956    715.8354 307.6636207  +6.3981767     1489.715     2312.409     2299.138     78.37887     156.0142     312.3078      1.609     3.82      850.499     55.02745     258.4257        12     1.322     0.591  61.94   0
       207    528.9581    716.5146 307.6959659  +6.3953055     638.9198     854.7366     611.3872     78.25514     156.0142     312.1837      1.180     3.86     850.0302     55.02745     113.5363         7     1.127     0.619  71.15   0
       208    517.7617    716.1503 307.7006280  +6.3950836      855.113     1155.399     1348.758     78.00711     156.1384     312.0905      1.553     4.35     849.7288     55.02745     140.4364         7     1.239     0.435  62.71   0
       209    123.2216    712.5817 307.8645964  +6.3834089     4133.057     5853.738     5574.809     78.00711     156.0142     312.1216      1.507     3.37     845.2444     55.02745     634.9319        24     1.384     0.848  60.03   0
       210    997.2441    711.4882 307.5016469  +6.4129167     2491.676     3879.511     4058.054     78.25515     156.0142     312.2147      1.653     4.18     847.0786     55.02745     308.6767        25     1.442     0.996  60.71   0
       211    633.9966    712.2908 307.6524833  +6.4005404     2481.471     3325.751     3717.153     77.75829     155.8278     311.9042      1.399     3.32     850.4355     55.02745     370.6465        18     1.238     0.835  58.28   0
       212    309.5015    712.5111 307.7872393  +6.3896522     808.4761     881.4628     879.2283     78.25515     156.5722     312.1837      1.206     3.69     846.8057     55.02745     157.0674         8     1.023     0.496  85.95   0
       213    245.3099    712.3771 307.8139019  +6.3875674     891.8564     1281.644     1890.772     78.25515     155.9521     312.0595      1.412     2.71     846.3349     55.02745     164.7721         7     0.877     0.518  58.28   0
       214    777.0905    708.5184 307.5931799  +6.4068479     22047.82     30836.32     32199.78     78.00711     156.3864     312.2457      1.501     3.47     849.7165     55.02745     3311.705        45     1.488     0.973  58.78   0
       215    459.3318    710.7186 307.7250750  +6.3953820     539.1846     726.7742     826.1082     78.37887     156.3864     312.2147      1.184     3.48      848.155     55.02745     94.26678         5     1.159     0.302  36.50   0
       216    907.1008    708.0356 307.5392000  +6.4113571     3929.889     5863.969     6197.696     78.25515     156.0142     312.3388      1.559     3.60     847.9279     55.02745     548.7518        26     1.437     0.962  68.67   0
       217    476.0603    708.9424 307.7181868  +6.3966719     1466.952     2006.738     2041.608     78.37887     156.0763     312.2147      1.434     4.20     848.4417     55.02745     267.8087        15     1.452     0.639  62.52   0
       218    322.1232    708.7522 307.7821230  +6.3916246     867.4977     1144.474     902.1329     78.13123     156.2004     312.1526      1.587     4.70     846.6737     55.02745     144.8926        10     1.248     0.698  58.30   0
       219    504.6954    708.6317 307.7063049  +6.3977528     1238.451      1607.22     1284.302     78.37887     155.9521     312.2457      1.453     3.57     849.0814     55.02745     170.9763        10     1.039     0.639  75.11   0
       220    278.3831    708.5558 307.8002946  +6.3902477     621.2488     807.3989     934.4639      77.8828     156.0142     311.9663      1.282     4.19     846.3793     55.02745     111.2038         8     1.104     0.519  40.12   0
       221    250.4976    702.3410 307.8120827  +6.3918835     6944.271     9705.084     10092.18     78.00711     156.0763     312.3078      1.474     3.14     845.8149     55.02745     1060.493        29     1.405     0.873  59.02   0
       222    657.5513    701.4034 307.6430629  +6.4058174     7955.133     11102.52     11781.05     77.63358       155.89     311.7799      1.474     3.31     850.1658     55.02745     1184.198        31     1.368     0.979  59.36   0
       223    640.0159    702.6469 307.6503043  +6.4047216     959.8532     1518.062      2034.88     77.75829     156.0142     311.9353      1.656     4.65     850.0825     55.02745     155.0294         9     1.128     0.544  61.38   0
       224    352.5669    701.4804 307.7697225  +6.3956408      846.111     1293.348     1019.702     78.13123     156.0763     312.1837      1.496     4.55     846.5615     55.02745     132.9687        10     1.256     0.546  42.76   0
       225    917.2926    693.9332 307.5354350  +6.4175166     1133.005     1885.526     2092.274     78.13123     156.3244     312.2147      1.780     5.00     847.2985     55.02745     157.7366        16     1.529     0.724  67.56   0
       226    729.2901    689.8959 307.6136511  +6.4129497     3962.348     5659.894     5916.929     78.25515     156.5103     312.1837      1.502     3.49     849.8428     55.02745     587.9097        20     1.333     0.829  66.11   0
       227    684.8554    690.4625 307.6320869  +6.4112408      1097.01     1625.288     1702.035     78.37887     156.1384     312.1837      1.601     3.91     849.9295     55.02745     199.3627         8     1.140     0.470  63.18   0
       228    995.6509    686.1658 307.5031480  +6.4233178     8875.424     13885.61     13802.03     78.13123     156.2004     312.0905      1.665     3.74     846.6797     55.02745     1080.486        35     1.505     1.060  60.15   0
       229    934.0432    686.6413 307.5287199  +6.4210817     2584.355     3714.827     3833.895     78.00711     156.1384     312.0595      1.545     3.70     846.8146     55.02745     391.7128        23     1.394     0.901  56.54   0
       230     14.6216    686.5827 307.9105657  +6.3905134     2102.688      3076.54     3336.958     78.00711     155.9521     312.1216      1.598     3.28     845.5239     55.02745     370.4368        18     1.222     1.010  47.95   0
       231    548.7206    685.2946 307.6887980  +6.4088509     635.7278      588.264     730.4772     78.00711     156.3864     312.2457      1.153     2.00     848.6902     55.02745     131.3236         5     0.684     0.444 -11.27   0
       232    431.3293    684.6541 307.7375733  +6.4052099     634.3901     968.3547      1102.73     78.13123     156.0142     312.1216      1.409     3.46     846.6238     55.02745     119.5393         5     0.753     0.459 -12.03   0
       233     72.8990    681.4889 307.8865345  +6.3945636     28529.71     39607.85     40754.23     78.25514     156.5722     312.1526      1.495     3.31     844.8021     55.02745     4274.488        47     1.445     1.006  61.78   0
       234    534.2145    682.2496 307.6949240  +6.4096256     2307.285     3166.716     3512.327     77.63357     156.0763     311.9042      1.389     3.50     848.2991     55.02745     360.9174        16     1.281     0.724  63.66   0
       235    503.0281    679.5579 307.7079658  +6.4096996     1639.752     2261.189     2469.016      77.8828     156.0763     312.0595      1.473     3.06     847.5796     55.02745     269.3119        14     1.143     0.754  61.41   0
       236    923.9473    678.5170 307.5331825  +6.4241013      1009.88     1223.115     776.8623     78.25514     156.1384     312.2768      1.308     3.98     846.7675     55.02745     144.0347        10     1.034     0.633  58.37   0
       237    543.4006    676.1796 307.6913110  +6.4124369     1197.258     1601.116     2068.941      77.8828     155.8278     311.9042      1.397     3.08     848.1583     55.02745     196.1491        12     1.086     0.715  65.79   0
       238    718.8681    673.3982 307.6185280  +6.4194145     3850.712     5403.857     5891.611     77.63357     155.7034     311.9974      1.482     3.57     849.4062     55.02745     618.3699        22     1.366     0.823  54.85   0
       239    740.9991    671.6839 307.6093933  +6.4208567     4420.387     6031.292     5869.026     77.50866     155.6411     311.9042      1.449     3.38     849.2926     55.02745     718.9586        22     1.329     0.803  58.78   0
       240    572.3578    669.6120 307.6795032  +6.4161109     3794.494     5153.591     4973.871     77.63358     155.9521     311.9042      1.479     3.39     848.0204     55.02745     554.2314        21     1.352     0.797  61.33   0
       241    408.4980    670.0927 307.7475409  +6.4104610     1613.334     2367.414     2487.993     78.25514     156.6341     312.1216      1.573     3.68      845.848     55.02745     266.6735        15     1.342     0.686  71.69   0
       242    232.9208    669.3549 307.8204840  +6.4049143     2058.227     2902.743     2878.651     78.25515     156.1384     312.1837      1.482     3.53     844.0413     55.02745     316.6333        16     1.375     0.680  60.54   0
       243   1013.8599    667.6639 307.4961984  +6.4315587     4931.255     7584.019       7687.6     78.25515     156.0763     312.2147      1.625     3.88     846.4086     55.02745     629.6311        27     1.455     0.962  62.69   0
       244    979.2601    666.6144 307.5106038  +6.4308467     8214.134     12493.47     13014.73     77.75829     156.0142     311.9353      1.642     3.79     846.4197     55.02745     1064.007        34     1.478     1.029  63.17   0
       245    316.4922    668.5056 307.7858047  +6.4080513       1652.8     1976.014     2074.784     78.25515     156.6341     312.1837      1.447     4.44     844.6317     55.02745     244.1385        13     1.282     0.661  61.50   0
       246    533.0543    667.1569 307.6959085  +6.4158176     693.5436      1012.48     727.3043     78.25515     156.1384     312.1837      1.603     4.77     847.6292     55.02745     102.6437         8     1.097     0.588  83.06   0
       247    699.0416    665.5668 307.6270228  +6.4219893     1085.128     1466.172     1440.458     78.00711     156.1384     312.0284      1.290     4.00     849.0762     55.02745     173.6891        11     1.160     0.694  66.41   0
       248    137.6092    660.3625 307.8603674  +6.4054458     26783.93     37137.03     38560.34     77.50866       155.89     311.9353      1.449     3.19     843.8803     55.02745     4117.062        41     1.428     0.938  61.09   0
       249     90.3291    663.6115 307.8798940  +6.4025258     956.4576     1163.459     1645.899     77.75829     155.8278     311.9974      1.342     3.55     844.2114     55.02745     159.7576         8     1.067     0.517  70.90   0
       250    806.1829    660.5659 307.5826898  +6.4276089      1320.47     1898.003     1730.002      77.8828     155.9521     312.0284      1.491     3.86     847.9612     55.02745      225.262        14     1.302     0.690  65.55   0
       251    424.4590    661.0883 307.7412122  +6.4147096     3163.832     4609.793     4571.346     78.25514     156.1384     312.2768      1.505     3.41     845.7273     55.02745      516.158        20     1.370     0.851  61.92   0
       252    599.4744    655.2404 307.6687193  +6.4229451     580.6708     718.5107     762.2305     78.13123     156.1384     312.2147      1.310     4.15     847.6642     55.02745     101.2921         7     1.191     0.413  75.43   0
       253    357.0153    655.0738 307.7694233  +6.4149464     884.4786     1317.352     1101.984     77.75829       155.89     312.0905      1.527     4.27     844.7449     55.02745     119.0195         9     0.966     0.851  45.75   0
       254    974.0990    649.4764 307.5133156  +6.4377509     7061.094     11475.72     12022.22      77.8828     156.2625     312.1837      1.746     3.92     846.2366     55.02745     924.1241        40     1.726     1.054  55.33   0
       255     18.6335    649.1906 307.9101513  +6.4060831      1278.09      1863.96     1744.577     77.75829     155.9521     312.0284      1.568     4.20     844.5535     55.02745     178.8793        13     1.232     0.779  51.17   0
       256    567.6798    644.9955 307.6822656  +6.4261176     54171.45     73670.84     76227.02      77.8828     155.6411     311.9353      1.413     3.26     847.2533     55.02745     8408.104        56     1.435     0.955  57.90   0
       257    932.2481    646.5982 307.5307936  +6.4375532     681.4667     1083.063     1010.387     77.63358     155.7656     311.7799      1.865     4.99     846.2325     55.02745     99.18518         7     0.918     0.769  63.76   0
       258    210.9838    646.4941 307.8303582  +6.4136197     734.0541     1087.826     1125.953     78.00711     155.9521     312.0284      1.375     4.03     843.2966     55.02745     117.3958         8     1.142     0.484  60.29   0
       259    792.7693    644.4905 307.5887949  +6.4338004     621.7068     1030.441     536.2437     78.37887     155.9521     312.1526      1.596     5.58      847.571     55.02745     113.3424         8     1.438     0.610  69.45   0
       260    526.8723    645.2335 307.6992061  +6.4246625     916.7936     1174.139     1205.441     78.13123     156.1384     312.1526      1.357     3.55     846.8928     55.02745     139.0365         9     1.069     0.604  42.81   0
       261    761.0236    644.8447 307.6019684  +6.4326011     355.1386     265.8587     -257.037     77.75829     156.1384     312.0595      1.250     3.71     847.8785     55.02745     91.91394         5     1.244     0.318  63.40   0
       262    498.1447    642.1514 307.7112401  +6.4249793     721.6122     943.2488     979.4271     78.25514     156.1384     312.2768      1.504     4.04     846.3855     55.02745     150.6769         7     1.128     0.414  55.08   0
       263    425.3837    642.5745 307.7414455  +6.4223832      470.519     761.1744     763.4251     78.00711     156.0142     312.1216      1.544     3.52     845.1514     55.02745     77.31171         5     1.075     0.333  69.68   0
       264    175.1621    641.7401 307.8453941  +6.4143870      3081.24     4269.974     4445.307     78.25515     156.2004     312.2147      1.473     3.19     843.2603     55.02745     512.5587        20     1.376     0.774  60.33   0
       265    979.0907    640.9813 307.5115240  +6.4414232     657.8058     924.4015     959.9373     78.13123       155.89     312.0595      1.575     4.51     846.1523     55.02745      84.9696         7     1.050     0.552  32.75   0
       266     67.9809    636.3436 307.8900874  +6.4130356     1407.627     2117.046     2256.608     77.75829     156.0763     311.9974      1.522     4.43     843.7012     55.02745        221.9        12     1.269     0.633  69.15   0
       267    464.9392    628.8105 307.7254758  +6.4293818     71407.58     97586.32     100738.9     77.63357     156.0142     311.9042      1.424     3.49     845.5256     55.02745     12273.76        59     1.450     0.951  60.39   0
       268      8.3677    630.6050 307.9150368  +6.4134121     1944.952     2918.301      3162.37     77.63358     156.0142     311.7488      1.529     3.87     844.2109     55.02745     290.8892        17     1.422     0.702  59.79  16
       269    650.7528    625.7609 307.6484026  +6.4368186     953.9572      1259.27     1093.902     78.13123     156.1384     311.9974      1.340     3.83     847.0813     55.02745     153.5799        10     1.080     0.598  67.80   0
       270    139.2654    624.1907 307.8608890  +6.4204332      1857.64      2679.92     2271.902     77.75829     155.9521     312.0595      1.406     3.60     842.8918     55.02745     307.9987        14     1.305     0.658  58.05   0
       271    934.7260    621.2905 307.5306039  +6.4480831     722.9167     1073.453     1234.759     78.25515     156.3864     312.2147      1.718     5.10      845.952     55.02745     110.5092         8     1.275     0.576  79.79   0
       272    418.3583    621.5890 307.7450630  +6.4308125     1110.018     1653.303     1816.335     77.63358     155.9521     311.9353      1.758     4.27     844.3069     55.02745     161.2431        10     1.207     0.551  55.54   0
       273    611.0836    620.7244 307.6650464  +6.4375798       939.57     1250.725     1273.254     78.37887     156.4484     312.2768      1.398     4.27     846.7377     55.02745     164.9758        10     1.117     0.633  45.28   0
       274    310.3039    618.3871 307.7900476  +6.4285347     2407.664     3519.073     3776.499     78.00711       155.89     311.9974      1.492     3.44     842.7429     55.02745     407.3768        19     1.390     0.805  70.99   0
       275    492.8081    620.0549 307.7141928  +6.4339236     744.7411     1107.072     1272.053     77.75829     156.0142     311.9042      1.415     3.54     845.8001     55.02745     114.8019         6     0.899     0.469  51.99   0
       276    319.4286    620.2274 307.7861965  +6.4280791     485.0893     657.6844     1139.057     77.75829     155.9521     312.0284      1.919     3.43      842.911     55.02745     72.62885         5     0.771     0.441  69.24   0
       277     11.4172    619.8862 307.9141292  +6.4179389     830.0702     1301.224      1684.83      77.8828       155.89     312.1216      1.633     5.48     843.8989     55.02745     110.1077        11     1.254     0.730  30.71   0
       278     18.0854    618.6088 307.9114027  +6.4186891     684.4487     827.5712     519.2196      77.8828     155.8278     312.0284      1.441     4.66     843.7975     55.02745     103.6347         7     1.105     0.649 -85.25   0
       279    462.4637    616.7025 307.7269075  +6.4342978     929.7139     1371.933     2537.514     78.13123     156.2625     312.2147      1.664     4.00     845.1593     55.02745     159.6904        11     1.147     0.670  54.06   0
       280    736.9589    612.2798 307.6130457  +6.4452461     5890.211     7970.441     8237.386     78.25515     156.1384     312.1526      1.416     3.46     846.5303     55.02745     918.1864        23     1.325     0.810  61.28   0
       281    790.5269    607.4783 307.5909558  +6.4490056     15552.42     21128.21     21952.47      78.5024     156.3864     312.2147      1.454     3.33     846.4261     55.02745     2463.235        38     1.442     0.899  58.98   0
       282   1007.7048    607.7391 307.5007411  +6.4560937     935.3344     1413.498     459.6068     78.13123     156.1384     312.2457      1.578     5.08     845.7849     55.02745        132.3         9     1.065     0.685  44.63   0
       283    532.9372    606.7669 307.6979683  +6.4407440     1204.681     2219.012     2205.442     78.00711     156.2004     312.1526      1.996     6.93     845.8408     55.02745     238.0308        15     1.917     0.701  86.98   0
       284     35.4541    607.3429 307.9045664  +6.4239203     703.2403      1136.36     1256.816     78.37887     156.1384     312.1837      1.903     5.69     843.3312     55.02745     115.8418        10     1.220     0.747  85.19   0
       285    614.3746    605.5892 307.6641831  +6.4439373     3229.982     4241.239     4281.649      77.8828     155.9521     312.0595      1.314     3.27     846.2406     55.02745     528.9556        17     1.302     0.708  64.89   0
       286    931.8237    601.6446 307.5324610  +6.4560973     1093.508     1573.036     1950.697     77.75829     156.1384     312.0595      1.479     4.91     845.5561     55.02745     160.8645         9     1.216     0.561  66.10   0
       287    372.9830    599.4803 307.7646461  +6.4384282     1149.457     1489.229     1316.094      77.8828     155.8278     312.0905      1.476     4.89     842.8691     55.02745     168.6232        10     1.107     0.612  64.60   0
       288    226.8574    599.3903 307.8253394  +6.4335943     1455.851     2291.736     2433.029     77.63357     156.0763     311.9042      1.639     4.44     841.8348     55.02745     230.1833        13     1.342     0.631  54.66   0
       289    190.1216    600.3742 307.8405637  +6.4319624     811.8446     1191.796     1643.465     78.00711     156.0763     312.1526      1.494     4.24     842.0579     55.02745      146.063         7     0.787     0.650  20.01   0
       290    866.5093    590.7609 307.5599512  +6.4584264     3151.553     4028.898         4316     78.25515     156.0763     312.2147      1.346     3.26     845.6653     55.02745     495.5704        19     1.237     0.776  63.22   0
       291    161.6534    590.9648 307.8527017  +6.4348966     823.2434     1214.863     1398.934     78.13123     156.1384     312.2147      1.258     3.31      842.072     55.02745      170.272         5     0.771     0.412  68.52   0
       292    825.3545    588.0812 307.5771342  +6.4581683     2702.024     3968.081     4322.769     78.25515     156.1384     312.1526      1.527     3.47     845.7042     55.02745     424.2372        18     1.305     0.793  65.79   0
       293    253.2810    583.3767 307.8148998  +6.4410863       8725.5     12285.99     12710.66      77.8828     155.8278     312.1216      1.472     3.29     841.5842     55.02745     1345.718        30     1.447     0.838  59.02   0
       294    805.8919    579.3124 307.5855094  +6.4611428     174189.5       240308     249199.8     78.25515     156.5722     312.2768      1.465     3.53     845.4538     55.02745     27887.34       102     1.553     1.048  64.33   0
       295    796.3128    584.0013 307.5893325  +6.4588895     2596.349     3964.782     4740.362     77.50866     155.7034     311.9042      1.634     3.52     845.6405     55.02745      437.476        18     1.360     0.972  79.11   0
       296    737.2250    582.2539 307.6139332  +6.4576504     442.6201     1367.508     2024.086      77.8828     156.2004     312.0284      3.130     8.41     845.5043     55.02745       106.27        17     3.004     0.659  56.00   0
       297    187.4444    577.9080 307.8424265  +6.4411474     65452.96     91071.45     95524.63     78.25514     156.0763     312.3078      1.467     3.26     841.6604     55.02745     9940.095        73     1.517     1.054  62.93   0
       298    111.4734    574.1876 307.8741037  +6.4401469     6952.396     9723.045      10163.4     77.75829     155.8278     311.9974      1.474     3.30     842.2136     55.02745      1026.09        27     1.322     0.957  57.39   0
       299    976.6409    571.0815 307.5148592  +6.4701988     1453.122     2218.553     1880.225     78.25515     156.1384     312.1216      1.590     3.85     844.3739     55.02745     217.1704        17     1.267     0.914  52.57   0
       300    997.4281    569.9091 307.5062637  +6.4713709     686.5894     982.3116     704.2634     78.37887       155.89     312.0595      1.423     4.79     844.3358     55.02745     125.3455         7     1.129     0.585  38.80   0
       301    225.9243    569.5673 307.8267233  +6.4458745     790.1531     1245.748     1789.534     78.13123     156.1384     312.1216      1.628     5.15     841.1973     55.02745     126.7494         9     1.254     0.599  67.53   0
       302    842.4137    566.5814 307.5707624  +6.4676096     4819.287     6667.953     6583.372     78.00711     155.8278     312.0905      1.504     3.34     844.8757     55.02745     676.0928        22     1.357     0.811  63.67   0
       303    360.8422    564.9904 307.7708393  +6.4522618     19264.23     26467.51     27566.34     77.63357     155.9521     311.9353      1.414     3.33     841.7994     55.02745      3243.14        37     1.387     0.896  60.57   0
       304    162.8237    564.0430 307.8531157  +6.4460492     1939.469     2727.964     3403.611      77.8828     156.0142     312.0284      1.448     3.92     841.6075     55.02745     304.1632        16     1.343     0.734  60.06   0
       305    451.2070    564.9520 307.7333079  +6.4552868     909.6281     1118.574     1088.076     77.75829     155.9521      311.811      1.350     2.92     843.1839     55.02745     226.7458         9     1.077     0.562  50.76   0
       306    237.9212    561.7381 307.8220021  +6.4495067     1050.996     1555.625     2343.433     78.37887     156.2004     312.2147      1.712     4.62     841.0772     55.02745     180.4972        10     1.259     0.527  63.63   0
       307    796.4245    559.9344 307.5900856  +6.4688286     6345.574     8945.831     9173.055      77.8828     156.1384     312.0905      1.449     3.51     844.8108     55.02745     941.7914        25     1.430     0.788  63.06   0
       308    527.2419    559.8489 307.7018966  +6.4599233     7432.558     9676.173     9777.528     78.25515     156.0763     312.1526      1.367     3.29     843.8442     55.02745     1285.818        23     1.316     0.747  60.06   0
       309    100.0958    561.1856 307.8792641  +6.4451342     967.0135     1468.326     1630.414     78.00711       155.89     311.9663      1.509     4.98     842.1746     55.02745     143.8443        11     1.308     0.584  57.35   0
       310    385.3793    556.4495 307.7609329  +6.4566049     1721.833     2150.789     1775.637     77.75829     156.2004     312.0595      1.269     3.09     841.7728     55.02745     302.6528        14     1.146     0.721  67.24   0
       311    490.2859    554.5244 307.7174239  +6.4608920     483.1737     762.4987     333.9025     78.37887     156.4484     312.2457      1.399     4.18     843.5825     55.02745     93.61035         7     1.814     0.275  57.59   0
       312    174.2264    553.1204 307.8487449  +6.4509388     7566.715     10674.62     11151.28     78.13123     156.0142     312.1837      1.487     3.22     841.3145     55.02745     1216.942        29     1.410     0.877  62.54   0
       313    572.0878    552.8498 307.6835026  +6.4643038     2434.786     3769.446     4090.537     78.25514     155.9521     312.3078      1.623     3.49     843.5953     55.02745     377.3815        22     1.258     1.064  46.49   0
       314     45.8577    551.8491 307.9021031  +6.4471761     5377.798     7848.613     8110.471     78.25514     156.1384     312.2768      1.541     3.61     842.5737     55.02745     822.4074        28     1.471     0.912  58.81   0
       315    855.1719    552.6783 307.5659246  +6.4737721     592.2252     762.8636     565.1888     78.13123     156.0763     312.1837      1.286     3.50     844.2956     55.02745     107.7292         5     1.136     0.312  78.81   0
       316    812.9681    552.1959 307.5834709  +6.4725719     1657.463     2444.323     3072.117     77.63357     156.0142     311.9663      1.619     3.79     844.4738     55.02745      274.594        15     1.297     0.791  52.89   0
       317    269.4459    549.5030 307.8093173  +6.4556088     100082.2     134498.7       138754     78.25515     156.0142     312.3388      1.444     3.19     840.9758     55.02745     15701.09        77     1.470     1.010  59.43   0
       318    558.8380    546.7835 307.6892081  +6.4663676      991.389     1284.257     1499.349      77.8828     156.0142     311.9353      1.380     4.54     843.3152     55.02745      138.428        12     1.221     0.714  51.15   0
       319    253.1198    544.5828 307.8162626  +6.4570955     1703.896     863.0887     416.5551      77.8828     155.8278     312.0905      1.294     3.18     840.7911     55.02745     275.6416        11     1.028     0.675  60.32   0
       320    969.1172    543.1181 307.5189117  +6.4814938      1617.01     2158.853     2592.372     78.00711     156.3864     312.2768      1.470     3.97     843.3015     55.02745     232.9768        15     1.270     0.718  54.95   0
       321    792.6178    541.7050 307.5922724  +6.4762279     18003.34     24410.46     24729.04     78.13123     155.9521     312.0284      1.439     3.31     844.2167     55.02745     2853.838        36     1.395     0.883  62.25   0
       322    496.2195    540.2186 307.7154360  +6.4669951     45207.91     67252.18     70852.05     78.00711     156.0763     312.1216      1.563     3.62     843.0123     55.02745     7034.406        69     1.569     1.171  51.27   0
       323    646.9432    538.8955 307.6528748  +6.4725521     1111.664     1633.577     1740.809     78.13123     156.1384     312.4008      1.377     4.38     843.0379     55.02745     172.9656         9     1.162     0.534  45.72   0
       324    208.5338    536.7551 307.8350426  +6.4588395     2150.304      2844.89     3336.917     78.25515     156.0763     312.2147      1.443     3.64     840.5875     55.02745     294.3215        16     1.269     0.756  58.92   0
       325     44.2830    537.2137 307.9032470  +6.4531650     1299.805     1825.939     1822.432      77.8828       155.89     311.9974      1.340     4.36     842.3799     55.02745     217.5248        10     1.261     0.542  49.45   0
       326    656.0981    535.2688 307.6491928  +6.4743534     3406.942     4643.396     4469.338     78.25515     156.2625     312.1837      1.390     3.44     842.9235     55.02745     549.0992        18     1.308     0.738  60.19   0
       327    256.5451    536.7860 307.8151003  +6.4604284     510.1486     569.5608    -1058.705     77.63357     156.0763     311.9353      1.172     4.29     840.5385     55.02745     95.76318         7     1.090     0.481  41.95   0
       328    666.2264    535.1344 307.6449903  +6.4747453     1582.284     2280.112     1810.032      77.8828     156.0763     312.0905      1.439     4.12     842.9354     55.02745     287.4822        15     1.400     0.684  55.84   0
       329    718.3597    534.3019 307.6233633  +6.4768200     1482.982      2196.76     2326.916     78.25515     156.0142     312.4008      1.637     3.96     843.5833     55.02745     232.7034        15     1.330     0.685  61.96   0
       330     75.0827    533.2799 307.8905865  +6.4558182     708.3215     994.1649     1242.373     78.25515     156.3864     312.2457      1.420     4.23     842.0685     55.02745     131.5898         7     1.214     0.521  64.78   0
       331    393.8029    530.9565 307.7582845  +6.4674094     1874.641     2445.919     2023.655     77.63357     155.7034      311.842      1.421     3.40     841.0684     55.02745     292.2549        15     1.240     0.717  62.52   0
       332    325.3967    529.2995 307.7867527  +6.4658144     4448.823     6193.239     5950.317     78.00711       155.89     311.8731      1.410     3.39     840.4763     55.02745     710.1603        19     1.278     0.766  60.03   0
       333    505.3539    528.5977 307.7120292  +6.4720963     2377.307     3183.829     3157.251     77.63358     155.8278      311.811      1.392     3.59     842.5459     55.02745     393.3521        15     1.288     0.683  61.82   0
       334    140.5065    527.9184 307.8635927  +6.4602167     28810.19     40017.87     41606.97     78.00711     156.3864     312.2768      1.470     3.30     841.2474     55.02745     4207.271        45     1.465     0.943  59.84   0
       335    868.5356    527.5927 307.5612065  +6.4845711     1726.548     2473.227     2128.562     77.75829       155.89     312.0284      1.562     4.27     843.4197     55.02745     259.2153        16     1.491     0.651  69.26   0
       336    105.5889    526.2388 307.8781517  +6.4597439     3022.154     4198.022     4024.669     77.75829     155.9521     311.9042      1.434     3.48     841.6832     55.02745     505.3453        18     1.289     0.761  64.41   0
       337    342.4750    524.3011 307.7798260  +6.4684469     1163.896     1689.079     1558.119     77.75829     156.2625     312.1216      1.453     4.08     840.3199     55.02745     188.0771        11     1.276     0.608  69.47   0
       338    966.1619    522.0756 307.5208371  +6.4900829     5319.973      7557.25     7930.181     78.13123     156.2004     312.2147      1.490     3.51     842.4725     55.02745     757.3162        27     1.429     0.917  66.26   0
       339    539.2273    514.7869 307.6984193  +6.4789243     1744.401     2415.448     2702.537      77.8828     155.9521     312.1216      1.388     3.56     841.9554     55.02745     305.6348        14     1.245     0.673  59.84   0
       340      4.7483    512.3347 307.9205001  +6.4621136     27816.82     38767.39     40209.75     78.25515     156.0763     282.8389      1.490     3.23     842.2296     55.02745     4294.496        45     1.425     1.004  58.36  24
       341    437.5413    508.9185 307.7408522  +6.4779635     48241.47     65031.71     66762.34     78.25514     156.2004     312.1837      1.415     3.21     841.0435     55.02745     7363.481        51     1.426     0.922  59.63   0
       342    645.5873    508.5121 307.6544489  +6.4850500     13531.76     17958.23     18171.51      77.8828       155.89     312.0905      1.382     3.39     842.0946     55.02745     2336.098        27     1.337     0.810  61.46   0
       343    285.5149    509.1876 307.8039893  +6.4727874     1035.468      1320.75     1061.113      77.8828     156.0142     312.0284      1.286     3.73      839.622     55.02745     180.1218        11     1.158     0.680  80.14   0
       344    202.7004    506.6273 307.8384724  +6.4710819     21482.63     30511.27     31662.26     78.25515       155.89     312.0905      1.519     3.51     839.8557     55.02745     3422.774        42     1.505     0.939  52.62   0
       345    168.2708    507.5997 307.8527403  +6.4695314     1747.465     2416.688     2299.469     77.75829     155.6411     311.9663      1.514     3.75     840.4823     55.02745     275.5308        14     1.223     0.705  61.60   0
       346    908.1228    506.0976 307.5454760  +6.4947567     862.1364     1222.264     1148.146      77.8828     156.3864     312.2147      1.445     4.71     842.4538     55.02745     138.7651         9     1.229     0.513  56.12   0
       347    819.7587    506.5091 307.5821678  +6.4916579     1206.693     1552.869     1664.439     78.25515     156.1384     312.2457      1.479     4.07     843.2437     55.02745     188.3545        12     1.086     0.732  54.33   0
       348    567.4503    505.3626 307.6870101  +6.4837534     3073.257     4009.421     3849.774     78.00711     156.0142     312.0595      1.335     3.15     841.6223     55.02745     510.2366        16     1.176     0.739  62.17   0
       349    941.3021    502.2396 307.5318216  +6.4974485     5044.507     6945.343     7045.717     78.25515     156.0142     312.4008      1.463     3.38     842.0045     55.02745      726.306        22     1.374     0.806  59.17   0
       350    614.3817    500.8881 307.6676648  +6.4871605     7168.692     9838.866      10121.6     78.00711       155.89     312.0905      1.394     3.36     841.6754     55.02745     1159.749        25     1.351     0.794  58.13   0
       351    979.4609    506.6862 307.5158232  +6.4968764     1166.603     1743.377     1876.755     78.37887     156.2625     312.2457      1.399     4.12     841.7307     55.02745      165.007        11     1.278     0.565  70.63   0
       352    101.8621    501.5769 307.8805246  +6.4698000     1118.433     1532.864     1653.271      77.8828     156.1384     312.0905      1.387     3.36     841.4175     55.02745      191.725        10     1.152     0.566  57.57   0
       353    512.7488    500.4543 307.7098953  +6.4839605     430.6189      433.528     558.5727     78.37887     156.1384     312.2147      1.086     3.39     841.3169     55.02745      88.2063         5     0.765     0.435 -22.68   0
       354    963.8259    494.5555 307.5227203  +6.5013667     3710.673     4997.593     4287.897     77.75829     156.2004     312.0595      1.449     3.14     841.4344     55.02745     557.0596        24     1.329     0.903  53.21   0
       355    652.6193    493.8219 307.6520168  +6.4913481     506.0033     761.5472     537.3691     78.00711     156.0142     312.1216      1.478     2.89     841.6658     55.02745     93.12073         5     0.736     0.441  69.83   0
       356    526.5952    492.1512 307.7044204  +6.4878487     8271.396     11306.43     11970.67     77.63357     155.9521     311.8731      1.382     3.27     840.9802     55.02745     1399.944        28     1.376     0.859  62.56   0
       357    402.4312    493.6247 307.7559459  +6.4831079     768.5643     723.9841     1027.852     77.75829     156.0142     311.9974      1.228     3.47     840.0412     55.02745     139.3921         6     0.926     0.413  70.74   0
       358    742.3508    492.5388 307.6147863  +6.4948571     461.5054     338.5622      515.851     78.25515     156.0763     312.2457      1.288     3.44     842.3372     55.02745     81.74756         5     1.035     0.330  69.41   0
       359    372.4615    492.3711 307.7684362  +6.4826272     2933.381     3838.592     3571.604     78.00711     156.1384     312.1216      1.356     3.08     839.3974     55.02745     495.7052        16     1.269     0.680  56.81   0
       360    883.0546    487.8282 307.5564955  +6.5014682     3399.353     4551.465     4814.345     78.00711     156.2004     312.0905      1.432     3.72     842.1534     55.02745     516.6663        19     1.290     0.779  61.32   0
       361    535.9813    488.2736 307.7006508  +6.4897617     729.3662     1255.215     1564.992     77.75829     156.0763     312.0905      1.568     4.79     840.8124     55.02745     132.1297         9     1.302     0.523  73.58   0
       362    231.1265    487.4817 307.8273052  +6.4799339     804.3927     1095.606     1155.423      78.5024     156.4484     312.2147      1.551     3.95      838.853     55.02745     158.2389         9     1.158     0.605  45.56   0
       363    890.4613    482.2693 307.5536033  +6.5040085     2229.325      3205.61     3306.803     78.37887     156.1384     312.2147      1.576     3.97     841.9222     55.02745     319.1303        18     1.355     0.754  61.42   0
       364    929.9747    481.7693 307.5372061  +6.5055240     1181.639      1590.42     1423.984     77.75829     155.9521     312.0284      1.359     3.91      841.572     55.02745     227.5596        10     1.109     0.612  64.59   0
       365    109.6107    482.0255 307.8779603  +6.4781299     784.7307     1107.448     793.1299      77.8828     155.9521     312.0595      1.478     3.32     841.0099     55.02745     132.0986         7     0.767     0.642  67.56   0
       366    714.4380    478.3183 307.6268537  +6.4998012     3442.777     4576.398     4059.213     78.25515     156.2004     312.1216      1.330     3.42     841.5266     55.02745     628.5256        18     1.292     0.715  60.24   0
       367    268.0341    480.3488 307.8122134  +6.4841095     706.9009     771.9163     637.2505     78.13123     156.0763     312.0905      1.223     3.22     838.5741     55.02745     110.5357         7     0.739     0.659   3.17   0
       368    741.6263    479.4446 307.6155225  +6.5002387      571.972     815.4359     1010.386     77.75829     156.2004     312.0905      1.776     4.28     841.8099     55.02745     78.26379         5     0.989     0.527  41.78   0
       369    425.7604    477.2787 307.7468007  +6.4906327      1262.15     1727.074     1463.468     78.13123     156.2004     312.1837      1.570     4.54     839.7909     55.02745     203.5898        13     1.315     0.726  57.94   0
       370     76.2058    477.5790 307.8919839  +6.4788494     2256.942     3382.565     3906.907      77.8828       155.89     311.9974      1.606     3.43     841.2398     55.02745     329.3411        18     1.353     0.759  61.06   0
       371    385.3057    476.6987 307.7636239  +6.4895249     4111.317     5415.891     5428.642     78.25515     156.6959     312.0284      1.335     3.12     839.0599     55.02745     677.8969        20     1.299     0.734  62.21   0
       372    613.0173    473.1016 307.6691564  +6.4985861     11242.73     15316.02     15807.18     78.25515     155.9521     311.9663      1.405     3.39     840.4918     55.02745     1883.127        33     1.380     0.886  58.25   0
       373    775.7578    469.5953 307.6016718  +6.5054373     18341.72     24908.83     25742.79     77.63358     155.8278     311.9042      1.416     3.58      841.923     55.02745     3175.989        34     1.385     0.868  61.30   2
       374    779.7952    465.0327 307.6001463  +6.5074548     1475.174     2195.831     2870.783     77.63357     156.0142     311.9974      1.603     3.56     841.7488     55.02745     250.4049        12     1.197     0.612  66.75   2
       375    295.3271    470.1977 307.8012157  +6.4892101     2969.945     4081.407     4474.248     77.75829     155.7034     312.0284      1.392     3.03     838.1276     55.02745     496.8196        20     1.268     0.819  64.61   0
       376    419.0578    469.4041 307.7498474  +6.4936603      788.968     1181.492     1279.208     77.63357     156.0142     311.9042      1.774     4.33     839.2184     55.02745     136.8806         7     1.206     0.588  65.57   0
       377    804.8564    466.8655 307.5896750  +6.5075295     1628.631     2153.547     1805.521     78.37887     156.0763     312.1837      1.479     3.60     842.0746     55.02745     273.4943        13     1.246     0.698  59.84   0
       378    905.3236    466.2497 307.5479612  +6.5111143     611.4713     886.4951     816.8831     78.13123     156.2004     312.1837      1.493     4.79     841.1158     55.02745     95.16125         7     1.190     0.547  66.15   0
       379    393.7672    466.8079 307.7604392  +6.4938898      604.495     850.9335     876.2591     77.75829     156.0142     311.9974      1.385     2.94     838.6739     55.02745     112.8976         6     0.763     0.532  44.57   0
       380    378.3005    466.4891 307.7668744  +6.4935062     1879.686     2688.682     3550.914     78.25515     156.5722     312.1526      1.502     3.92     838.3422     55.02745     297.4408        14     1.321     0.680  54.99   0
       381    961.0034    464.5957 307.5248865  +6.5136414     1903.739     2786.599     2998.358     77.63357     155.7034     311.9974      1.480     3.55     840.3631     55.02745     278.0765        18     1.370     0.780  63.60   0
       382    709.6050    463.8662 307.6293419  +6.5056069     703.9625     665.8109     413.5826     77.75829     155.8278     311.9974      1.193     2.50     840.8069     55.02745     153.8942         5     0.737     0.419  65.50   0
       383    367.0820    462.5288 307.7716664  +6.4947673     818.9875     1249.853     964.6309      78.5024     156.4484     312.2147      1.428     4.73     838.0077     55.02745      131.663         9     1.122     0.566  65.38   0
       384    121.1999    462.5909 307.8737967  +6.4865396     574.0388     828.2971     877.9608     77.63357     155.8278     311.9353      1.188     4.58     840.2126     55.02745     95.08026         6     1.019     0.586  69.33   0
       385    113.0353    461.8145 307.8772140  +6.4865875     4850.779     6885.525     7113.715      77.8828     155.9521     312.0284      1.461     3.33     840.2822     55.02745     788.0397        25     1.338     0.883  55.13   0
       386    751.2757    460.5086 307.6121436  +6.5083762     2619.108     3468.729     3272.359     78.25515     156.3864     312.2147      1.344     2.98     841.2299     55.02745     422.8964        18     1.277     0.745  71.83   0
       387   1014.9460    459.1411 307.5026592  +6.5176790     4161.253     6737.741     7033.471     78.37887     156.0763     312.1837      1.734     4.28     839.4624     55.02745     506.2094        25     1.430     0.985  50.96  16
       388    270.7697    458.8514 307.8117951  +6.4930751     1673.518     2275.109     2473.166     78.00711     156.2625     312.1216      1.471     3.51     837.8572     55.02745     251.8661        16     1.226     0.759  48.29   0
       389    349.1404    456.4161 307.7793230  +6.4966929     3558.066     4563.335     4181.489     77.75829     156.0763     311.9353      1.377     3.33     837.4785     55.02745     588.3002        18     1.237     0.758  58.43   0
       390    704.9718    454.1899 307.6315883  +6.5094477     1868.895       2534.4     2266.811      77.8828     155.9521     312.0595      1.435     3.54     840.2227     55.02745     265.5681        15     1.231     0.760  58.51   0
       391    408.6354    452.2868 307.7547476  +6.5003795     632.9383     735.9399     515.1317     78.25515     156.0142     312.1837      1.412     3.73     838.0057     55.02745     125.9495         6     1.309     0.442  64.42   0
       392    236.7816    452.2572 307.8261332  +6.4946636     889.2299     1248.428     976.7118     77.75829     156.0763     311.9663      1.384     4.16     838.0226     55.02745     145.1348        10     1.238     0.521  67.54   0
       393    978.8521    452.4889 307.5178735  +6.5192304      710.005     983.0146     1156.315     78.25515     155.9521     312.3078      1.628     4.07     839.6995     55.02745     119.2369         6     0.944     0.500  40.00   0
       394    546.0825    446.9018 307.6978330  +6.5071767      982.063     1599.607      1630.84     78.25515     156.5103     312.2768      1.733     5.46     838.7344     55.02745     164.4448        12     1.477     0.591  53.51   0
       395    447.3602    447.8926 307.7388084  +6.5034829     695.3678     731.3403     336.7501     78.37887     156.0763     312.2457      1.229     3.86     837.9678     55.02745     125.7999         6     1.069     0.399  74.38   0
       396    468.7269    445.1190 307.7300254  +6.5053391     1451.717     1961.531     1805.451      78.5024     156.3864     312.2147      1.398     3.73     837.8414     55.02745     290.7678        12     1.198     0.634  63.32   0
       397    831.2382    444.1389 307.5794709  +6.5177866     1655.079     2044.874     1728.887     78.25514     156.2004     312.1837      1.329     3.18     840.8269     55.02745     231.2308        12     1.043     0.722  55.14   0
       398    816.9293    443.1486 307.5854478  +6.5177209     2341.874     3337.614     3093.122     78.13123     156.1384     312.2147      1.465     3.83     840.8444     55.02745     356.6714        18     1.390     0.733  66.21   0
       399    616.3563    443.4193 307.6687575  +6.5109505     791.6268     1010.536     948.4133     77.75829     156.0142     311.9663      1.422     3.27     838.7339     55.02745     158.7008         6     0.888     0.467  81.99   0
       400    714.2220    441.3147 307.6281739  +6.5150700     16671.43     22306.75     23270.53     78.25515     155.8278     312.0905      1.417     3.30     839.7701     55.02745     2677.029        34     1.404     0.855  58.03   0
       401    635.4422    437.4182 307.6610290  +6.5140621     3010.307      4213.32     5087.353     77.75829     155.9521     311.9663      1.498     3.47     838.4237     55.02745     505.7551        22     1.435     0.781  59.39   0
       402    708.0358    436.0911 307.6309175  +6.5170210     754.5875     1016.873     1092.897     78.37887     156.0763     312.2147      1.463     4.74     839.3741     55.02745      131.075         8     0.985     0.647  62.63   0
       403    610.4834    434.5277 307.6714931  +6.5144260     6216.933     8043.088     8438.985      78.5024     156.4484     312.2147      1.373     3.35     838.2469     55.02745     1021.733        18     1.239     0.761  67.60   3
       404    606.6833    431.8747 307.6731600  +6.5153949     16597.77     23043.08     24144.98     78.37887     156.4484     312.2457      1.451     3.29     838.0656     55.02745     2781.649        36     1.447     0.894  60.52   3
       405    939.5182    431.0906 307.5349232  +6.5267617     4126.372     5870.823     5638.162     78.00711     156.3864     312.2768      1.479     3.49     839.2111     55.02745     658.2712        21     1.320     0.826  66.12   0
       406    378.5512    427.3552 307.7680760  +6.5096696     33052.62     44471.04     45747.06     78.25515     156.0142     312.1837      1.415     3.22     836.3154     55.02745     5645.964        46     1.436     0.898  59.85   0
       407    415.8025    428.8056 307.7525537  +6.5103116     819.8172     855.3679     805.0551     77.63357     155.8278     311.9974      1.221     4.26     836.6163     55.02745     145.2183         9     1.025     0.629  63.10   0
       408    895.1364    426.7636 307.5535037  +6.5270776     1702.604     2597.437      3564.02     78.13123     156.1384     312.2147      2.105     3.16     839.5711     55.02745       295.54        16     1.291     0.812  44.76   0
       409    908.2488    421.4160 307.5482341  +6.5297197     5406.847     7469.253     7362.008     77.75829     156.1384     311.9042      1.452     3.38     839.1184     55.02745     819.4033        26     1.422     0.906  64.87   0
       410    124.6235    426.8635 307.8735698  +6.5014025     2666.468     3637.543       3707.7      77.8828     156.1384     312.0905      1.392     3.15     839.0232     55.02745     416.8214        17     1.266     0.719  61.56   0
       411    590.1461    423.1103 307.6803214  +6.5184633     736.4745     887.9586     1041.981     78.25514     155.9521     312.3078      1.295     3.17     837.5217     55.02745      144.266         6     0.902     0.451  55.49   0
       412     58.0545    422.4036 307.9013700  +6.5010195     1679.981     2455.158     2788.613     77.63357     155.9521      311.842      1.532     3.79      840.343     55.02745     246.4407        14     1.223     0.727  52.38   0
       413    236.0601    417.9216 307.8275802  +6.5088136     15808.11      21379.1     21790.83     78.37887     156.1384     312.1526      1.423     3.27     837.3049     55.02745     2677.663        34     1.391     0.869  60.78   0
       414    964.0503    419.3783 307.5251206  +6.5324093     737.0264     672.6166     630.3466     77.75829     156.2004     312.0595      1.203     3.67     838.6832     55.02745     109.7299         7     0.752     0.652  22.75   0
       415    307.9977    412.3891 307.7978829  +6.5134966     376.5729     594.3694     561.0934      77.8828     155.8278     311.9974      1.267     4.11      835.736     55.02745     78.94879         5     1.083     0.445  64.03   0
       416     71.7983    412.3233 307.8959987  +6.5056400     930.1689      1414.68     1695.989     77.63357     155.5789     312.0284      1.665     4.57     839.6285     55.02745     148.8654        11     1.208     0.624  66.66   0
       417    730.9368    411.3743 307.6222261  +6.5279850     851.5414     953.1758     1164.078      77.8828     156.1384     312.1216      1.221     3.25     838.9937     55.02745     142.9024        10     1.024     0.698  75.41   0
       418   1008.1854    410.3808 307.5070843  +6.5375849     623.6607     995.4602     700.6132     78.00711       155.89     312.0905      1.607     4.39      838.178     55.02745     76.02258         7     0.897     0.612  78.98   0
       419    959.3322    410.1361 307.5273872  +6.5360685     986.1753     1501.422     1444.842     78.25515     156.1384     312.2457      1.590     4.55     838.3583     55.02745      141.455        12     1.191     0.789  69.59   0
       420    699.0018    410.6910 307.6355150  +6.5272068     949.2876     1488.015      1798.34     77.50866     155.8278     311.9353      1.708     3.81      837.921     55.02745     154.3818         9     1.095     0.535  63.70   0
       421    349.0000    407.6771 307.7810081  +6.5168084     1654.073     2171.808     2201.043     77.50866     155.5166     311.9042      1.363     3.57     835.4369     55.02745     274.6329        11     1.142     0.583  62.82   0
       422    136.2316    406.6049 307.8694257  +6.5101531     5663.973     8022.206     8119.869     77.63358     156.0142     311.9663      1.490     3.39     838.5864     55.02745     838.6215        27     1.394     0.891  67.09   0
       423    181.8944    407.8195 307.8504175  +6.5111763      832.916     1032.832     899.3473     78.13123     155.9521     311.9974      1.287     3.10      838.116     55.02745     146.2439         8     0.968     0.642  76.26   0
       424    629.7432    405.4645 307.6644598  +6.5270639     583.7603     910.2355     562.8018     78.37887     156.0763     312.2147      1.700     4.87     836.8239     55.02745     79.89374         7     1.110     0.606  65.94   0
       425    433.9792    405.6302 307.7457761  +6.5204840     838.5968     1054.032     820.4271     77.75829     155.9521     312.0595      1.284     3.22     835.5175     55.02745     138.9661         8     0.933     0.600  67.28   0
       426    241.2896    405.4276 307.8258254  +6.5141457     1612.666     2264.957     2180.924     78.37887       155.89     312.0595      1.410     2.93     836.7944     55.02745     289.1501        14     1.060     0.883  68.08   0
       427    158.4243    402.3411 307.8603498  +6.5126543     2802.161     3874.745     4037.534      77.8828     156.1384     312.0284      1.560     3.52     838.4249     55.02745     435.2444        20     1.351     0.840  71.75   0
       428    822.3775    402.7068 307.5845280  +6.5345969     845.3728      1035.46     791.2952     78.25515     155.9521     312.0284      1.464     4.13     839.0498     55.02745     150.3263         9     1.109     0.608  45.09   0
       429    553.6984    401.2159 307.6961912  +6.5262899     1134.641     1549.463      967.797     78.25515       155.89     311.9974      1.375     3.62     836.4315     55.02745     217.5862        11     1.258     0.570  58.42   0
       430    381.9107    397.1751 307.7676875  +6.5222403     2633.753     3433.305     3172.698     78.37887     155.9521     312.0284      1.332     3.29     835.1124     55.02745     431.6989        16     1.222     0.727  60.60   0
       431    270.1002    397.8754 307.8141100  +6.5182244      931.194     1160.126     740.9379     77.75829     156.2625     312.0905      1.264     2.85     835.7875     55.02745     154.2383         8     0.832     0.618  50.73   0
       432      1.1169    397.9257 307.9258401  +6.5092205     604.6672      701.963     465.3868     65.44334     121.0404     231.3562      0.929     2.62     841.3724     55.02745     191.7445         5     0.999     0.293  82.01  24
       433    970.6909    395.9821 307.5231381  +6.5422878     1031.727      1399.38     1416.247     78.00711       155.89     312.0905      1.501     4.73     837.7183     55.02745     149.9521        12     1.295     0.669  68.89   0
       434    315.9154    394.9703 307.7951755  +6.5209512     740.8102     1068.464     1329.688     78.25515     155.9521     312.0595      1.527     4.07     835.0651     55.02745     104.7316         7     0.907     0.521  44.93   0
       435     32.0125    391.5863 307.9132190  +6.5128705      3454.12      5357.17      5004.13     78.13123     155.8278     312.1216      1.676     3.68     840.2771     55.02745     541.4745        27     1.443     1.183 -79.32   0
       436    435.7198    390.6731 307.7455518  +6.5267165     8610.116     11774.99     11916.65      78.5024     156.3864     312.2147      1.404     3.25     835.0719     55.02745     1602.381        28     1.344     0.836  60.05   0
       437    776.3508    387.8199 307.6041432  +6.5392159     14616.19     19473.43     20249.83     77.75829     156.2004     312.0284      1.371     3.25      838.329     55.02745     2434.211        29     1.362     0.790  61.18   0
       438    768.2591    389.3161 307.6074550  +6.5383297     2254.771     3031.461     3548.738     78.37887     156.2004     312.2457      1.433     3.52     838.3576     55.02745     380.4678        15     1.265     0.661  62.03   0
       439    535.4268    389.6012 307.7041683  +6.5304770     488.0239      779.549     923.4364      77.8828     155.8278     311.9663      1.374     3.41      835.757     55.02745     82.62506         5     1.067     0.315  68.04   0
       440    339.8113    386.4547 307.7855335  +6.5252631     1197.237     1638.016     1653.102     77.63357     156.0763     311.8731      1.398     4.73     834.6526     55.02745     187.5962        10     1.206     0.595  61.34   0
       441   1020.2550    382.8583 307.5029828  +6.5493465     3652.862     5263.736     5425.104     78.37887     156.2004     282.8389      1.534     3.67     836.2897     55.02745      502.139        23     1.403     0.895  58.80  16
       442    951.2335    379.4966 307.5317682  +6.5484491     728.3828     965.1805     1248.708     78.37887     156.0142     312.2768      1.375     3.79     837.3942     55.02745     119.2424         5     1.023     0.404  82.29   0
       443    184.7295    379.5924 307.8501836  +6.5229233      910.183      1262.17     770.1152     77.75829     155.7656     312.0905      1.484     3.85      837.457     55.02745     178.6221        10     1.081     0.640  68.91   0
       444    901.8130    378.2700 307.5523398  +6.5473183     557.3077     765.7916     452.4862     77.75829       155.89     312.0595      1.239     3.89     837.9796     55.02745     107.4016         6     0.940     0.565  64.99   0
       445    390.3898    377.5718 307.7648193  +6.5306153     495.0407     854.1407     1026.429      77.8828     155.9521     312.0595      1.794     4.10     834.5031     55.02745     93.70831         6     1.074     0.447  54.44   0
       446    456.0799    374.9318 307.7376190  +6.5338926     2534.873     3182.153     3009.484     78.37887     156.3864     312.1837      1.363     3.38     834.6485     55.02745     441.7478        18     1.184     0.866  49.78   0
       447    912.4642    374.1457 307.5480518  +6.5493739     746.5505     1143.002     792.5994     78.25515     156.0763     312.1526      1.562     3.89     837.8192     55.02745     136.0657         7     1.166     0.373  72.55   0
       448    841.7023    370.7290 307.5775622  +6.5484390     36571.82     51774.24     53696.82     78.13123     156.3244     312.1837      1.522     3.58     837.8397     55.02745     5162.819        50     1.538     0.960  69.75   0
       449    483.8318    374.3287 307.7261106  +6.5350652     3477.469     4656.459     4772.657     78.13123     156.1384     312.1526      1.385     3.34     834.7083     55.02745     596.2501        16     1.233     0.700  61.29   0
       450    987.2529    370.9239 307.5170888  +6.5531809     465.1368     684.2889     489.5121     78.25515     156.1384     312.2147      1.413     3.74     836.2677     55.02745     88.89435         5     1.144     0.350  76.35   0
       451     58.9848    367.1874 307.9028320  +6.5238440     711.1676     924.7235     730.8887     78.13123     155.8278     312.1216      1.457     3.84     839.0383     55.02745     116.0748         8     0.984     0.570  64.36   0
       452    613.5210    363.4071 307.6725989  +6.5438870     3160.061     4187.662     4300.033      77.8828     155.6411     311.9663      1.413     3.41     835.3942     55.02745     492.7995        21     1.520     0.735  62.08   0
       453    333.6316    366.7172 307.7887595  +6.5332050     1117.927      1494.78     1580.082     78.25515     155.9521     312.0595      1.506     3.79     833.9627     55.02745     209.3276         9     1.105     0.593  60.37   0
       454     21.6260    364.0746 307.9184547  +6.5238801     1261.014     1678.801     1019.931      77.8828     156.0763     312.1526      1.461     3.74     839.2441     55.02745     178.9714        14     1.217     0.778  66.03   0
       455    144.4824    362.1124 307.8674866  +6.5287954     565.8004     900.3861     1044.488     78.00711     156.3244     312.2457      1.947     3.91     837.9669     55.02745     102.0899         6     1.314     0.333  48.44   0
       456    698.1469    356.7749 307.6376636  +6.5494362     90170.59     120738.9     124073.8     77.75829     156.2004     312.0905      1.404     3.41     836.2468     55.02745     16014.17        65     1.434     0.928  61.98   0
       457    856.2626    358.0992 307.5719328  +6.5541356     1315.181     1782.643     1881.248     78.00711     156.2004     312.2457      1.390     3.29      837.425     55.02745     220.7115        10     1.118     0.562  56.31   0
       458     77.3046    356.7760 307.8955706  +6.5287542     1567.284     2005.666     2052.652     78.37887       155.89     312.0595      1.453     3.81     838.7437     55.02745     230.1294        13     1.150     0.740  52.53   0
       459     63.8278    355.4582 307.9012129  +6.5288478     599.8991     828.7997     1340.213      77.8828     156.2004     312.0905      1.627     3.62     838.7455     55.02745     82.76514         5     1.027     0.368  85.05   0
       460    560.4944    353.5421 307.6949560  +6.5461966     3022.676       3924.3     4023.149     78.13123     156.1384     312.3698      1.327     3.25     834.3748     55.02745     512.7622        15     1.205     0.664  59.56   0
       461    939.5090    353.3417 307.5375068  +6.5588582     1013.656     1283.131     1272.521     78.13123     156.0763     312.3078      1.495     4.74      836.931     55.02745     133.0442        11     1.094     0.910  48.67   0
       462     97.7377    352.5806 307.8872232  +6.5311688     7077.045      9705.22     10233.38      77.8828     156.1384     312.0595      1.452     3.38     838.6561     55.02745     1218.523        28     1.418     0.834  59.43   0
       463    543.8831    349.7627 307.7019827  +6.5472044     8338.986     11082.29     11639.81     78.25514     156.0763     312.1216      1.386     3.52     833.9202     55.02745     1517.946        25     1.365     0.763  59.41   0
       464    272.8386    347.5829 307.8146525  +6.5390770     3027.785      4109.85     4541.791      77.8828     156.0142     311.9663      1.421     3.69     834.0381     55.02745      534.324        16     1.342     0.652  59.20   0
       465    406.7090    344.9739 307.7591277  +6.5446157      29470.9     39966.64     41119.85     78.37887       155.89     312.0284      1.409     3.35     833.4011     55.02745     4792.511        42     1.415     0.897  58.47   0
       466    585.1007    344.0595 307.6850497  +6.5509293     713.2236      1070.13     1267.378     78.00711     156.0763     312.3078      1.402     4.57      834.049     55.02745     128.2428         9     1.249     0.475  58.35   0
       467    673.6384    343.4002 307.6482902  +6.5541436     581.9576     792.9868     214.1313     77.25822     155.9521     311.9353      1.400     4.60     835.0768     55.02745     91.43805         6     1.040     0.579  56.38   0
       468    514.3351    343.5955 307.7144632  +6.5487674     1511.677     2060.711     2507.835     77.50866     155.8278     311.9663      1.461     3.63     833.5155     55.02745     263.6691        12     1.151     0.670  69.25   0
       469    386.7858    343.2384 307.7674621  +6.5446685     1323.098     1806.284     3120.851      77.8828     155.9521     311.9042      2.527     4.36     833.2384     55.02745     211.6354        12     1.383     0.579  67.71   2
       470    486.0480    340.3263 307.7263234  +6.5491757     1374.666     1885.969     1866.843     78.25514     156.2004     312.2147      1.416     3.19     833.2457     55.02745     248.3238        11     1.115     0.608  69.95   0
       471    801.4327    337.2458 307.5954041  +6.5609262     965.7128     1279.684     916.3124     78.00711     156.1384     312.0905      1.465     3.72     835.8829     55.02745     147.6739        11     1.129     0.679  74.51   0
       472    637.3175    336.8653 307.6635966  +6.5556347     670.2625     780.8476     974.9619     78.37887     156.3864     312.2457      1.264     4.16     834.2325     55.02745     105.5441         7     0.890     0.555  55.66   0
       473    495.8092    335.3195 307.7224352  +6.5515675       9850.5     13219.86     13201.75      77.8828     155.7656     312.0595      1.394     3.54     832.9084     55.02745     1705.404        27     1.349     0.814  59.61   0
       474    920.2049    333.7499 307.5461768  +6.5663067      1007.08      1309.95       960.35     77.63357     155.9521      311.811      1.342     4.64     836.0249     55.02745     144.6152        10     1.263     0.528  64.75   0
       475    764.9494    333.9361 307.6106708  +6.5610820     3520.417     4821.568     4866.042     78.25515     156.0763     312.2147      1.452     3.67     835.6468     55.02745     603.4226        19     1.269     0.772  57.68   0
       476    712.3918    333.5424 307.6325185  +6.5595000     829.7603     1031.298     1225.888     77.63358     156.0142     311.9353      1.143     3.29     835.1804     55.02745     156.5112         7     0.869     0.599  68.89   0
       477    322.1683    332.0260 307.7946797  +6.5471438     1169.642      1560.29     1018.373     77.75829       155.89     312.0284      1.352     4.02     833.0889     55.02745     224.1215        10     1.206     0.498  61.86   0
       478    258.3464    326.2959 307.8213840  +6.5473811     718.3568     995.6761     559.9822     78.13123     156.1384     312.4319      1.285     4.31     834.2436     55.02745     110.6968         7     1.188     0.446  51.01   0
       479    157.9117    326.0262 307.8631150  +6.5441405     1316.508     1699.072     1883.374     78.37887       155.89     312.0595      1.416     4.12     837.4882     55.02745     195.3311        12     1.228     0.612  68.26   0
       480    434.5596    325.6609 307.7482021  +6.5535159     555.8201     740.2784     618.6525     78.25515     156.1384     312.2768      1.213     4.07     832.4028     55.02745     84.04901         5     0.969     0.488  83.86   0
       481    605.2098    324.5596 307.6773450  +6.5596477     604.7878     693.7362      242.582     77.63357     155.9521     311.9042      1.144     3.07      832.967     55.02745     114.4403         6     0.966     0.449  56.76   0
       482    241.5402    320.2953 307.8285661  +6.5492975     2482.917     3367.277     3424.906     78.13123     156.1384     312.2768      1.467     3.49     834.6228     55.02745     410.1655        18     1.350     0.736  61.59   0
       483    385.6884    319.5506 307.7687085  +6.5544106     8700.146     11763.42     12300.59     78.25515     155.9521     312.2768      1.433     3.47     832.3082     55.02745     1479.895        27     1.414     0.800  58.57   0
       484    739.4656    319.2715 307.6217455  +6.5662902     1053.882     1585.867     1542.022     78.25515     156.2004     312.2457      1.585     3.03     834.6286     55.02745     208.0023         9     1.015     0.587  63.26   0
       485    673.8312    319.5381 307.6490041  +6.5640007     544.3666     566.4554     481.7484     78.00711     156.2004     312.1216      1.129     3.50     833.6902     55.02745     131.4966         5     0.980     0.361  83.68   0
       486    753.6193    315.2871 307.6159979  +6.5684048      61155.8     81760.48     84129.09     78.00711       155.89     312.0595      1.403     3.33     834.4092     55.02745     10720.68        59     1.434     0.928  61.72   0
       487    425.2138    314.9810 307.7524409  +6.5576135     2651.435      3548.78     3384.312     78.00711       155.89     312.0905      1.378     3.44     831.8257     55.02745     460.4745        16     1.265     0.699  64.34   0
       488    988.2123    312.0783 307.5186420  +6.5775057     1685.142     2701.187     2486.745      77.8828     155.8278     312.0284      1.608     4.11     833.3317     55.02745     269.9493        20     1.546     0.816  72.73   0
       489    571.4453    312.2660 307.6917815  +6.5636002     1385.766     1826.237     1766.158     78.25515     156.0763     312.2147      1.531     4.22     831.6548     55.02745     237.4083        16     1.477     0.737  70.64   0
       490    929.4318    311.3765 307.5430861  +6.5758487     2510.284     3324.366     3359.897     77.63358     156.0142     311.9974      1.409     3.41     834.4487     55.02745     384.0449        16     1.217     0.736  63.72   0
       491    462.3229    311.1089 307.7371537  +6.5604475     1237.119     1602.009     1791.102     78.00711     156.3864     312.1837      1.345     3.33     831.3977     55.02745      208.639        12     1.148     0.671  57.21   0
       492    411.5620    310.4607 307.7582631  +6.5590249     2334.749     3243.964      3478.17     78.25515     156.2004     312.1837      1.458     3.95     831.6499     55.02745     381.4604        14     1.238     0.676  57.97   0
       493    291.6038    310.2825 307.8081031  +6.5551007     723.9934     869.1699     1110.278     77.75829     155.7656     311.9042      1.368     4.69      833.141     55.02745     131.1659         8     1.241     0.504  55.92   0
       494    832.9591    304.8029 307.5833845  +6.5753650     1252.352     1879.087     1785.461     77.50866     155.8278     311.9353      1.548     4.24      834.114     55.02745     192.5078        14     1.428     0.668  52.47   0
       495    461.8843    305.4873 307.7375233  +6.5627536     876.1164     992.0849     745.5493     78.00711     156.3244     312.2457      1.333     4.40     831.0195     55.02745     153.2466         9     1.118     0.526  61.58   0
       496    442.1391    301.9739 307.7458434  +6.5635466     1272.134     1629.879     2004.913      77.8828     156.1384     312.0905      1.456     3.64     830.9857     55.02745     218.2839        12     1.212     0.657  61.28   0
       497    188.1581    301.8762 307.8513578  +6.5551196      2638.41     3410.301     3668.047     78.13123     156.1384     312.2147      1.371     3.26     836.2658     55.02745     438.7924        16     1.156     0.775  58.94   0
       498    752.0793    299.7873 307.6171530  +6.5747523     6930.912     9343.931     9654.055      77.8828     155.8278     312.0284      1.399     3.46     833.4374     55.02745     1228.752        22     1.299     0.783  62.29   0
       499    223.8484    300.3740 307.8365814  +6.5569309     923.0164     1205.153     1347.671      77.8828     156.2004     312.0905      1.443     3.55     834.7656     55.02745     173.0262        10     1.201     0.527  64.35   0
       500    768.5222    297.9052 307.6103843  +6.5760749     2988.454     3821.415     4144.308     78.00711     156.3244     312.2147      1.358     3.33     833.3763     55.02745      437.543        20     1.354     0.767  65.26   0
       501     84.4468    299.6244 307.8945166  +6.5525852     1108.945     1508.026     1988.552      77.8828     156.1384     312.0595      1.461     2.81     838.0236     55.02745     206.1039         9     0.931     0.650  58.85   0
       502    341.9961    299.1664 307.7875399  +6.5613696     722.2119     1098.807      708.887     77.50866     156.0142     311.9663      1.544     5.11     832.1302     55.02745     103.0544         9     0.968     0.762 -11.40   0
       503     71.6042    293.5083 307.9000564  +6.5546808     1483.848     2104.189      2027.71      77.8828     155.8278     311.9663      1.397     3.57     838.1332     55.02745     266.7546        12     1.261     0.596  53.65   0
       504    357.9210    292.8226 307.7811360  +6.5645191     2009.438     3675.457     4139.925      77.8828     155.8278     312.1526      1.954     5.66     831.6839     55.02745     312.6954        22     1.541     1.024  14.08   0
       505   1006.6774    288.6468 307.5117476  +6.5877901     6319.851     8747.555     9058.285     78.13123     156.2004     312.1837      1.506     3.51     831.9809     55.02745     915.3085        24     1.352     0.861  63.27   0
       506    646.5508    290.1121 307.6613169  +6.5752421     457.3206     476.5379     548.7045     78.25514     156.0142     312.2768      1.214     3.68     831.3217     55.02745     97.77277         6     1.145     0.341  40.67   0
       507    484.5778    288.6945 307.7286555  +6.5704412     2467.977     3064.932     3113.605     78.25515     155.9521     312.0284      1.385     3.37     829.8059     55.02745     426.1982        14     1.177     0.697  60.12   0
       508    255.6279    285.5544 307.8238747  +6.5641088     610.0987     855.6523      1596.57     77.75829     156.2004     312.0905      1.308     4.06     833.7853     55.02745     114.2537         7     1.095     0.430  60.72   0
       509    247.2249    284.4286 307.8274032  +6.5642932     6713.247     8999.969     9712.126     77.75829     155.9521     312.0595      1.412     3.35      833.996     55.02745     1055.065        24     1.335     0.798  59.33   0
       510    915.0287    282.8320 307.5500175  +6.5871554     642.0873      975.616      1379.23     77.75829       155.89     311.9663      1.578     3.78      832.788     55.02745     89.29468         5     0.805     0.509  59.04   0
       511    811.6508    282.9160 307.5929644  +6.5836937     626.0513      809.693     1136.975     78.25515     156.0763     312.2768      1.353     2.63      832.871     55.02745     133.4676         5     0.749     0.417  68.16   0
       512    937.8782    278.7887 307.5406585  +6.5895816     558.1519     763.7947     877.4813      77.8828     155.7656     312.0595      1.493     5.09     832.4406     55.02745     97.35406         6     1.062     0.691  26.61   0
       513    766.3730    277.4905 307.6119559  +6.5844313     868.0627     1337.906     1108.926     78.37887       155.89     312.0595      1.656     5.12      832.517     55.02745     114.2988         9     1.137     0.651  48.07   0
       514    119.1359    278.1945 307.8808233  +6.5625906     564.9778     751.6748     656.6267     77.63357       155.89     311.9663      1.458     3.89     837.4459     55.02745     80.53394         6     0.757     0.572  37.10   0
       515    381.4265    275.2769 307.7719565  +6.5725454     1923.281     2613.365     2649.785     78.13123     156.0763     312.1526      1.452     3.14     830.8696     55.02745     328.5073        16     1.326     0.675  61.00   0
       516    224.0389    277.0434 307.8372822  +6.5665683      656.913     675.4857     455.8928     78.00711     156.1384     312.0595      1.326     4.13     834.5504     55.02745     94.24341         7     0.945     0.516  45.64   0
       517    968.4730    273.8915 307.5281098  +6.5926166     1147.275      1832.33     2038.297     78.25514     156.2625     312.2147      1.811     3.46     831.9529     55.02745     193.1775        12     1.213     0.675  59.79   0
       518    151.0642    271.1075 307.8677966  +6.5665825     2088.993     2624.405     2227.785     78.25515     156.3244     312.2457      1.354     3.28     837.0162     55.02745     310.5513        14     1.147     0.701  65.17   0
       519    303.5546    271.0382 307.8044492  +6.5716997     1243.788     1524.872     1141.961     78.00711     156.0763     312.0905      1.229     3.47     832.6188     55.02745     210.5165         9     1.035     0.590  56.38   0
       520    904.5356    265.5779 307.5549498  +6.5939306     1940.366     2708.844     2506.486      77.8828     156.1384     312.0595      1.519     3.56     832.1851     55.02745     332.2424        16     1.276     0.765  60.46   0
       521    560.7005    266.4038 307.6977732  +6.5821756     2430.852     3479.995     3746.748     78.00711       155.89      311.842      1.454     3.85     829.4542     55.02745     418.7007        17     1.392     0.653  54.47   0
       522    724.4148    264.0445 307.6298351  +6.5885894     5787.914     7620.307     7562.108     77.63357     155.9521     311.9663      1.372     3.21     831.8109     55.02745     939.2009        21     1.314     0.766  60.96   0
       523    665.2637    263.9949 307.6544118  +6.5866455     2573.553     3412.798     3896.973     77.63357     155.9521     311.9974      1.363     3.43     830.7512     55.02745     447.6586        14     1.236     0.637  59.19   0
       524    962.1893    263.7163 307.5310581  +6.5966091     827.4089     1064.172     1072.587      77.8828       155.89     312.0284      1.272     4.71     831.6553     55.02745     136.6902         8     1.109     0.590  46.75   0
       525    380.0338    258.5577 307.7730931  +6.5794008     826.4421     1278.079     1528.644     78.00711     156.1384     311.9974      1.480     2.95     830.5696     55.02745     163.7767         8     1.088     0.470  64.85   0
       526    920.2068    256.0621 307.5487548  +6.5983782     1097.741     1504.404     1494.457     77.63357     155.9521     311.9663      1.517     3.83     831.6548     55.02745     165.5937        11     1.228     0.690  53.04   0
       527    223.9757    249.5399 307.8382278  +6.5779198     2776.101     3938.431     3736.871      77.8828     156.1384     312.0595      1.454     3.27     834.5407     55.02745     481.8323        19     1.341     0.763  54.03   0
       528    866.5787    248.1961 307.5712971  +6.5998482     1888.268     2530.535     2752.273      77.8828     155.8278     311.9663      1.384     3.18     831.8737     55.02745     353.6495        16     1.269     0.716  63.06   0
       529    756.9689    247.8305 307.6168491  +6.5963635     1796.029     2548.867     2848.134     77.75829       155.89     311.9353      1.434     3.96     831.7922     55.02745     272.7292        11     1.181     0.614  66.91   0
       530    872.9593    241.9348 307.5688540  +6.6026446     494.1963     833.0269     1213.065     78.25515     156.0763     312.2768      1.668     3.69      831.601     55.02745     76.66345         5     1.480     0.264  67.95   0
       531    245.4835    243.1359 307.8295066  +6.5812811     672.9468     796.7744     477.0807     78.37887     156.2625     312.2147      1.220     3.10     834.0428     55.02745     124.2018         6     0.784     0.494  83.11   0
       532    457.8430    239.2831 307.7414101  +6.5899490     26709.25      36088.4     37580.01     78.25515     156.1384     312.1216      1.410     3.35     828.8931     55.02745      4519.24        42     1.403     0.904  58.89   0
       533    319.1173    240.8379 307.7989924  +6.5846856     805.6322     921.5308     1064.913     78.25514     156.0763     312.1526      1.375     4.69     831.9694     55.02745     126.1564        10     1.127     0.628  67.90   0
       534    783.7789    238.3379 307.6060259  +6.6011719     14795.49     20168.46     21221.52      77.8828     156.1384     312.0595      1.422     3.71     831.7404     55.02745     2546.008        32     1.384     0.842  61.52   2
       535    787.6314    236.7843 307.6044769  +6.6019411     998.3347      1447.07     2261.504      77.8828       155.89     312.0905      1.568     4.29     831.7452     55.02745     133.4804         7     0.973     0.538  45.16   3
       536    722.5262    234.4971 307.6316025  +6.6007245      962.874     1351.824     1508.805      77.8828     156.3244     312.1837      1.631     4.84     830.9749     55.02745     130.1936        10     1.213     0.635  65.63   0
       537    463.6020    233.8898 307.7391973  +6.5923672     1745.576     2665.189     3158.408     77.63357     155.8278     311.9353      1.506     3.33     828.7055     55.02745      283.507        16     1.245     0.715  58.12   0
       538    146.0351    232.8865 307.8711644  +6.5821924     2741.846     3686.096     4169.577     78.25515     156.0142     312.1837      1.413     3.03     836.3879     55.02745      501.265        18     1.294     0.755  65.30   0
       539    172.7472    231.1009 307.8601268  +6.5838215     814.5405     1230.961     1170.185     78.13123     156.1384     312.4008      1.485     4.79     835.7097     55.02745      132.507         9     1.241     0.524  62.65   0
       540    120.9839    231.8345 307.8816069  +6.5817899     1136.214     1541.734     1803.864      77.8828       155.89     312.0284      1.552     4.31     836.9712     55.02745     193.1199        12     1.188     0.748  50.02   0
       541    775.4507    230.7332 307.6097389  +6.6040349     512.6238     918.1086     1490.965     78.13123     156.0142     312.1837      1.303     3.47     831.5211     55.02745      92.2171         5     1.081     0.322  68.41   2
       542    920.3367    228.6838 307.5496097  +6.6096850     1621.623     2298.942     2830.779     78.37887     156.2004     312.1526      1.590     3.98     830.5521     55.02745     235.0742        16     1.284     0.779  62.88   0
       543    581.9009    224.9071 307.6903476  +6.6000111     5346.888     7034.882     7546.543     78.25515     156.6959     312.1216      1.379     3.46     828.8669     55.02745     929.2744        23     1.300     0.806  63.54   0
       544    544.5074    225.1205 307.7058763  +6.5986795     2453.875      3151.14     3240.315     78.00711     156.3864     312.2457      1.307     2.95       828.29     55.02745     421.8774        16     1.175     0.707  57.23   0
       545    302.1168    225.7390 307.8065596  +6.5903517     1221.974     1525.463     978.4587     78.37887     156.1384     312.2147      1.406     4.25     832.5054     55.02745      200.053        12     1.256     0.625  53.48   0
       546    386.4051    224.3380 307.7715883  +6.5937394     1785.108     2598.629     2751.848     77.63358       155.89     311.9353      1.514     3.42     829.7502     55.02745     304.1099        14     1.207     0.710  62.20   0
       547    942.7700    221.9505 307.5405125  +6.6132078      2911.88     4112.719     4059.071      77.8828     156.2004     312.0905      1.481     4.07     830.2229     55.02745     409.0078        17     1.332     0.733  64.26   0
       548    888.9537    221.4353 307.5628894  +6.6116374     12556.64     17067.42     17400.01      77.8828     156.1384     312.0595      1.436     3.80     830.7221     55.02745     2044.035        29     1.412     0.830  65.53   0
       549    686.9775    219.2711 307.6468787  +6.6058296      3229.51     4322.251     4754.137      77.8828     155.9521     312.1837      1.375     3.53     829.6647     55.02745     557.8253        17     1.250     0.703  58.00   2
       550    208.4989    222.2942 307.8455684  +6.5886505     796.6351     913.1583     1181.927     78.25515     156.6341     312.0284      1.197     3.22     834.8578     55.02745     143.3923         8     0.992     0.598  52.59   0
       551    564.0662    221.6636 307.6978654  +6.6007571     1152.945     1339.265     1286.702     78.25515     156.1384     312.1837      1.343     3.33     828.5377     55.02745     187.6431        10     1.021     0.624  62.07   0
       552    316.7027    221.9982 307.8006247  +6.5923823      1075.48     1553.454     1751.031     77.75829       155.89     311.8731      1.387     3.40     831.9193     55.02745     192.8594         9     0.978     0.605  63.96   0
       553     15.0002    218.4381 307.9260851  +6.5837774     28897.93     39814.43     41362.95     77.25822     155.9521     311.9974      1.430     3.39     839.0802     55.02745     4606.622        42     1.424     0.939  58.45   0
       554    975.6018    219.2178 307.5269619  +6.6154233     10487.75     14649.33     15356.05      77.8828     155.7034     311.9042      1.475     3.34     830.0872     55.02745      1595.49        30     1.407     0.895  62.32   0
       555    261.3529    219.3875 307.8237073  +6.5916141     1339.131     1699.285     1713.899     77.63358     155.9521     311.9353      1.386     3.43     833.7173     55.02745     208.1173        11     1.076     0.662  57.17   0
       556    495.5714    214.3610 307.7265663  +6.6014931     2259.851     3127.312     3417.822     77.75829       155.89     312.0595      1.413     3.24     828.1578     55.02745     426.9999        16     1.299     0.659  62.20   0
       557    879.8650    210.0849 307.5670426  +6.6160218     2161.094     2987.899     3351.394     78.37887     156.3244     312.2457      1.381     3.38     830.6142     55.02745     394.8625        15     1.353     0.622  73.58   0
       558    827.4380    210.8341 307.5888005  +6.6139743     2324.238     2821.123     2583.583     78.00711     155.9521     311.9663      1.299     3.32      830.897     55.02745     359.0563        16     1.245     0.703  65.80   0
       559    413.5237    211.6697 307.7607442  +6.5998724     462.6082     602.2833     320.0279     78.37887     156.2625     312.1837      1.446     3.83     829.0897     55.02745     106.2405         5     0.949     0.499  88.88   0
       560    507.5398    210.3098 307.7217289  +6.6035637     2977.743     3905.871     4140.407     78.13123     156.2004     312.2457      1.315     3.30     828.1097     55.02745     557.5793        16     1.228     0.685  58.13   0
       561    739.1260    207.4263 307.6256061  +6.6124509     46071.66     61204.37     63057.88      77.8828     156.0763     312.1526      1.398     3.50     830.4625     55.02745     7597.228        48     1.425     0.879  63.06   0
       562    342.2082    207.0191 307.7905285  +6.5994160     6585.884     12373.83     12997.06     78.00711     155.8278     312.0284      2.008     6.60     830.7894     55.02745     864.2205        40     1.942     1.041  89.13   0
       563    973.0540    206.1508 307.5284540  +6.6207333     2926.209     4241.715     4859.742     78.25515     156.1384     312.2457      1.544     3.82     829.7142     55.02745     427.0859        19     1.322     0.837  50.00   0
       564   1011.3671    204.9399 307.5125754  +6.6225017     1781.918     2446.012     2722.988     78.00711     156.2004     312.1216      1.506     3.52     829.3485     55.02745     275.4788        15     1.272     0.709  57.59   0
       565    907.0104    204.5015 307.5559494  +6.6192264     8542.764     11630.62        11873     78.00711     155.7656     311.9974      1.458     3.76     830.2723     55.02745     1387.022        27     1.401     0.835  58.75   0
       566    450.4904    203.7198 307.7456510  +6.6043853     5780.769     7689.259     7976.903     78.00711     156.3244     312.2457      1.401     3.22      828.507     55.02745     944.6156        25     1.354     0.782  58.73   0
       567    316.6775    203.2705 307.8012607  +6.6001124     535.2547     716.2939     505.1972      78.5024     156.3864     312.1837      1.131     3.60     831.9658     55.02745     112.7648         6     0.869     0.510  47.98   0
       568    225.2042    200.7990 307.8393468  +6.5980814     738.3331     1071.906     1059.342     77.63357     155.7034     311.9353      1.542     4.40     834.5311     55.02745     125.5783         8     1.399     0.394  66.88   0
       569    107.7581    195.2328 307.8883265  +6.5964573     5407.096     7410.334     7885.482     78.00711     156.1384     312.0284      1.474     3.40     836.9242     55.02745      868.214        27     1.395     0.872  57.46   0
       570    278.1544    191.8452 307.8176473  +6.6035442     39412.86     53428.15      54825.5     78.25514     156.1384     312.1837      1.412     3.36     833.6541     55.02745     6710.169        47     1.425     0.920  60.37   0
       571    927.8665    194.1500 307.5476275  +6.6241908     917.9366     1100.802     1195.128     78.13123     156.0142     312.1526      1.334     3.96     829.9731     55.02745     147.6154         8     0.934     0.733  24.31   0
       572    604.4853    191.7121 307.6820700  +6.6144654     573.0975     1462.655     1586.903     78.00711     156.3244     312.2768      2.400     7.14     828.3855     55.02745     136.3134        11     2.053     0.695 -86.75   0
       573    253.4233    192.8493 307.8278886  +6.6023047     7425.816     10259.59     10389.55      77.8828     156.2004     312.0905      1.435     3.26     834.0648     55.02745     1153.933        26     1.343     0.846  59.34   0
       574    707.7556    191.3981 307.6391731  +6.6180261     1112.606      1309.25     1908.081     77.63358     155.7034      311.842      1.351     4.16     829.5007     55.02745      176.233         9     1.063     0.528  60.37   0
       575    402.2234    187.2535 307.7662539  +6.6095753     58075.34     78425.91     80631.32     77.75829     156.1384     311.9974      1.392     3.16     829.2116     55.02745     9733.486        55     1.425     0.927  60.53   0
       576    158.1682    188.6342 307.8676042  +6.6008651     4770.188     6483.762     6465.929      77.8828       155.89     311.9353      1.440     3.41     835.4673     55.02745     751.0624        23     1.324     0.828  64.31   0
       577    419.4278    187.7678 307.7590888  +6.6099360     1630.762     2079.948     2691.516     77.75829       155.89     311.9974      1.406     3.53     828.9284     55.02745     275.5002        12     1.138     0.641  53.60   0
       578    741.5493    183.2943 307.6254018  +6.6224935     37884.09      50815.1     52437.64     78.13123     156.0142     312.4008      1.390     3.36     829.5912     55.02745      6594.77        49     1.436     0.902  65.79   0
       579    306.2815    185.0354 307.8061890  +6.6072933     21104.18     28605.54     29290.95     78.25515     156.1384     312.1526      1.408     3.16     832.6218     55.02745     3631.065        35     1.383     0.871  58.50   0
       580    689.5389    185.1136 307.6469511  +6.6200155     1095.701     1790.637     1522.266     78.37887     156.2625     312.2457      1.561     3.77      829.173     55.02745     189.4923        12     1.346     0.550  57.82   0
       581    313.7469    184.8019 307.8030952  +6.6076387     2407.191     3796.036     4580.749     77.63357       155.89     311.7799      1.800     5.30     832.1768     55.02745      374.645        21     1.551     0.862 -87.29   0
       582    789.9850    183.6478 307.6052654  +6.6239550     1292.386     1574.403     1067.426     77.63357     156.0763     311.9353      1.385     4.20     829.7759     55.02745     243.2167        10     1.117     0.583  66.98   0
       583     29.0636    183.8146 307.9214024  +6.5985402     612.2169     918.4805     968.0625     77.75829     156.0142     312.0595      1.461     3.20     839.4681     55.02745     99.28357         5     0.779     0.503  61.50   0
       584     58.2953    180.9220 307.9093549  +6.6007117     10400.78     14464.08     14717.59     78.00711     156.3864     312.2147      1.450     3.23     838.4855     55.02745     1667.547        33     1.421     0.879  59.59   0
       585    565.4222    181.7419 307.6986321  +6.6172825     534.2735     845.1974     1138.948      77.8828     156.1384     311.9974      1.772     4.63     827.8961     55.02745     125.7637         6     1.322     0.461  50.77   0
       586     92.0094    178.7725 307.8954203  +6.6027258     1744.409     2524.128     2338.069      77.8828     155.9521     312.0595      1.543     3.68     837.2487     55.02745     244.7991        18     1.281     0.844  57.57   0
       587    999.9882    177.5554 307.5182116  +6.6334300     1077.992     1537.942     2009.702     77.75829     156.0142     311.9042      1.627     5.09      828.332     55.02745     164.3389        10     1.239     0.600  73.10   0
       588    967.3457    176.6119 307.5318060  +6.6327386      613.534     572.5944      558.716     77.63358     156.0763     311.9042      1.210     4.24     828.9919     55.02745      118.326         5     1.121     0.458 -82.86   0
       589   1003.0911    170.0838 307.5171702  +6.6366171      446.191     482.5127         1071     78.00711     156.4484     312.2768      1.403     3.94      827.929     55.02745     89.93561         5     1.050     0.423  44.81   0
       590    575.1162    167.6878 307.6950726  +6.6234065      916.834     1245.584     1343.516     78.00711     156.3244     312.2147      1.407     4.30     827.6969     55.02745     163.0795         8     1.151     0.466  65.13   0
       591   1000.9285    164.0157 307.5182701  +6.6390506     2331.162     3520.808     3689.517     77.75829     156.0763     312.0905      1.527     3.59     827.7274     55.02745     355.8287        18     1.360     0.761  56.90   0
       592    583.8961    161.7136 307.6916237  +6.6261648     1136.196     1459.921     1751.359     78.25515     156.5103     312.2147      1.307     3.86      827.601     55.02745     193.2029         9     1.077     0.553  61.79   0
       593    269.8055    161.5567 307.8221281  +6.6157689     613.3918     1000.662      1557.96     77.63357     155.8278     311.8731      1.413     4.03     834.0875     55.02745     113.3173         6     1.030     0.451  60.56   0
       594     20.9370    162.1110 307.9255056  +6.6072277     539.6194     657.5461     860.5428     78.25515     156.2625     312.2147      1.149     3.65     840.2515     55.02745     104.8494         5     0.642     0.595  83.09   0
       595    592.3505    159.8993 307.6881714  +6.6271948     2157.743     2874.414     3071.144     78.25515     156.1384     312.3698      1.396     3.54     827.5665     55.02745      392.478        14     1.270     0.619  58.04   0
       596    277.0552    158.0793 307.8192323  +6.6174463     35468.82     48029.18     50143.31     78.37887     156.1384     312.2147      1.418     3.23     834.0248     55.02745     6060.872        48     1.419     0.943  59.12   0
       597     22.2824    156.7515 307.9251262  +6.6094851     5190.682     7085.084     7501.186     78.25515     156.1384     312.2147      1.438     3.29     840.1743     55.02745     760.4352        21     1.313     0.780  65.54   0
       598    186.0563    155.9340 307.8571115  +6.6152951     1172.401     1433.721     1288.531     78.37887     156.0763     312.1837      1.306     3.52      834.809     55.02745     208.6208         9     1.101     0.539  63.54   0
       599    708.7042    154.4528 307.6400082  +6.6333093      9543.15     12611.95     13251.34     78.13123     156.1384     312.4319      1.408     3.55     828.4882     55.02745     1664.148        28     1.365     0.819  61.44   0
       600    262.7529    153.1353 307.8253398  +6.6190101     940.7267     1193.117     827.4924     78.13123     156.0763     312.2457      1.412     3.51     834.1702     55.02745     149.1583         9     1.091     0.542  68.15   0
       601    119.5074    151.9396 307.8848941  +6.6147213     5625.126     7750.895     7706.976     78.13123     156.0763     312.2768      1.417     3.17      835.944     55.02745     927.9487        23     1.337     0.827  59.19   0
       602    458.6591    149.1503 307.7440773  +6.6271842     1431.117      1924.53     1245.533     78.25515     156.1384     312.2457      1.381     3.92     827.7963     55.02745     236.9813        14     1.367     0.659  59.34   0
       603    647.4028    148.6293 307.6656727  +6.6336770     943.3678     1244.513     1022.534     77.75829     155.9521     311.9974      1.472     3.95     827.8865     55.02745     151.7104        11     1.314     0.683  79.52   0
       604    336.3186    159.8574 307.7945503  +6.6186885     1150.185     1733.141     1583.495     78.37887     156.1384     312.2147      1.363     4.29     830.8541     55.02745     231.7178        12     1.444     0.522  62.85   0
       605    390.0810    147.7873 307.7726160  +6.6254628     4460.216     6572.665     7277.634      77.8828     155.8278     312.0284      1.530     3.64     829.3555     55.02745     753.2585        24     1.486     0.860  64.20   0
       606    354.6301    146.8141 307.7873778  +6.6246832     3626.818     4793.408     4612.067      77.8828       155.89     312.1216      1.369     3.34     830.2045     55.02745     652.2521        20     1.332     0.728  58.97   0
       607    108.9141    146.7553 307.8894688  +6.6165075      2139.91     2973.995     2769.846     78.25514     156.0142     312.1526      1.370     3.60     836.0442     55.02745     325.0404        15     1.232     0.706  69.81   0
       608    745.0261    145.0342 307.6252297  +6.6384034     620.6564     752.3029      600.102     77.63357     155.9521     311.9663      1.381     3.47     828.1223     55.02745     102.9424         7     0.884     0.522  45.00   0
       609    670.6368    144.6252 307.6561523  +6.6361020     996.9794     1349.578     1017.925      77.8828     155.9521     311.9353      1.475     4.19     828.0919     55.02745     161.2059        11     1.076     0.732  62.98   0
       610   1001.3722    140.6510 307.5188608  +6.6487108     1737.869     2459.253     2550.225      77.8828     156.2625     312.0905      1.546     3.68     826.4938     55.02745     243.1213        17     1.249     0.810  60.16   0
       611    206.4275    135.6583 307.8493259  +6.6243450     6525.398     8671.129     9127.079      77.8828     156.2004     312.0905      1.407     3.24     834.6168     55.02745     1004.552        25     1.333     0.815  64.84   0
       612     89.1272    135.5714 307.8980640  +6.6204629     2528.713     3651.721       4118.5     78.13123     156.1384     312.1526      1.525     3.29     836.3005     55.02745     388.6222        17     1.287     0.736  54.95   0
       613    668.2643    134.3298 307.6574808  +6.6402732     7222.753      9725.49      9678.86     78.25515     156.2004     312.1837      1.365     3.28     827.6122     55.02745     1241.071        26     1.341     0.812  60.89   0
       614    816.3289    133.9935 307.5959699  +6.6453272     1142.759     1565.689     1468.611     77.75829     155.7656     312.0905      1.331     4.35     827.7747     55.02745     194.2119         8     1.182     0.457  68.87   0
       615    620.4174    131.5617 307.6774535  +6.6398260      11251.5     14708.34     15599.65      77.8828     156.0142     311.9353      1.413     3.42     826.9874     55.02745     1719.634        30     1.360     0.835  62.20   0
       616    254.8294    132.1662 307.8293326  +6.6274019     857.1758     1216.939     1159.842     77.75829       155.89     311.9663      1.454     4.27     834.2533     55.02745     169.6321         9     1.262     0.571  52.97   0
       617     19.0889    130.7481 307.9273242  +6.6201124     1010.108     1849.279     1713.243     78.25515     155.9521     312.2768      1.927     4.84     839.9783     55.02745     133.4442        14     1.315     0.772 -65.22   0
       618    558.5677    131.3538 307.7031591  +6.6378554     595.1961      804.449      1034.37     78.00711     156.1384     312.0905      1.370     4.28     826.7525     55.02745     123.4773         6     0.910     0.574  47.93   0
       619    572.8649    128.2542 307.6973219  +6.6396104     513.4797      775.332     1574.537     78.25515     156.0763     312.1526      2.205     4.45     826.6973     55.02745     77.86029         6     0.998     0.565 -65.61   0
       620    347.6170    127.4113 307.7909395  +6.6324591     4066.156     6264.624     6642.192     78.00711     155.8278     312.0905      1.675     3.79      831.247     55.02745     599.8987        30     1.465     1.104  87.16   0
       621    993.5823    126.1739 307.5225779  +6.6544293     917.6542     1411.253     1409.887      77.8828     155.9521     312.0905      1.639     3.31     825.8598     55.02745     139.6421        11     0.990     0.797  41.01   0
       622    529.2441    126.5626 307.7155027  +6.6388578     1993.566     2500.231     2450.208     78.00711     156.1384     312.0595      1.402     3.47     826.6923     55.02745     305.7426        14     1.263     0.663  53.43   0
       623    623.9907    123.0581 307.6762519  +6.6434552     61238.62     82504.73     84962.26     77.63357     156.0763     311.9042      1.397     3.37      826.767     55.02745     10540.14        59     1.434     0.928  63.24   0
       624    689.9701    123.5142 307.6488218  +6.6454591     539.1135     602.4167     152.4953     78.37887       155.89     312.0595      1.546     4.12     827.2628     55.02745     100.5633         6     1.274     0.381  70.73   0
       625    303.0035    116.9948 307.8098239  +6.6352717     4089.927     5566.554     5423.244     77.63357     155.8278     312.0284      1.441     3.43     833.3548     55.02745     722.9122        21     1.352     0.757  54.13   0
       626    498.3690    113.8107 307.7287565  +6.6430946     630.8176     994.0972     490.8408     77.75829       155.89     312.0595      1.691     4.17     826.5596     55.02745     112.9081         7     1.059     0.469  83.22   0
       627    702.9782    111.2501 307.6438249  +6.6509540     1039.852      1481.95     1397.422     77.75829     156.2004     312.0595      1.501     4.47     826.7319     55.02745     167.3849        11     1.385     0.677  55.09   0
       628    674.3300    110.3121 307.6557599  +6.6503896     1584.061     2175.638     2214.223     78.37887     156.3864     312.1837      1.456     4.36      826.691     55.02745     253.5499        13     1.373     0.661  67.68   0
       629    731.7785   1020.6116 307.6016292  +6.2765045     860.5443     1104.274     930.9756      77.8828     155.7034     278.5237      1.404     3.81     856.7242     55.02745      139.502         9     0.908     0.724  76.45  16
       630    688.4004    107.0923 307.6500206  +6.6521862     3658.744     4833.389     4500.743     77.75829     155.7034      311.842      1.368     3.29     826.5685     55.02745     613.3439        17     1.252     0.714  58.92   0
       631    566.2402    108.2516 307.7007410  +6.6476475     426.7725     563.9878     707.5014     78.25515     156.2004     312.1837      1.128     3.93     826.1597     55.02745     79.81317         5     0.900     0.490  45.29   0
       632     60.7117    105.8607 307.9108647  +6.6317776     559.2471     721.2679      286.518     78.25515     156.2625     312.2147      1.396     5.00     836.9677     55.02745     91.10333         7     1.061     0.667  74.97   0
       633    430.1380     98.1309 307.7576297  +6.6472958     4880.115      6474.25      6194.26     78.25514     156.1384     312.2147      1.349     3.07     827.7552     55.02745     854.1904        17     1.249     0.730  59.92   0
       634    884.6472     94.4338 307.5688968  +6.6639235     2261.219     3104.737     2794.407     78.00711     156.1384     312.1216      1.404     3.43     825.9785     55.02745     365.5117        17     1.344     0.740  75.49   0
       635    902.6546     93.3383 307.5614506  +6.6649726     4158.075     5639.978     5727.355     78.37887     156.0763     312.1526      1.429     3.60     825.9283     55.02745     640.1737        20     1.318     0.762  61.10   0
       636    582.7316     94.0010 307.6943634  +6.6540787     897.4105     1207.106     1346.997     77.63357     155.7034     311.9974      1.253     3.01     825.8281     55.02745     169.4382         9     0.971     0.591  40.61   0
       637    594.7321     91.9959 307.6894438  +6.6553055     2070.055     2729.145     2931.457     77.63357     155.7656     311.9663      1.374     3.46     825.7852     55.02745     341.6137        14     1.177     0.694  62.74   0
       638    240.6742     91.5600 307.8365713  +6.6436920      976.063     1386.016     1963.848     78.13123     156.1384     312.2147      1.437     4.47     834.2656     55.02745     186.2009         9     1.236     0.491  50.07   0
       639    614.7781     91.4050 307.6811341  +6.6562158     654.9367     707.9501      525.702      77.8828       155.89     311.9974      1.162     4.05     825.7791     55.02745     152.6579         5     0.951     0.493  54.81   0
       640    393.3977     89.8689 307.7731712  +6.6494825     2167.557     3056.315     2413.531     77.63357     155.7656     311.9974      1.361     3.11     829.6265     55.02745     376.5668        14     1.255     0.676  57.15   0
       641    141.2778     86.9395 307.8780243  +6.6422807     3774.964      5223.96     5336.896     78.37887     156.2004     312.1526      1.461     3.38     834.0613     55.02745     617.9459        23     1.458     0.808  59.12   0
       642     23.2124     84.8988 307.9271471  +6.6391767     14171.77     19866.84     21013.11     78.00711       155.89     311.9353      1.448     3.27     838.0121     55.02745     2310.204        37     1.470     0.914  60.70   0
       643    289.7460     85.3805 307.8163887  +6.6478801     1549.159     2139.951     2801.532     77.75829     156.1384     311.9974      1.392     3.67     833.6059     55.02745      261.118        12     1.212     0.600  60.14   0
       644    563.3445     84.4561 307.7027371  +6.6573742     704.7906     1110.176     745.4827      78.5024     156.1384     312.2147      1.415     4.13     825.6136     55.02745     121.7022         6     1.195     0.408  45.51   0
       645    550.4370     84.4010 307.7081022  +6.6569677     955.5507     1166.491     1049.917     77.38354     155.9521     311.9974      1.258     3.10     825.6342     55.02745     163.0267         8     0.902     0.651  44.85   0
       646    944.0921     83.2083 307.5445684  +6.6705274     689.2058      847.199     566.0974      77.8828     155.8278     311.9974      1.310     4.47     825.0892     55.02745     118.2581         7     1.067     0.533  64.91   0
       647    758.4897     83.5740 307.6216795  +6.6642221     886.3885     1323.493     2087.332     78.37888       155.89     312.0284      2.798     4.94     825.7672     55.02745     142.2874         9     1.160     0.595  61.10   0
       648    980.9890     82.7572 307.5292514  +6.6719357     500.8131     699.9339     572.8105     77.75829     155.9521     311.9042      1.453     3.26     824.1545     55.02745     94.50226         5     0.798     0.489  60.69   0
       649    825.0503     79.2016 307.5941671  +6.6682356     6756.521      9526.39     9971.681     77.63357     155.7656     311.7799      1.454     3.35     825.5777     55.02745     1058.378        31     1.402     0.914  62.99   0
       650    770.0640     79.5509 307.6170039  +6.6662671     3796.195     5139.107     5642.879     78.13123     156.0763     312.2457      1.454     3.73     825.6432     55.02745     620.5598        20     1.323     0.763  59.16   0
       651    415.1248     80.2300 307.7644652  +6.6541854     1229.625     1433.291     1085.832     78.13123     156.2004     312.1837      1.357     3.99     828.2239     55.02745     228.5532        14     1.316     0.678  61.59   0
       652    891.7571     80.0255 307.5664210  +6.6701072      747.804     945.6823     1178.403      77.8828     156.1384     312.0284      1.365     3.47      825.484     55.02745     151.5763         7     1.099     0.511  69.29   0
       653    915.6852     78.5780 307.5565261  +6.6714978     593.9766     865.5082     962.3242     78.13123     155.8278     312.0905      1.501     3.28     825.3483     55.02745     130.7449         5     1.096     0.285  69.75   0
       654    152.5196     83.5000 307.8734685  +6.6440761     711.0947     823.9577     940.9748     78.25515     156.6341     312.2147      1.025     2.85     833.9659     55.02745     142.8276         6     0.859     0.429  69.94   0
       655    532.3339     77.7227 307.7158469  +6.6591223     1361.896     1771.831     1751.793     78.37887     156.2004     312.1526      1.377     3.24     825.6415     55.02745     216.7515        13     1.191     0.650  62.98   0
       656     63.4715     76.6852 307.9106952  +6.6439135     3713.135     5030.738     5363.001     78.37887     156.3864     312.2147      1.460     3.25     835.3617     55.02745     556.6914        19     1.341     0.725  56.27   0
       657     47.9721     77.6042 307.9171042  +6.6430159     1125.308     1488.899     1614.934     77.75829     155.9521     312.0284      1.468     4.57     836.1181     55.02745     182.7184         9     1.120     0.546  58.40   0
       658    652.3479     76.7838 307.6660100  +6.6635003     691.4055     748.3175     916.8958     77.75829     156.2004     311.9042      1.567     3.95     825.4182     55.02745     104.1497         6     1.105     0.405  75.85   0
       659    424.7843     75.9722 307.7605937  +6.6562648     1253.104     1820.276     1826.591      77.8828     155.9521     312.0905      1.424     3.12     827.8275     55.02745     195.2288         9     1.048     0.539  65.79   0
       660    587.3010     73.1527 307.6931593  +6.6628371     1472.648     2070.149     1872.333     78.25515     156.0142     312.3698      1.394     3.72     825.2938     55.02745      249.566        13     1.237     0.626  66.37   0
       661      5.8415     72.1790 307.9347906  +6.6438464     2788.131     4268.664     4756.797      77.8828     155.9521     294.5197      1.606     3.47     837.3228     55.02745     439.7799        23     1.378     0.898  53.80  16
       662    258.3842     73.3222 307.8298225  +6.6518115     540.6654     850.3873     865.6066      77.8828       155.89     312.0595      1.722     3.47     833.6169     55.02745     92.71075         5     0.766     0.454  73.57   0
       663     78.3072     68.0754 307.9048195  +6.6479636     971.6933     1176.926     1173.501     78.13123     156.2625     312.1837      1.305     4.26     834.2808     55.02745     162.7926        10     1.146     0.600  80.91   0
       664    764.6906     66.8464 307.6196592  +6.6713333     2244.289     3004.068     3153.611     78.25515     156.0142     312.3078      1.414     3.50     825.2837     55.02745     359.6776        16     1.363     0.656  61.48   0
       665    405.3635     67.2761 307.7689535  +6.6592077     1207.033     1425.962     743.3247     78.13123     156.2004     312.2147      1.381     3.76     828.8615     55.02745     203.6357        11     1.106     0.669  55.16   0
       666    166.5088     67.5486 307.8681898  +6.6511280     581.2693     811.2654     862.4105     78.13123     155.9521     312.3388      1.442     3.82     833.6223     55.02745      89.4668         6     0.976     0.430  73.06   0
       667    102.2172     66.2109 307.8949474  +6.6495324     1036.285     1119.055     726.2927     78.00711     155.8278     312.0595      1.280     3.18      833.561     55.02745     153.6609        10     0.939     0.688  64.10   0
       668     91.2246     60.9852 307.8996898  +6.6513221     10661.74     15178.68     15183.12     78.00711     155.9521     312.1216      1.452     3.42     833.6081     55.02745     1681.717        31     1.419     0.903  64.10   0
       669    420.3971     60.6217 307.7629289  +6.6624554     3075.091     4085.847     3805.028      77.8828     155.8278     311.9353      1.378     3.12      827.982     55.02745     468.8226        17     1.333     0.674  62.10   0
       670    241.2429     60.4098 307.8373765  +6.6565699     718.6781     924.4727     1371.294     77.75829     155.9521     311.9353      1.450     3.93     833.4133     55.02745     125.1729         6     1.215     0.365  60.00   0
       671    257.9091     54.9761 307.8306332  +6.6593691     1636.927     2225.283     3312.903     78.25515     155.9521     312.0284      1.427     3.51      833.163     55.02745     280.8555        15     1.334     0.660  65.74   0
       672    663.5924     53.8943 307.6620996  +6.6733230     668.7236     956.2682      676.118      77.8828     155.8278     311.9974      1.364     3.99     824.6574     55.02745     135.7276         7     1.112     0.470  81.90   0
       673    634.1108     52.7649 307.6743877  +6.6728096     21610.69     28593.21     29553.57     78.37887     156.0763     312.1837      1.395     3.36     824.5923     55.02745     3854.625        36     1.365     0.857  63.43   0
       674    533.8870     48.8822 307.7161630  +6.6710797     6050.691      8174.62     8510.174     78.00711     156.3244     312.2457      1.367     3.39     825.1816     55.02745     1060.198        23     1.317     0.791  63.03   0
       675    252.0848     49.3262 307.8332421  +6.6615070     2176.811     3113.371     3912.122     78.37887     156.4484     312.2147      1.600     3.58       833.05     55.02745     316.9551        17     1.296     0.754  58.04   0
       676    362.6007   1019.0236 307.7549657  +6.2648882     1833.771     2852.185     3246.939      77.8828     155.8278     295.7345      1.743     4.06     856.8436     55.02745     253.2932        20     1.311     0.989  72.31  16
       677    620.6125     43.4560 307.6803068  +6.6762037     3457.144     5955.554     6648.588     77.63358     156.0763     311.8731      1.900     6.35     824.2585     55.02745     602.6216        29     2.066     0.854  69.25   0
       678    439.4138     44.5634 307.7555629  +6.6697178     26585.79     35260.19     36610.27     77.75829     155.9521     311.9353      1.395     3.18     827.1512     55.02745     4098.372        39     1.399     0.869  60.81   0
       679    259.9937     45.0547 307.8300987  +6.6635342     10754.25     14746.99     15684.77     77.75829       155.89     311.9042      1.401     3.31     832.8987     55.02745     1804.679        32     1.367     0.890  59.34   0
       680    505.4200     46.2199 307.7280805  +6.6712314     547.1287     587.3824     310.8926     78.00711     156.0763     312.1216      1.102     3.37     825.2617     55.02745     96.32257         5     0.740     0.445  68.78   0
       681    319.8757     45.3621 307.8052066  +6.6654046     1296.957     1639.899     1978.975     78.13123     156.2004     312.2147      1.308     4.14     832.4584     55.02745     212.8441        11     1.150     0.626  53.03   0
       682     25.3288     44.7545 307.9276128  +6.6558189     2651.093     3576.084     3496.394     78.25515     156.1384     312.1837      1.462     3.14     833.7905     55.02745      386.207        19     1.158     0.906  64.93   0
       683    917.2715     44.2996 307.5570052  +6.6857011     2134.154     2933.146     2378.305     78.00711     156.2625     312.2147      1.465     4.24     823.9163     55.02745     302.2045        15     1.294     0.711  63.73   0
       684    552.5058     44.4743 307.7085733  +6.6735187     722.4382     836.9055     1037.466     78.00711     156.3244     312.1837      1.255     3.70     824.9615     55.02745     118.8054         6     1.009     0.391  70.43   0
       685    524.6031     44.3178 307.7201728  +6.6726550     733.8129     1174.297      924.928     77.63358     155.7656     311.8731      1.626     4.67     825.1425     55.02745     108.4483         8     1.243     0.498  67.92   0
       686    247.7803     41.5937 307.8352891  +6.6645554     3617.314     5118.135     5574.767      77.8828       155.89     311.9974      1.509     3.54     832.8932     55.02745     621.3048        24     1.348     0.887  55.41   0
       687    300.7269     39.7673 307.8133502  +6.6670756     1318.165     1801.197     2361.189     78.13123     156.1384     312.1526      1.449     3.16     832.5287     55.02745     211.6933        11     1.034     0.706  62.48   0
       688    937.9029     34.6669 307.5487518  +6.6903612     991.2141     1752.549     1557.383     78.25515     156.2004     312.2147      1.944     4.19      823.236     55.02745     158.3685        10     1.163     0.733  41.45   0
       689    689.1808     33.9245 307.6521315  +6.6824169       2293.5     3008.339     3277.182      77.8828       155.89     312.1216      1.416     3.26     824.0694     55.02745     372.5042        15     1.187     0.723  71.99   0
       690     94.4201     34.5742 307.8992464  +6.6623313     639.9301     608.0052     864.7991      77.8828     155.9521     312.0905      1.274     3.76     832.8201     55.02745     92.81848         6     0.993     0.410 -72.30   0
       691    770.1497     48.2085 307.6180106  +6.6792086     404.8852     604.2914     409.7754     77.75829     156.0142     311.8731      1.311     3.99     824.7498     55.02745     76.84088         6     0.778     0.585  45.38   0
       692    254.8431     29.3300 307.8327645  +6.6698535     872.4346     1150.921     1723.178     78.13123     156.1384     312.2457      1.384     3.10     832.5215     55.02745     173.1169        10     0.956     0.758  34.60   0
       693    200.3024     29.9299 307.8554069  +6.6677855     872.4343     879.9894     757.2828     78.13123     156.3244     312.1837      1.280     4.11      832.696     55.02745     163.7524         7     1.033     0.468  65.24   0
       694    177.4608     27.1144 307.8649920  +6.6681850     12313.64     16615.86     16720.18     78.25514     156.2625     312.2768      1.415     3.31     832.6259     55.02745     1878.536        29     1.337     0.871  59.73   0
       695    923.1122     24.4378 307.5552377  +6.6940940     4295.991     6081.959     6501.176     78.25514     156.0763     312.1837      1.516     3.37     822.9983     55.02745      722.575        23     1.364     0.865  68.03   0
       696    521.7689     25.1463 307.7219897  +6.6804749     3384.102     4741.077     4628.196     78.13123     156.2004     312.0905      1.411     3.74     824.8458     55.02745     575.9957        21     1.343     0.800  64.97   0
       697    724.0474     23.2812 307.6379972  +6.6879685     2346.704      3000.44     3060.935     78.25515     156.1384     312.2147      1.372     3.41     823.9528     55.02745     383.8759        15     1.187     0.731  70.65   0
       698    459.9689     23.4914 307.7477248  +6.6791010     2083.576      2651.11     2698.899     78.37887     155.9521     312.1837      1.386     3.60      825.964     55.02745     382.0621        14     1.268     0.679  67.15   0
       699    972.9781   1016.5857 307.5016127  +6.2861602     570.9991     1197.754     1013.607     78.00711     155.9521     312.1216      2.033     8.06     851.4432     55.02745     83.26624        10     1.976     0.918  37.17  16
       700    515.2256   1010.5272 307.6918790  +6.2734745     1102.535     1838.026     2097.285      77.8828     156.0142     312.0905      1.627     4.44     857.2158     55.02745     161.3672        14     1.352     0.862  63.84   0
       701    749.3484   1008.5118 307.5947358  +6.2820826     7489.894     12550.25     13083.48     78.25515     155.9521     312.2768      1.802     3.93     856.0217     55.02745     856.5242        37     1.621     1.133  64.58   0
       702    329.4510     16.5642 307.8021899  +6.6776118     1156.031     1710.414     2181.334     78.13123     156.1384     312.0905      1.760     3.36     832.1439     55.02745     192.9005         9     1.034     0.579  63.85   0
       703    544.7386   1009.2659 307.6796670  +6.2749764     4284.653     6897.963     8262.789     78.25515     156.0763     312.1837      1.776     3.79     857.2084     55.02745     569.3917        31     1.477     1.076  72.53   3
       704    383.2424     15.0914 307.7798873  +6.6800128     740.4224     938.8163     560.5413     78.25514     156.1384     312.2768      1.401     3.69      830.264     55.02745     130.6008         6     0.934     0.420  54.34   0
       705    541.9355   1001.3500 307.6810944  +6.2781511     8336.584     13121.51     14109.82     78.13123     156.0763     312.2147      1.683     3.80     857.1714     55.02745     1038.482        36     1.521     1.080  62.46   2
       706    294.9808   1007.8695 307.7834130  +6.2672401     14705.19      23135.7     24783.78      77.8828     156.0142     312.1216      1.686     3.56     856.6151     55.02745      2073.84        55     1.561     1.428 -72.10   0
       707    810.6618   1007.9041 307.5692976  +6.2843669     1027.333     1737.843     1814.732     78.00711     156.2004     312.2457      1.787     6.10     854.4075     55.02745     120.5134        14     1.303     0.804  58.77   0
       708    419.4249   1008.6331 307.7317188  +6.2710693     1106.042     1602.929     2405.138     77.63358       155.89     311.9663      1.928     4.10     856.3614     55.02745     176.9981        14     1.149     0.934  34.97   0
       709    120.9794   1008.1815 307.8556458  +6.2613080     559.4315     737.4603     273.7418     78.00711     156.0763     312.0905      1.437     2.95     852.0294     55.02745     92.89746         5     0.788     0.493  54.48   0
       710    266.5143   1005.8202 307.7953005  +6.2671374     980.1158      1416.04     1002.292      77.8828       155.89     312.1216      1.418     3.33     855.3574     55.02745       151.46         9     0.866     0.765  53.84   0
       711    910.6497   1001.8093 307.5279827  +6.2901965      7473.64     13546.34     13864.27     77.75829     156.0142     311.8731      1.897     4.34     853.5142     55.02745     794.1461        44     1.677     1.291  66.44   0
       712    884.2606    997.9545 307.5390679  +6.2909136     10718.25     19282.58     21035.94     78.13123     156.0763     312.2457      1.933     4.14     853.7361     55.02745     1310.818        55     1.709     1.363  62.55   0
       713    596.9348    998.5303 307.6583519  +6.2811429      1307.79      2041.88     2204.171     78.25514     156.2004     312.1837      1.807     5.85     857.0963     55.02745     170.3496        15     1.535     0.697  76.87   0
       714   1006.0913    997.4081 307.4884987  +6.2951731     4020.665     7608.957      7513.96      77.8828     155.8278     311.9663      1.955     4.63     849.7763     55.02745     457.1283        35     1.600     1.262  49.37   0
       715     40.2436   1000.5347 307.8894214  +6.2617686      568.986     565.4106     440.3476     78.25515     156.0763     312.1837      1.240     3.16     851.2128     55.02745     94.50769         5     0.766     0.704 -56.41   0
       716    528.4901    997.1481 307.6868169  +6.2794387     4102.126     6485.528     7364.396     78.25515     155.9521     312.3388      1.729     3.55      857.126     55.02745     548.3587        29     1.472     1.077  46.81   0
       717    638.0619    996.6094 307.6413392  +6.2833021     1366.447     2125.592     1811.586     77.63357     156.0142     311.9974      1.643     4.61      856.772     55.02745     167.3745        15     1.241     0.902  56.41   0
       718     63.6076    996.4191 307.8798587  +6.2642480     842.2266     1413.324     1872.567      77.8828     155.8278     312.0284      1.807     4.68     851.2651     55.02745     111.3278         8     1.145     0.542  50.24   0
