#   1 NUMBER                 Running object number                                     
#   2 X_IMAGE                Object position along x                                    [pixel]
#   3 Y_IMAGE                Object position along y                                    [pixel]
#   4 ALPHA_J2000            Right ascension of barycenter (J2000)                      [deg]
#   5 DELTA_J2000            Declination of barycenter (J2000)                          [deg]
#   6 FLUX_APER              Flux vector within fixed circular aperture(s)              [count]
#   9 FLUXERR_APER           RMS error vector for aperture flux(es)                     [count]
#  12 FLUX_RADIUS            Fraction-of-light radii                                    [pixel]
#  13 FWHM_IMAGE             FWHM assuming a gaussian core                              [pixel]
#  14 BACKGROUND             Background at centroid position                            [count]
#  15 THRESHOLD              Detection threshold above background                       [count]
#  16 FLUX_MAX               Peak flux above background                                 [count]
#  17 ISOAREA_IMAGE          Isophotal area above Analysis threshold                    [pixel**2]
#  18 A_IMAGE                Profile RMS along major axis                               [pixel]
#  19 B_IMAGE                Profile RMS along minor axis                               [pixel]
#  20 THETA_IMAGE            Position angle (CCW/x)                                     [deg]
#  21 FLAGS                  Extraction flags                                          
         1    718.6636     17.7495 307.6452578  +6.6898198     8147.627     11239.89     11829.86     78.27027     156.1065      312.275      1.469     2.98     818.8637     55.03808     1159.758        29     1.311     0.947 -42.13   0
         2    638.8687     17.0581 307.6784320  +6.6874374     4111.967     5662.598     5911.397     78.39401     156.1065     312.1819      1.449     3.14     818.7747     55.03808     591.5775        24     1.212     1.012 -34.87   0
         3    439.0724     13.2527 307.7615644  +6.6823184     6871.369     9835.616     10142.58     78.14632     156.1685      312.275      1.518     3.22     823.0333     55.03808     958.9771        32     1.368     1.019 -43.97   0
         4     40.0165     12.8565 307.9273562  +6.6690788     9105.116     13264.46     13581.25     77.64857     156.1065     311.9955      1.512     3.13     826.1342     55.03808      1341.35        35     1.353     1.065 -47.91   0
         5    686.0591     12.2432 307.6589881  +6.6910029     979.6342     1568.576      1635.53     78.14632     156.1685     312.3371      1.700     5.60     818.6178     55.03808     144.9102        10     1.075     0.871 -11.95   0
         6    514.6017     10.2531 307.7302871  +6.6860871     973.4523     1423.781     1799.974     77.64857     155.9201     311.8401      1.556     5.02     819.5342     55.03808     147.9309        10     1.176     0.705 -14.46   0
         7    335.6380      8.1685 307.8047060  +6.6809482     13950.22      20137.4     21237.79     77.89784     155.9201      311.249      1.564     3.12     826.9498     55.03808     2111.893        41     1.389     1.108 -35.83  16
         8    109.3049      8.4870 307.8987202  +6.6732135     2795.513     4040.654     4245.838     78.27027     156.5405     312.3061      1.547     3.30     826.1066     55.03808     394.1901        21     1.331     0.862 -32.41  16
         9    100.5270      7.4802 307.9024007  +6.6733338     1665.714     2495.335     2243.271     78.51757     156.4166     308.0874      1.571     3.40     826.1751     55.03808     263.2318        15     1.123     0.863 -56.52  16
        10    804.0632      6.9661 307.6101392  +6.6971239     1054.456     1432.065     1416.782     78.14632     156.2306     304.4477      1.376     3.56     817.6262     55.03808     151.9797         9     0.843     0.696 -50.07  16
        11    470.1985      6.6149 307.7488565  +6.6861014     648.3228     875.4694     686.7653     77.89785     155.8579     301.5685      1.220     4.34     820.9093     55.03808     99.20746         7     1.070     0.501 -47.11  16
        12    401.6849      6.1867 307.7773343  +6.6839816     2667.821     3557.904     3577.686     77.89784     156.0444     297.8816      1.443     3.09     825.1175     55.03808     403.4222        17     1.109     0.872 -37.97  16
        13    997.0286      3.0350 307.5300999  +6.7051834     687.2504     874.8075     908.1512     77.89784     145.8997     260.8224      1.316     4.16     813.4539     55.03808     94.62665         7     0.918     0.539 -44.86  16
        14    662.5119      1.9825 307.6691152  +6.6944511     11549.41     14494.14     14869.75     75.11034     133.3331     245.1117      1.350     3.42     818.2042     55.03808     1855.523        25     1.246     0.858 -16.66  24
        15    540.0733      1.8809 307.7199862  +6.6903960     1303.665     1693.343     1727.326     74.46227     132.1648     243.8429      1.333     3.54     818.7564     55.03808     201.6257        13     1.094     0.803 -21.83  24
        16     80.8247      2.2135 307.9107631  +6.6748450     622.1915     904.4699     1058.055      76.8959     136.3523     248.8013      1.557     5.97     825.8663     55.03808     81.09082         8     1.149     0.873  61.61  24
        17    827.3317      1.6175 307.6006511  +6.7001086     1370.004     2055.306     2733.266     71.26954     128.5207     239.5921      1.579     4.04     817.4371     55.03808     268.1589        10     1.172     0.696  14.13  24
        18    539.1377    997.3690 307.6869593  +6.2794356     4323.048     6512.583     6896.226     78.02219     156.2306      312.213      1.622     3.39     852.6193     55.03808       576.51        23     1.317     0.944 -29.03   0
        19    967.1266   1023.0118 307.5084318  +6.2831387     5158.989     7563.501     8298.085     74.85179     133.3331     245.3094      1.538     4.03      847.003     55.03808     639.5253        25     1.499     0.913  -3.95  24
        20    721.7637   1023.6349 307.6102674  +6.2746974     703.0255     1156.713     1502.745     68.21171     124.3812     235.2645      1.664     3.82     853.4614     55.03808     143.3097         8     1.130     0.554  20.40  27
        21    449.7061   1022.5063 307.7232401  +6.2660658     1081.321     1287.169     1152.193     78.27027      140.346     253.1273      1.390     3.23     852.4145     55.03808     172.1986        11     0.919     0.828  88.38  24
        22    251.4165   1023.1466 307.8055286  +6.2591555     1285.715     1689.805     1588.801     73.80851      131.724     243.0466      1.355     3.12     851.9117     55.03808     201.5958        12     1.001     0.771  -7.50  24
        23    648.6866    996.6166 307.6415083  +6.2834093     1467.624     1989.292     1819.337     77.89785     155.9201     312.1819      1.534     3.57     852.6701     55.03808     179.9723        15     1.078     0.905 -39.43   0
        24     73.9748    995.9379 307.8800991  +6.2644287     879.2363     1250.072     1141.703     77.89784     156.1065     312.1819      1.477     4.55      849.024     55.03808     129.6946        11     1.005     0.879 -10.31   0
        25    804.8232    995.3117 307.5767350  +6.2891620     573.8146     984.1177     740.2062     78.27027     155.9822     312.1198      1.494     5.13      847.846     55.03808     80.83936         7     1.287     0.577 -47.96   0
        26    492.4499    993.9056 307.7064565  +6.2793029     2363.965     3469.426     3273.493     78.14632     156.0444     312.3992      1.548     3.37     851.8392     55.03808     306.0735        21     1.261     0.957 -33.09   0
        27    926.8444    985.9553 307.5263922  +6.2970936     40490.26     68104.75     72566.01     78.27027     156.1685      312.213      1.808     3.61     846.9394     55.03808     4715.251        78     1.605     1.432 -41.06   0
        28    528.1780    989.0181 307.6917890  +6.2825161     454.6168     917.2672     1427.572     78.02219     156.1065     312.1819      2.030     5.28     852.1993     55.03808     77.05212         6     1.466     0.536 -58.47   0
        29    332.4477    986.9081 307.7731108  +6.2768318     619.0235     841.2488     534.0151     78.27026     156.1065     312.3681      1.378     4.07     851.9673     55.03808     111.2324         7     1.054     0.468 -41.86   0
        30      1.2144    985.0974 307.9106665  +6.2664573     1206.918     1556.741     1657.166     66.63018     122.1796     232.9873      1.123     2.88      847.433     55.03808     300.7786         8     1.042     0.410 -88.97  24
        31    234.0337    984.3530 307.8140491  +6.2745857     1824.462     2725.771     2743.704     78.02219     156.1685     312.1819      1.520     3.43     850.5648     55.03808      293.384        14     1.113     0.894 -41.42   0
        32    632.7260    982.2662 307.6486148  +6.2887996     854.2279     1154.274     870.6518     78.39402     156.2306      312.213      1.597     5.22     852.1508     55.03808     132.4833         8     1.014     0.758 -30.46   0
        33    824.7119    979.5891 307.5690044  +6.2963159     2409.755     3635.211     3961.078     77.89785     155.9201     312.1198      1.629     3.50     847.7924     55.03808     297.5547        23     1.264     1.100 -72.88   0
        34    773.0021    977.6938 307.5905346  +6.2953727     6439.866     10531.86     11733.15     77.77331     155.8579     311.9334      1.787     3.46     849.4647     55.03808     777.7002        43     1.600     1.234 -56.53   0
        35    739.6228    978.7893 307.6043549  +6.2938061     472.1501     554.6079     695.1461     77.89785     155.9822     312.1198      1.361     3.64     851.3989     55.03808     102.2428         5     0.961     0.397  -5.99   0
        36    559.6573    976.9888 307.6791247  +6.2885349         1017     1430.432     1229.371     77.64857     156.1686     311.9645      1.390     3.40     852.0193     55.03808     163.6107        10     0.981     0.717 -44.26   0
        37    242.5134    976.5239 307.8107925  +6.2781020     1578.971     2355.084     2863.722     78.27027     156.4786     312.3061      1.728     3.15     850.6214     55.03808        232.1        14     1.088     0.782 -45.44   0
        38    207.2626    976.2355 307.8254351  +6.2770381     765.9148     1044.181     540.9824     78.14632     156.1685      312.213      1.620     5.37      849.966     55.03808     137.2443         9     1.292     0.649 -36.12   0
        39    961.2850    972.7393 307.5125359  +6.3036969     6308.078     10698.65     11444.51     78.39402     156.2306     312.3061      1.841     3.86     846.0455     55.03808     752.9558        40     1.515     1.315 -35.69   0
        40     67.4383    974.7113 307.8835276  +6.2729709     2827.546     4248.275     4123.472     78.27027     156.0444      312.275      1.595     3.74     848.4655     55.03808     374.7375        21     1.272     0.971 -47.31   0
        41    217.3741    969.0703 307.8214788  +6.2803351     537.4606     570.2068     458.2847     77.89784     156.0444     312.1819      1.120     3.99      849.966     55.03808     96.06061         5     1.014     0.450 -27.26   0
        42    643.3515    966.9907 307.6447157  +6.2954604     668.8669     1069.043     1214.961     77.77331     155.9822     311.9334      1.488     3.88     851.5918     55.03808     106.3175         7     0.868     0.579 -60.32   0
        43    934.8857    964.4946 307.5237709  +6.3062206     2053.552     3507.469     3690.964     78.27026     156.5405     312.3061      1.842     4.44     846.3683     55.03808     243.9238        23     1.456     0.998 -31.86   0
        44    794.3397    960.9364 307.5822372  +6.3030023     1267.344     1946.009       1972.7     78.27027     156.1065      312.275      1.606     3.96     848.1921     55.03808     170.7012        14     1.090     0.935  -3.35   0
        45    655.7265    960.3677 307.6398003  +6.2986080     4907.949      7274.74     7239.007     78.14632     156.1686      312.244      1.598     3.39     851.3026     55.03808     675.3149        33     1.420     1.090 -35.44   0
        46    267.9297    960.5460 307.8007793  +6.2855502     4711.271     6841.973     7161.573     78.14632     156.1685     312.1819      1.553     3.27     850.7278     55.03808     654.3663        25     1.295     0.950 -42.07   0
        47   1004.9808    959.4603 307.4948390  +6.3106340     653.3311     1138.122     1381.729     77.89784     156.1065     312.0887      1.517     2.68     844.8696     55.03808     109.8757         6     0.766     0.496  -4.88   0
        48    478.1614    958.4653 307.7135774  +6.2934541     1187.249     1893.533     1890.732     78.14632     156.1065     312.3371      1.639     4.77     850.7687     55.03808     166.3518        14     1.447     0.753 -33.29   0
        49     36.5519    957.8951 307.8969153  +6.2788740     2227.182     3502.604     4061.742     78.14632     156.0444     312.3992      1.741     3.21     847.4824     55.03808      346.821        24     1.358     1.001 -27.21   0
        50    887.8590    956.5550 307.5435594  +6.3079305      858.509     1447.475     1210.171     78.14632     156.1065     312.3371      1.770     5.68     847.0535     55.03808     116.8784        10     1.234     0.916 -76.94   0
        51    959.1322    953.4959 307.5140724  +6.3115689     672.5543     1034.977     916.7837     78.14632     156.2926      312.244      1.687     5.76     845.6636     55.03808     103.1455         9     1.251     0.746 -61.07   0
        52    580.3749    952.9833 307.6713290  +6.2991371       1704.4     2493.169     2458.908     78.02219     156.0444     312.1819      1.529     4.02     851.1923     55.03808     233.5317        16     1.279     0.842 -53.22   0
        53    303.8426    954.2067 307.7860844  +6.2893715     865.9643     1146.547     1591.443     77.77331     155.9201     311.9645      1.533     3.59     850.8899     55.03808     167.7554         8     1.032     0.517 -52.81   0
        54   1011.5353    952.9829 307.4923341  +6.3135262     622.1818     1449.446     1349.525     77.77331     156.1065     312.1198      2.387     5.85     844.5862     55.03808     99.51215         7     1.169     0.824 -61.71   0
        55    619.4114    949.2519 307.6552486  +6.3019827     1207.959     1589.863     1767.755     77.64857     156.1065     311.9955      1.564     3.80     851.0212     55.03808     176.1874        13     1.143     0.761 -34.34   0
        56    168.3749    949.8210 307.8424668  +6.2866361     528.8276     613.4423     655.1412     77.89784     155.9822     312.1819      1.195     3.47     848.8825     55.03808     74.41187         5     0.778     0.448 -73.22   0
        57     69.2297    949.5968 307.8836303  +6.2833979     825.4391     1229.932     1769.906     77.77331     155.9822     312.0577      1.721     4.67     847.9929     55.03808     108.8995         8     1.113     0.556 -23.37   0
        58    299.4086    947.0457 307.7881658  +6.2921788     1497.583     2220.783     2744.303     77.77331     156.0444     311.9023      1.601     3.78     850.6614     55.03808     212.0464        15     1.206     0.823 -34.92   0
        59    567.4704    945.0118 307.6769535  +6.3019961     534.5835     782.5315     968.9751     77.77331     155.9201     312.0577      1.473     5.00     850.9166     55.03808     101.8742         6     1.348     0.524 -53.20   0
        60    766.5398    943.1524 307.5943733  +6.3094157      849.402     1234.114     1179.486     78.27027     156.1685     312.3061      1.470     5.19     849.0645     55.03808     113.2952         9     1.165     0.652 -36.65   0
        61    903.8492    939.6540 307.5374859  +6.3154404     6867.563     10927.64     11018.62     78.27027     156.1685      312.275      1.711     3.46     846.5091     55.03808     841.8855        36     1.444     1.175 -39.72   0
        62    142.3909    941.1699 307.8535443  +6.2893345     528.4053     785.3663    -175.3857     77.77331     155.9822     312.0577      1.281     4.36     848.5373     55.03808     99.69434         7     1.684     0.321 -26.26   0
        63    439.7663    936.7649 307.7302449  +6.3011263     2332.512     3459.819     3216.039     78.02219     155.9201     311.9955      1.564     3.38      850.237     55.03808     309.3257        22     1.309     0.965 -20.75   0
        64    341.4662    935.0937 307.7711085  +6.2985225     10090.87     14681.64     15434.28     78.27026     156.3547      312.244      1.546     3.32     850.2696     55.03808      1428.71        36     1.410     1.055 -39.76   0
        65    608.7465    936.4233 307.6601060  +6.3069218      571.397      774.202     900.1588     77.77331     156.1686     312.0577      1.395     2.90     850.6065     55.03808     97.67944         5     0.725     0.446 -21.91   0
        66    261.5318    934.0604 307.8043260  +6.2962684     7584.794     10605.56     10958.63     78.39401     156.1065      312.244      1.503     3.08     849.8969     55.03808     1070.697        28     1.328     0.976 -27.66   0
        67    179.4587    932.9275 307.8384344  +6.2939816     468.6514     686.8936    -51.49505     78.39401     156.1685      312.213      1.496     5.48     848.6852     55.03808     100.7965         7     1.441     0.588 -51.31   0
        68    589.6840    928.5448 307.6682839  +6.3095366     1228.026     1565.489     1577.337     78.27027     156.1686     312.3681      1.513     3.79     850.3653     55.03808     150.1772        15     1.161     0.838 -35.55   0
        69    875.9883    924.0327 307.5495747  +6.3209600      904.625     1523.542     1546.678     77.77331     155.9201     312.1198      1.546     5.90     846.8146     55.03808      121.013        13     1.388     0.706 -76.35   0
        70    919.7283    924.6801 307.5313940  +6.3221510      1038.58     1865.909     2159.596     78.51757     156.4166      312.275      2.017     6.26     845.8985     55.03808     137.7521        15     1.437     0.987 -31.38   0
        71    152.5501    924.4575 307.8498899  +6.2965742     581.5358     557.3557     629.4734     78.27027     156.1686      312.244      1.174     3.02     848.2105     55.03808     128.6201         6     0.901     0.407 -20.90   0
        72    418.4919    922.8080 307.7395453  +6.3061751     745.5519     937.1458     957.4311     77.89785     155.8579     312.0577      1.323     4.38     849.9238     55.03808     94.22693         7     0.910     0.599   6.17   0
        73    986.9959    920.7816 307.5035971  +6.3260018     640.0219     1183.613     1686.029     77.89784     155.7335     312.0577      1.965     4.78     844.2766     55.03808     87.90228         7     1.029     0.630  -3.28   0
        74    848.8810    918.4849 307.5610141  +6.3223461     533.0182     620.6509     155.0289     78.02219     156.4786     312.3061      1.341     3.37     847.1343     55.03808     97.19305         5     1.222     0.269 -55.08   0
        75    756.2352    917.7513 307.5995014  +6.3195573     1750.283     2770.033     3087.344     78.14632     156.2306     312.1819      1.645     4.36     848.9562     55.03808      279.187        19     1.246     1.100 -20.75   0
        76    579.9199    918.1733 307.6726851  +6.3134914     771.2985     928.6509     1095.746     78.14632     155.9822      312.275      1.283     4.52     850.1946     55.03808     124.5675         8     1.064     0.546 -49.84   0
        77    620.1352    914.2576 307.6561210  +6.3164525      814.912     1206.552     745.7375     78.39401     156.1065      312.275      1.584     4.92     850.0401     55.03808     110.8886        12     1.031     0.877 -52.29   0
        78      6.3940    914.6386 307.9108923  +6.2957152     992.4965     1414.589     1181.146      77.3985     155.9201     299.6337      1.481     3.62     845.4661     55.03808     155.8295         9     1.094     0.556 -45.11  16
        79    987.3354    913.5112 307.5036990  +6.3290144     1188.675     1876.199     1843.578     78.14632     156.4166      312.275      1.702     4.05     844.0344     55.03808     161.3648        12     1.054     0.962  -6.43   0
        80    541.1757    913.2542 307.6889347  +6.3142259      1164.26     1696.246     1716.772     77.89784     156.2306     312.0577      1.511     3.78     850.1564     55.03808      153.095        10     1.017     0.673 -36.17   0
        81    674.6104    910.9944 307.6336148  +6.3196202     2609.118     3768.282     3388.639     77.77331     155.9822     312.1508      1.504     3.19     849.7844     55.03808     363.2571        21     1.337     0.881 -46.97   0
        82    964.4189    908.8775 307.5133680  +6.3301638     709.4532      1203.51     1153.703     77.77331     155.9201      312.213      1.641     5.55     844.4324     55.03808     105.5369         9     1.345     0.645 -34.27   0
        83     71.1451    907.2866 307.8842611  +6.3009270     2997.984     4671.557     4771.937     78.27027     156.1065     312.3992      1.657     3.45     846.6179     55.03808     405.2128        24     1.400     0.944 -54.04   0
        84    835.3494    907.7768 307.5669901  +6.3263150     729.7707     1249.164      1198.59     77.89785     156.1685     312.1508      1.762     4.96     847.1561     55.03808     102.1776         7     1.102     0.632 -52.16   0
        85    214.7500    906.0669 307.8246882  +6.3062539     2434.496     3574.258     3698.577     78.14632     156.0444     312.1819      1.525     3.41     848.7902     55.03808     308.7439        17     1.215     0.809 -45.41   0
        86     88.5922    906.2990 307.8770517  +6.3019211     2174.219     2877.858     2709.161     78.02219     155.7957     312.0577      1.481     3.32     846.9885     55.03808     295.8955        19     1.223     0.889 -40.47   0
        87    952.7536    906.4356 307.5182926  +6.3307831     766.4417     1138.638     688.9913     77.89785     156.1686     312.1508      1.461     3.64     844.6179     55.03808     160.4975         6     0.885     0.699   6.04   0
        88    353.5034    902.1243 307.7672194  +6.3125354       930.07     1437.074     1615.042     77.89784     156.2926     312.3061      1.679     4.23     849.5589     55.03808     159.2716        11     1.154     0.655 -38.92   0
        89    248.8769    902.7187 307.8106337  +6.3087813      998.309     1273.837     1108.141     78.51757     156.4166     312.3681      1.395     4.49     849.2197     55.03808     122.5652        11     1.133     0.679 -52.57   0
        90    669.1087    900.1886 307.6362608  +6.3238970     7169.666     10295.47     10261.22     78.02219     155.8579     312.0577      1.507     3.22     849.6301     55.03808     1000.126        34     1.362     1.047 -30.75   0
        91    806.9202    900.5370 307.5790351  +6.3283551     756.9742     1385.724     1402.645     78.39401     156.2306      312.244      1.996     5.08     847.4869     55.03808     97.09076         9     1.014     0.719 -32.18   0
        92     29.1616    898.3085 307.9019918  +6.3032216     1280.788     1965.589     2006.854     78.39401     156.1065      312.275      1.653     4.16     845.2487     55.03808     177.8056        14     1.291     0.698 -44.62   0
        93    907.0237    896.5137 307.5376098  +6.3333548     2896.028     4609.016     4815.521     78.27027     155.9822     312.0887      1.690     3.59     845.5073     55.03808     349.6439        27     1.304     1.137 -52.85   0
        94     42.0621    897.0418 307.8966792  +6.3041782     1089.919      1666.82     1368.632     78.27027     156.1065     312.3371      1.646     4.55     845.5023     55.03808     141.3712        14     1.108     0.986 -16.27   0
        95    352.1341    893.3773 307.7680818  +6.3161002     17324.17     25201.73     26560.87     77.89784     156.1685     312.1508      1.542     3.15      849.392     55.03808     2467.195        43     1.435     1.074 -37.38   0
        96     86.9066    894.2671 307.8781568  +6.3068310     1325.279     1671.653     2107.557     78.14632     156.3547      312.275      1.443     4.14     846.3975     55.03808     196.5563        14     1.235     0.742 -30.45   0
        97    402.9724    892.4383 307.7470081  +6.3181915     752.8027     941.4526      648.216     77.89784     155.9822     312.0887      1.531     4.05     849.3558     55.03808     137.9153         7     0.961     0.786  38.33   0
        98    222.9536    892.7374 307.8217312  +6.3120315      1271.59     1869.225     1759.933     78.14632     156.0444     312.3061      1.562     3.78     848.6841     55.03808     177.3204        12     1.130     0.773 -27.69   0
        99    429.9129    884.3988 307.7360938  +6.3224126     1152.927     1619.004     1442.866     77.52364     155.7335     311.9645      1.471     5.22     849.2047     55.03808     164.7281        11     1.101     0.699 -50.11   0
       100    115.4833    884.1222 307.8666356  +6.3119788     1839.853     2633.686     2424.129     78.39401     156.4786     312.3371      1.508     3.49     846.5947     55.03808     257.3167        17     1.200     0.888 -21.64   0
       101    683.6191    880.5206 307.6308956  +6.3325008     836.0219     1244.008     1819.758     77.89785     155.8579     312.1819      1.750     4.94     849.2855     55.03808     117.4613         8     1.008     0.686  -4.62   0
       102    510.5997    880.8729 307.7027147  +6.3265696     557.3892     1127.109     1378.926     77.52364     155.6712     312.0577      2.199     4.24     849.4646     55.03808     88.01404         6     0.772     0.665 -24.75   0
       103    897.3807    878.1298 307.5422278  +6.3406222     2060.892     2881.044     2832.948     77.89784     156.0444     312.1819      1.528     3.62     845.2985     55.03808     251.6605        17     1.129     0.935 -44.11   0
       104     99.0335    877.4726 307.8736885  +6.3141709     2685.962     4149.334     4418.137     78.14632     156.1065      312.213      1.606     3.57      845.905     55.03808     348.1014        25     1.409     0.997 -25.49   0
       105    868.1204    877.6256 307.5543929  +6.3398546     2126.871     3030.221     3093.331     78.02219     155.9822      312.213      1.502     3.10     846.0082     55.03808      288.348        15     1.022     0.899 -30.10   0
       106    831.3033    877.0604 307.5696973  +6.3388599     3259.662     4823.896     5583.164     78.02219     156.1685     312.3371      1.598     3.27     846.7306     55.03808     428.4019        21     1.174     0.992 -39.60   0
       107    347.1341    875.6877 307.7707521  +6.3232347     811.7123     1125.544     1373.564     78.27027     156.3547      312.244      1.695     5.04     849.1015     55.03808     117.5433         9     1.069     0.687 -72.43   0
       108    461.8596    875.0574 307.7231447  +6.3273386     726.1885     1069.399     1338.653     78.39401     156.1065      312.275      1.555     3.90     849.0387     55.03808     111.9554         6     0.909     0.479 -53.93   0
       109    567.2744    868.5728 307.6795983  +6.3335433     364059.7     517540.3       542804     78.14632     156.1065      312.213      1.551     3.22      849.528     55.03808      50767.1       177     1.606     1.321 -37.73   4
       110    411.4616    871.1639 307.7441985  +6.3272578     8277.701     12035.72     12562.06     78.27027     156.1685      312.213      1.564     3.40     848.9653     55.03808     1169.239        34     1.402     1.016 -33.10   0
       111    655.1768    871.5878 307.6430031  +6.3352378     1259.365     1540.074     1670.198     77.89784     155.9822     312.1508      1.265     2.70     849.1965     55.03808      244.671         8     0.951     0.515 -23.43   0
       112    354.7353    869.5469 307.7678029  +6.3260243     13790.55     19562.58     20571.28     78.27027     156.1065      312.213      1.542     3.14     848.9495     55.03808     2037.624        36     1.375     1.017 -39.25   0
       113    834.7573    870.0073 307.5684992  +6.3418867     2465.576     2481.347     2752.033     77.77331     155.9201     311.9645      0.705     1.25     846.5379     55.03808     1075.238         6     0.702     0.393 -42.19   0
       114    905.5735    864.7841 307.5392724  +6.3464045     5338.646     8130.921      9788.12     77.89785     155.9822     312.1819      1.755     3.35     844.7689     55.03808     685.9226        30     1.334     1.099 -22.12   0
       115    673.0441    865.8094 307.6357788  +6.3382202      3799.24     5666.628     5939.058     77.77331     156.0444     311.9955      1.572     3.21      849.065     55.03808     491.2919        25     1.253     1.029 -55.25   0
       116    744.9459    862.7151 307.6060307  +6.3418993     626.6027     958.4277     1103.871     78.27027     156.1685     312.3992      1.459     3.08     848.7604     55.03808     125.2386         5     0.795     0.504 -57.99   0
       117    647.8754    860.0506 307.6464211  +6.3397563     3712.418     5281.517     5461.795     78.27027     156.2306      312.244      1.486     2.99     848.9879     55.03808     593.7303        24     1.274     0.954 -43.06   0
       118    836.3776    858.9769 307.5681954  +6.3464941     1698.215     2437.398     2587.145     78.02219     155.9822      312.213      1.553     3.87      846.293     55.03808     229.2229        14     1.166     0.764 -45.43   0
       119    638.2703    859.0349 307.6504429  +6.3398545     1038.219     1659.989     2141.474     78.14632     156.1065      312.275      1.684     4.22     848.9821     55.03808     150.8972        11     1.112     0.831 -39.88   3
       120    640.7864    854.4260 307.6495527  +6.3418412     2349.701     3498.225     3936.498     78.02219     155.9822     312.1819      1.721     4.30     848.8765     55.03808     309.6204        21     1.336     1.003 -67.99   2
       121    190.6088    859.5542 307.8362756  +6.3246433     692.0682     962.1501      989.061     77.77331     156.0444     311.9023      1.545     3.76     847.5938     55.03808     112.1902         7     1.092     0.494  -3.11   0
       122    963.8507    857.5877 307.5153172  +6.3513175     773.0174     1299.824     971.1863     77.64857     156.0444     311.9334      1.799     5.34     843.0029     55.03808     103.5135         9     1.151     0.700 -19.88   0
       123    924.5172    852.5435 307.5318165  +6.3520890     3232.107      4935.32     5022.456     78.27027     156.1686     312.3371      1.662     3.37     844.1299     55.03808     413.0551        24     1.310     1.047 -34.95   0
       124    334.8737    853.2736 307.7765954  +6.3320760     1051.582     1473.389     1271.014     78.51757     156.4166     312.3371      1.526     3.36     848.7621     55.03808     194.7086        10     1.021     0.684 -41.81   0
       125    382.5624    848.6077 307.7569539  +6.3356005     2918.381     4064.531     3785.576     77.52364     155.9201     311.9955      1.482     3.12     848.4905     55.03808       407.77        21     1.230     0.924 -30.19   0
       126    518.9517    838.1614 307.7006805  +6.3444802     3318.676     4677.215     5072.294     78.14632     156.2306     312.0887      1.474     3.37     848.2648     55.03808     507.6257        21     1.354     0.823 -48.03   0
       127    863.6745    837.1522 307.5575921  +6.3564139       985.84     1308.573     1896.815     78.14632     156.2306      312.244      1.444     3.68     845.1216     55.03808     131.8191         9     0.905     0.688  13.80   0
       128    583.9799    835.7191 307.6737644  +6.3476640     794.7794     1288.716     1443.265     78.02219     155.8579     312.1819      1.607     6.44     848.4697     55.03808     124.0839        12     1.255     0.927 -55.52   0
       129    565.7286    834.3904 307.6813865  +6.3476020     6309.912     8987.297     9691.229     77.77331     155.7957     312.0577      1.538     3.20     848.3466     55.03808     989.1531        31     1.428     0.925 -34.02   2
       130    572.2594    833.9764 307.6786889  +6.3479913     1368.736     1992.616     2421.521     77.89784     156.1685     312.0887      1.582     3.87     848.3676     55.03808     213.7046        13     1.149     0.742 -11.50   3
       131    277.4831    834.4510 307.8010544  +6.3379210     848.9772     1154.283     598.2039     78.27027     156.1065     312.3371      1.334     3.08     848.1068     55.03808     128.5613         8     0.974     0.558 -43.80   0
       132    483.6031    833.4789 307.7155134  +6.3452299     1657.251     2442.321     2239.255     77.64857     155.6712     312.0266      1.646     3.41     847.8542     55.03808     289.7601        16     1.127     0.915 -29.28   0
       133    901.4779    832.4350 307.5420542  +6.3596218     1417.599     2012.803     1835.987     78.14632     156.2306      312.275      1.525     3.20     844.3014     55.03808     203.7875        14     1.083     0.789 -45.87   0
       134    125.2438    832.5534 307.8643209  +6.3335934     1538.315     2161.304     2401.596     78.27027     156.1686     312.1819      1.578     3.89     845.2847     55.03808     213.1241        16     1.264     0.858 -32.89   0
       135    701.5963    831.1584 307.6250854  +6.3534781     692.4739     1015.355     562.2969     77.64857     155.8579     312.0266      1.504     1.73     848.2394     55.03808     140.7959         5     0.655     0.455 -66.97   0
       136    536.3373    828.2644 307.6937945  +6.3491474     21479.79     30158.65      31709.8     78.27027     156.1686      312.275      1.503     3.14     847.9617     55.03808     3236.608        48     1.433     1.074 -37.13   0
       137    377.3988    829.9050 307.7597261  +6.3431477     905.5656     1117.238     736.3261     77.77331     155.8579     311.8712      1.309     4.82     848.1147     55.03808     143.9906         9     1.033     0.638 -34.68   0
       138    950.0888    826.4616 307.5220709  +6.3637079     3805.586     5939.864     6472.563     78.27026     156.2926     312.3061      1.683     3.58     843.0952     55.03808     462.8482        26     1.341     1.073 -43.93   0
       139     69.9101    825.0669 307.8875447  +6.3348242     656.1262      1099.73     617.5062     78.39401     156.2926      312.244      1.810     4.04     844.0726     55.03808     99.98016         7     1.367     0.342 -28.11   0
       140    176.8215    819.4403 307.8433499  +6.3407387     515.0666     619.5554     308.7486     77.89785     155.9822     312.0577      1.409     3.72     845.8849     55.03808     72.61163         5     1.063     0.375  85.43   0
       141     46.9140    818.7148 307.8973056  +6.3366731     1583.617     2342.406     2397.873     78.02219     156.3547     312.3061      1.555     3.51      843.834     55.03808     216.6685        15     1.073     0.931 -28.44   0
       142    329.0511    817.0760 307.7802296  +6.3468227     3657.667     5035.221     4071.062     78.27027     156.2306      312.244      1.477     3.05      848.053     55.03808     591.8342        23     1.289     0.946 -44.01   0
       143    794.5654    812.8086 307.5871000  +6.3641572     58026.07     84273.59     88268.68     77.77331     155.9822     312.0577      1.575     3.10     846.2055     55.03808     7636.496        76     1.480     1.239 -37.96   0
       144     28.7957    815.0051 307.9049524  +6.3375951     2315.317     3355.182     3367.332     77.64857     155.7957     312.1198      1.485     3.21     843.7153     55.03808     361.2189        20     1.220     0.946 -38.66   0
       145    251.8066    810.6049 307.8125165  +6.3469029     5579.918     8425.731     10398.67     77.64857     155.9201     312.0887      1.670     3.03     846.5844     55.03808     790.9886        34     1.463     1.061 -44.66   0
       146    437.7718    811.1998 307.7352894  +6.3528918     919.8069     1305.325     917.3372     77.77331     155.9822     312.0577      1.567     4.38     847.1355     55.03808     138.8931         8     1.100     0.497 -34.85   0
       147    919.7695    808.0113 307.5352760  +6.3703138     8582.739     12851.48     13869.01     77.77331     155.9201     312.1198      1.574     3.29     843.6085     55.03808     1170.261        34     1.425     1.060 -30.67   0
       148    722.7850    807.4304 307.6170828  +6.3639807     22832.91      33322.2     35587.08     77.89785     155.9201     312.1819      1.595     3.12     847.4866     55.03808      3337.45        58     1.520     1.226 -26.95   3
       149    716.4913    803.9053 307.6198139  +6.3652257     95991.26     135749.6     142941.7     78.27026     156.6643      312.244      1.528     3.01     847.4694     55.03808     12971.61        89     1.511     1.207 -37.19   3
       150    361.3825    804.7696 307.7672203  +6.3529866     22443.62     32187.44     33867.78     77.89785     155.9822     312.1819      1.520     3.08     847.8433     55.03808       3237.8        48     1.421     1.116 -39.04   0
       151    423.2682    802.6075 307.7415995  +6.3559529     24217.42     34407.46     35863.23     77.77331     155.9201     312.1508      1.516     3.09     846.8809     55.03808     3463.388        50     1.423     1.098 -36.46   0
       152    410.5600    805.0729 307.7467928  +6.3545094     1663.555     2242.981     2134.131     78.14632     156.2306     312.3061      1.491     3.73     847.0408     55.03808     236.9138        12     1.085     0.753 -30.54   0
       153    960.4492    801.5007 307.5186032  +6.3743572     2084.215     3115.874      3043.53     78.27027     156.1065     312.4302      1.596     3.51     842.5612     55.03808      266.187        17     1.210     0.870 -54.48   0
       154    916.7082    799.5011 307.5368315  +6.3737248     6810.494     10118.71     10951.34     78.27027     156.6643      312.213      1.629     3.34     843.5283     55.03808     932.7802        34     1.329     1.170 -43.86   0
       155    251.3060    789.1365 307.8134467  +6.3557480     772314.8      1698148      1887988     78.14632     156.2306     312.3061      2.241     5.31     845.6871     55.03808     63308.26       593     2.395     2.170 -48.70   4
       156    657.3011    798.5563 307.6445684  +6.3654561     6917.595     9674.365     10444.98     78.27027     156.0444     312.4612      1.517     3.07     847.6991     55.03808     994.8448        29     1.323     0.987 -41.76   0
       157    445.9609    796.5627 307.7323810  +6.3592082     1993.886     2704.193     2714.897     78.02219     156.0444     312.1198      1.434     3.18     846.6554     55.03808     269.2512        16     1.132     0.832 -28.23   0
       158    171.1531    795.7847 307.8464997  +6.3503130     881.7623     1296.125     1047.823     77.77331     155.9822     311.9955      1.506     4.93     845.0236     55.03808     122.9717         9     1.118     0.616 -28.41   0
       159    745.2022    793.6321 307.6082373  +6.3704253     569.6592     762.9627     408.8863     77.52364     155.9822     312.0577      1.282     3.38     846.7925     55.03808     91.60974         5     0.757     0.436 -19.49   0
       160    610.0049    790.0567 307.6644904  +6.3673836     847.9357     1430.263      1588.13     77.64857     156.0444     311.9645      1.971     6.44       847.32     55.03808     114.6713        14     1.377     0.971 -20.07   0
       161    692.3452    788.6305 307.6303509  +6.3707245     2622.015     3567.647     3498.208     78.14632     156.2306      312.213      1.427     3.12     847.0519     55.03808     397.9401        17     1.134     0.852 -43.54   0
       162    161.6715    789.2793 307.8506552  +6.3526799     1078.926     1320.954     1269.179     78.51757     156.4166      312.213      1.370     3.43     844.7587     55.03808     150.6607        11     0.956     0.799 -36.85   0
       163    136.5546    789.2740 307.8610830  +6.3518384     1276.795     1667.456     1449.304     78.14632     156.2306      312.275      1.469     3.07     844.3049     55.03808     186.4139        13     0.993     0.832 -53.01   0
       164    426.1737    785.2740 307.7409754  +6.3632053     58330.14     82909.61     87080.74     77.89784     156.1065      312.213      1.498     3.10      846.153     55.03808     8456.312        76     1.499     1.156 -36.74   0
       165    969.5206    786.9033 307.5153244  +6.3806853      654.806     898.3685     1260.421     78.02219     156.4166     312.3371      1.478     5.51     842.0677     55.03808     88.56744         9     1.076     0.798 -56.33   0
       166    543.8394    784.3054 307.6921546  +6.3675445     7638.781     10688.76     11069.06     78.39401     156.1065     312.3371      1.486     3.13     846.1624     55.03808     1140.153        28     1.303     0.952 -36.78   0
       167    460.6452    782.8573 307.7267445  +6.3653575     4952.778      6913.32     7228.151     78.27027     156.1685     312.3061      1.524     3.23     846.1037     55.03808      707.475        26     1.266     0.986 -32.26   0
       168    789.0796    780.9127 307.5904452  +6.3771408     12393.33     17894.12     18401.34     78.02219     156.4166     312.3681      1.507     3.12     845.3878     55.03808     1738.062        39     1.354     1.091 -33.87   0
       169    683.6206    780.2491 307.6342541  +6.3738928     585.1138      873.572      1013.12     77.77331     156.2306     312.1198      1.446     5.23      846.644     55.03808     89.28516         6     1.058     0.730  86.48   0
       170     18.2498    777.0654 307.9106099  +6.3529011      1167.24     1724.355      1570.94     78.14632     156.0444      312.244      1.543     5.47     843.4544     55.03808     157.5432        11     1.304     0.647 -29.38   0
       171    457.2773    776.2836 307.7283636  +6.3679583     2511.135     3386.032     3430.614     78.39402     156.4786     312.3371      1.431     3.47     845.8208     55.03808     387.9921        16     1.277     0.742 -41.05   0
       172    810.7326    775.0355 307.5816514  +6.3802896     1270.506     1662.617     1348.264     78.14632     156.2306     312.3371      1.462     3.96     844.7489     55.03808     167.5253        11     1.089     0.755 -41.01   0
       173    146.8845    772.9080 307.8573456  +6.3589410     12403.37     18218.75      19796.8     78.02219     156.6024     312.3371      1.549     3.10     844.0144     55.03808     1865.346        41     1.450     1.073 -36.62   0
       174    889.2175    800.6957 307.5482058  +6.3723151     733.2155     937.9634     1147.191     78.14632     155.9822     312.0887      1.400     4.18     843.8907     55.03808     97.90228         7     1.130     0.442 -29.73   0
       175    154.9954    773.1803 307.8539691  +6.3591010     3374.968     4919.709     5104.122     77.89784     155.8579     312.0577      1.519     3.20     844.1185     55.03808     484.3305        23     1.266     0.974 -40.12   0
       176    139.1188    770.1993 307.8606610  +6.3597982     3108.005     4805.169     5791.114     77.52364     155.6712     311.9645      1.679     3.22     843.8293     55.03808     500.8411        24     1.312     1.001 -45.34   3
       177    139.0704    763.8401 307.8608953  +6.3624216     2086.893     3155.562     3824.011     78.14632     156.1685     312.3061      1.667     4.48     843.6672     55.03808     306.8788        22     1.340     1.131 -13.69   2
       178    983.8630    769.5085 307.5099504  +6.3883438     1544.259      2306.55     2873.688     78.27026     156.2926     312.3061      1.569     3.95     841.4781     55.03808     193.0675        15     1.141     0.923 -47.04   0
       179    934.6981    769.4999 307.5303647  +6.3867091     6652.125     9783.585     10394.47     78.27027     156.5405     312.0887      1.587     3.32     842.6309     55.03808     921.9344        29     1.308     1.052 -40.17   0
       180    690.0427    767.0663 307.6320293  +6.3795493      1941.39     2611.389     2907.588     78.27027     156.1065      312.275      1.356     3.16     846.0049     55.03808     278.5242        15     1.119     0.807 -29.74   0
       181    577.0881    766.3297 307.6789529  +6.3760772     2627.001     3632.035      3806.17     78.39401     156.4166      312.244      1.411     2.91     845.8718     55.03808     400.7341        17     1.134     0.813 -55.82   0
       182    424.9083    766.1147 307.7421443  +6.3710717     1089.749     1588.379     1476.175     78.02219     156.6024     312.3371      1.687     3.57     845.3623     55.03808     199.0765        12     1.051     0.893 -62.62   0
       183    708.6058    764.5258 307.6244070  +6.3812182     589.3768     416.6121    -131.2472     77.89785     155.7335     312.1508      1.350     5.28     845.9619     55.03808     88.27649         6     1.304     0.604 -38.67   0
       184    928.7320    761.5197 307.5331086  +6.3898045     3180.535     4895.424      5272.46     78.39402     156.4166      312.244      1.693     3.81      842.637     55.03808     410.1746        23     1.364     0.954 -38.49   0
       185    989.1985    760.7833 307.5080264  +6.3921234     1977.964     3029.829     2796.402     77.89784     155.7335     311.9955      1.605     3.39     841.2426     55.03808     292.8649        19     1.190     1.003 -26.81   0
       186    958.3715    761.0242 307.5208184  +6.3909969     3134.747     4845.967      4982.05     77.77331     156.0444     312.0887      1.642     3.33     841.9529     55.03808     431.5506        24     1.270     1.032 -30.91   0
       187    681.1833    760.6293 307.6359235  +6.3819104     1543.527     2138.822     2272.718     77.89784     155.9201     312.1819      1.490     3.46      845.679     55.03808     210.5307        14     1.087     0.820 -25.15   0
       188    828.2881    759.0444 307.5748972  +6.3874766      1182.17      1662.39     1540.025     78.27027     156.0444      312.275      1.492     3.34     844.0693     55.03808     172.6197        12     1.018     0.794 -34.53   0
       189    253.7008    755.7034 307.8135773  +6.3696291     2104.802     3093.552     3970.819     78.27027     156.6643     312.0887      1.790     3.57     844.4418     55.03808     308.5555        17     1.300     0.787 -50.28   0
       190    903.7357    756.4557 307.5436568  +6.3910617     687.0638       808.25     374.4539     78.39402     156.1686      312.244      1.153     3.47     842.9545     55.03808     110.6102         5     0.738     0.472 -16.27   0
       191    274.2202    751.3206 307.8052055  +6.3721268     778.1039     1084.511     1294.781     77.89785     155.8579      312.244      1.475     3.72     844.5872     55.03808     136.7667         9     1.015     0.803 -56.44   0
       192    946.6093    751.0634 307.5260351  +6.3947168     1048.254     1361.862     1607.736     77.77331     155.9822     312.0266      1.345     3.70     842.0296     55.03808     139.1708        11     1.007     0.741 -20.95   0
       193    920.2864    749.8867 307.5370042  +6.3943251     1089.439     1739.154     1187.938     78.02219     156.3547      312.275      1.542     4.00     842.5652     55.03808     184.5693        15     1.334     0.911   3.13   0
       194    169.6563    750.8309 307.8486350  +6.3688189     792.2377     1183.883     675.1915     78.14632     156.2306     312.1819      1.574     3.26     843.4708     55.03808     121.7173         7     0.838     0.596 -63.40   0
       195    973.2393    748.7504 307.5150550  +6.3965589     2418.361     3673.176     4212.073     78.27027     156.1685     312.1819      1.639     3.49     841.4333     55.03808     311.4926        19     1.203     0.980 -22.57   0
       196    692.7372    747.7252 307.6315585  +6.3876233     997.6618     1237.239     1962.946     78.51757     156.1685      312.244      1.728     4.00     845.1173     55.03808     147.2123        10     1.055     0.672 -50.43   0
       197   1015.0198    742.2260 307.4979246  +6.4006440     1741.948     2427.177     2649.385     77.77331     155.9822     312.1508      1.509     4.07     840.4568     55.03808     225.4448        17     1.316     0.845 -14.34   0
       198    484.3242    742.7717 307.7182590  +6.3826974     539.7266     718.0706     314.1333     78.14632     156.1685      312.213      1.311     2.48     844.5803     55.03808     104.0906         5     0.724     0.440 -73.96   0
       199    413.7725    743.0212 307.7475436  +6.3802315     646.8548      775.583     382.4109     77.77331     155.9822      312.213      1.239     3.82      844.363     55.03808     104.8779         6     0.927     0.452 -51.92   0
       200    641.1943    741.7289 307.6531606  +6.3883760     742.5875     1062.945     1035.898     77.77331     155.7957     312.1508      1.332     4.08     844.9244     55.03808     112.9188         7     1.040     0.470 -26.96   0
       201    816.4081    740.6698 307.5804448  +6.3946652     1267.876     1823.172     1747.138     77.77331     155.7957     312.1508      1.637     3.60     843.6724     55.03808     192.0052        10     1.087     0.649 -36.35   0
       202    902.6597    737.9915 307.5447209  +6.3986479     1651.565     2456.686     2397.875     77.64857     156.0444     311.9645      1.552     3.40     842.6732     55.03808     219.9838        15     1.082     0.884 -68.79   0
       203    876.6857    733.2693 307.5556638  +6.3997311     1055.295     1465.463      1598.93     78.39402     156.4166      312.275      1.583     5.03     843.0924     55.03808     138.7347        12     1.092     0.796 -32.53   0
       204    663.1790    732.4572 307.6443431  +6.3929382     726.3469     873.7632     1264.812     77.89785     156.1065     312.0577      1.383     3.56      844.389     55.03808     125.3664         7     0.922     0.716  49.17   0
       205    859.3145    729.5411 307.5630014  +6.4006907      1600.99     2398.905     2566.246     78.27027     156.1686     312.3371      1.577     4.24     843.2721     55.03808     231.6722        15     1.314     0.762 -42.27   0
       206    122.5104    727.1262 307.8690075  +6.3770200     924.0583     1957.775     1876.647     78.27026     156.4166      312.275      2.173     6.27     842.6974     55.03808     160.7346        16     1.829     0.764  81.06   0
       207     58.4820    728.2479 307.8955529  +6.3744049     2703.713     3638.064     3686.591     78.27027     156.1686      312.275      1.482     3.33     842.7642     55.03808     395.1575        17     1.210     0.799 -41.13   0
       208      9.8612    727.2983 307.9157711  +6.3731617     386.0902     308.6966     224.5166     78.02219     156.1685     312.3681      1.060     4.53     842.7976     55.03808     73.20422         5     1.332     0.438  60.98   0
       209    576.3699    723.1728 307.6806987  +6.3938682     650.1531     830.4515     440.1349     77.77331     155.9201     312.0887      1.330     2.81     844.3204     55.03808     116.4843         6     0.731     0.611 -23.43   0
       210    714.3755    719.6663 307.6235139  +6.3999289     538.0975     872.4886     491.6772     77.89785     156.1686     312.1819      1.310     3.51     844.3391     55.03808     110.9444         5     0.757     0.468 -78.04   0
       211    671.2230    716.8108 307.6415274  +6.3996658      6808.35     9716.334     10446.58     77.89784     155.9822     312.1198      1.500     3.14     844.1294     55.03808     978.0728        30     1.330     0.992 -33.25   0
       212    618.0599    716.0765 307.6636264  +6.3981918     1575.425     2393.005     2570.569     78.39401     156.2306      312.213      1.603     3.51      844.525     55.03808     272.4296        13     1.176     0.767 -33.26   0
       213    539.1270    716.9643 307.6963707  +6.3951849     723.0095      1234.27     1409.319     78.14632     156.1685      312.244      1.716     4.16     843.7535     55.03808     116.9694         7     0.895     0.551 -43.49   0
       214    528.5125    716.4331 307.7007958  +6.3950490     915.2489     1243.181     1219.264     78.39402     156.0444      312.244      1.282     3.79     843.7233     55.03808     159.0413        10     1.208     0.540 -43.46   0
       215    134.3156    712.5717 307.8645965  +6.3834245     4019.393     5728.482     5638.691     78.27027     155.8579     312.1198      1.539     3.27     842.3679     55.03808     542.2998        23     1.414     0.870 -30.79   0
       216   1008.1398    712.0661 307.5017887  +6.4128651     2610.643     4020.587     4244.484     78.39401     156.1065      312.244      1.608     3.59     840.0944     55.03808     335.8858        22     1.312     0.991 -31.23   0
       217    645.0961    712.4263 307.6525228  +6.4006024     2424.319     3398.586     3721.296     78.39401     155.9201     312.1198      1.528     3.08     844.2559     55.03808     342.8688        17     1.126     0.871 -23.19   0
       218    320.9221    712.8227 307.7871100  +6.3895847     775.6415     1154.541     1681.946     77.89784     155.9822      312.213      1.572     4.47     843.0525     55.03808     109.6091         8     0.878     0.647 -49.35   0
       219    788.1303    708.9069 307.5932494  +6.4068332     21767.51     30652.86     32447.41     78.27027     156.2926      312.244      1.475     3.09     843.2414     55.03808     3139.481        46     1.403     1.076 -36.50   0
       220    918.2068    708.6182 307.5392472  +6.4112916     3924.229     5516.715     6273.149     77.89785     155.8579     312.0887      1.538     3.11      842.142     55.03808      504.873        23     1.277     0.953 -20.75   0
       221    487.1264    709.2753 307.7182201  +6.3966184     1651.433     2332.992     2665.288     78.51757     156.4166     312.3061      1.556     3.41     843.5128     55.03808     243.4645        17     1.224     0.859 -38.24   0
       222    470.1564    710.2722 307.7252328  +6.3956386       528.85     780.4531     707.5129     78.14632     156.2306      312.275      1.552     3.44     843.4861     55.03808     79.51007         5     0.976     0.350 -44.83   0
       223    516.0327    708.6041 307.7062403  +6.3978631     947.9601     1459.782     1339.093     77.52364     156.0444     312.0266      1.551     4.70     843.5136     55.03808     134.7693         8     1.135     0.553 -37.61   0
       224    333.1166    708.6281 307.7821879  +6.3917251     666.7839     903.4719     678.6359     78.14632     155.9822     312.1819      1.346     4.49     842.9016     55.03808     107.1078         7     0.857     0.668 -68.75   0
       225    977.2669    704.6052 307.5148575  +6.4149165     410.1098     413.2726    -279.4276     77.77331     155.8579     312.0577      1.059     3.46     840.7578     55.03808     76.13812         5     0.755     0.458 -16.51   0
       226    261.6014    702.5359 307.8120861  +6.3918410     6767.295     9460.523     9763.537     77.64857     155.9201     312.0266      1.498     3.09     842.5479     55.03808     986.4856        31     1.277     1.036 -33.95   0
       227    668.6993    701.6864 307.6430822  +6.4058248     7615.444     10601.18     10817.45     78.27027     156.6024     312.3061      1.494     3.25      843.959     55.03808     1069.807        30     1.301     1.012 -37.47   0
       228    651.1501    702.6132 307.6503379  +6.4048557     988.4957     1358.834      1373.26     77.64857     156.1065     311.9645      1.385     3.33     844.0812     55.03808     168.9444         9     1.048     0.562 -59.70   0
       229    363.8805    701.2870 307.7696614  +6.3957869     910.0861     1257.292     1274.892     78.02219     156.4166     312.3681      1.358     4.51     842.7117     55.03808     133.8538         9     1.036     0.613 -27.50   0
       230    928.3010    694.3072 307.5355341  +6.4175358      1210.19     1656.571     1499.767     78.27027     156.7262     312.1819      1.539     3.97     841.9338     55.03808     193.3162        14     1.214     0.781 -36.15   0
       231    740.3474    690.1038 307.6137199  +6.4129998     3895.097     5727.419      6233.44     78.14632     156.1685     312.4922      1.608     3.44     843.1861     55.03808     521.1486        25     1.257     1.070 -58.48   0
       232    695.6015    690.4140 307.6322894  +6.4113770     1068.087     1435.139     1645.216     77.89785     155.8579     312.0266      1.542     4.12     843.5834     55.03808     152.0427        11     1.093     0.689 -28.60   0
       233   1006.7184    686.7441 307.5032247  +6.4232708     9210.769     13729.47     14333.33     78.27027     156.1685      312.275      1.618     3.25     839.6686     55.03808     1196.759        35     1.343     1.143 -36.62   0
       234      6.0160    688.8951 307.9186630  +6.3888844     643.2446     1106.758     1115.365     78.02219     155.9822     296.4464      1.771     3.69     841.7838     55.03808     103.9252         5     0.635     0.617   4.40  16
       235    945.1818    687.0889 307.5287658  +6.4210781     2462.898     3594.626     2115.398     78.02219     155.9201     312.1508      1.533     3.70      841.433     55.03808     372.2844        22     1.355     0.928 -24.88   0
       236    994.8617    686.8389 307.5081450  +6.4228367     518.7482      755.249     734.7843     78.27026     156.1685      312.275      1.686     4.46     840.0101     55.03808     86.57819         5     0.788     0.718 -11.75   0
       237     25.7220    686.5753 307.9105595  +6.3905048     2008.506     2943.917      3668.65     77.89785     156.0444      312.213      1.700     3.80     841.7238     55.03808        252.5        17     1.271     0.879  -8.73   0
       238    442.5630    685.0646 307.7375365  +6.4051200     612.5427      911.511     939.7141     78.14632     156.1685     312.3061      1.782     5.30     842.5413     55.03808     87.81812         6     1.250     0.634 -49.59   0
       239     83.9963    681.5735 307.8865332  +6.3945289     27297.16     39510.59     41153.25     77.77331     155.9201     312.0887      1.524     3.07     841.5801     55.03808     3784.164        52     1.460     1.106 -37.13   0
       240    545.4235    682.4586 307.6949141  +6.4096395     2256.302     3014.137     3102.107     77.89785     156.1686     312.1198      1.461     2.99     842.7068     55.03808     378.7911        16     1.141     0.850 -22.02   0
       241    417.5923    682.8301 307.7479799  +6.4052058     491.3479     837.2222      952.843     77.77331     155.9822     312.0266      1.738     3.50     842.3062     55.03808     77.71259         5     1.243     0.285 -35.38   0
       242    513.9417    679.7606 307.7080767  +6.4096995      1558.83     2254.479     2396.735     78.27026     156.2306     312.3371      1.548     3.63     842.6469     55.03808     223.7633        15     1.122     0.855 -34.27   0
       243    934.5770    678.7722 307.5334474  +6.4241579     1031.111      1267.33     500.2842     77.77331     156.0444     312.0887      1.469     4.29     841.6681     55.03808     149.0947        12     1.074     0.763 -23.15   0
       244    554.3840    676.1940 307.6914037  +6.4125253     1064.733     1503.016     2034.939     77.89785     155.9201     312.0887      1.390     3.40     842.7068     55.03808     185.3242        11     1.116     0.619 -37.84   0
       245    729.9946    673.8329 307.6185637  +6.4193706     3788.735      5371.51     5499.551     77.64857     155.9822     312.0577      1.443     3.06     842.6677     55.03808     595.1821        22     1.298     0.864 -42.30   0
       246    752.0411    672.0591 307.6094685  +6.4208391     4490.112      6367.76      6409.33     78.27027     156.1685     312.3061      1.469     3.29     842.4561     55.03808     685.8242        26     1.307     0.957 -35.07   0
       247    583.4918    669.9090 307.6795281  +6.4160935     3659.737     5035.864     5489.012     78.27026     156.6643     312.3061      1.464     3.26     843.1355     55.03808     551.2858        24     1.323     0.927 -36.75   0
       248    419.5210    670.6326 307.7475888  +6.4103055     1590.014     2090.521     2215.495     78.14632     156.1686      312.244      1.417     3.81     841.9401     55.03808      225.803        15     1.235     0.840 -31.64   0
       249    244.0312    669.3452 307.8204982  +6.4049521     1793.641     2464.873     2490.833     78.14632     156.2306      312.213      1.464     3.47     841.3227     55.03808     261.2094        15     1.176     0.792 -57.74   0
       250   1023.5706    668.5280 307.4968353  +6.4313518     2569.527     3157.225     3337.995     69.33925     125.7762     236.6202      1.110     2.73     838.7823     55.03808     545.7865        14     1.198     0.594 -88.62  24
       251    327.3339    668.9179 307.7859242  +6.4079232     1493.965     2305.081     2738.219     78.51757     156.4166     312.3061      1.744     3.67     841.6133     55.03808     215.1524        13     1.137     0.732 -39.86   0
       252    990.3461    667.1000 307.5106795  +6.4308346     8471.849     12244.97     12440.81     78.02219     156.1685     312.5233      1.525     3.08     839.7538     55.03808     1127.603        36     1.369     1.090 -32.35   0
       253    544.4119    667.5111 307.6958358  +6.4157758     770.2546     980.8402     845.4791     78.02219     155.8579     312.1508      1.446     4.74     842.3932     55.03808     114.1403         7     0.942     0.675 -68.42   0
       254    710.4701    665.5596 307.6269481  +6.4221336     1109.281     1612.822     1242.422     78.14632     156.1686     312.3061      1.533     3.10      842.796     55.03808     187.1207         9     1.079     0.541 -27.93   0
       255    101.8194    664.1136 307.8797216  +6.4023351     833.1552     1147.628     1208.393     78.02219     155.9201     312.1508      1.536     5.30      841.154     55.03808     105.6144        10     1.276     0.621 -16.44   0
       256    148.7860    660.4635 307.8603439  +6.4054200     25955.73     37016.54     38909.54     77.77331     155.9822     312.0887      1.530     3.13     841.0114     55.03808     3910.383        53     1.429     1.113 -29.02   0
       257    817.1115    661.2014 307.5828120  +6.4274935     1384.524     1929.466      2162.81     77.52364     155.7335     311.9955      1.475     4.52     842.1832     55.03808     179.0444        13     1.155     0.853  -9.20   0
       258    435.6559    661.3275 307.7412019  +6.4146871     3011.056     4468.443     4507.866     78.14632     156.1065      312.213      1.565     3.25     841.8583     55.03808     463.6602        22     1.288     0.949 -31.35   0
       259    610.2882    655.0227 307.6689006  +6.4231347     579.9263     754.4296     565.4984     78.27026     155.9822     312.1198      1.373     4.69     843.0618     55.03808     101.7437         6     1.283     0.486  12.38   0
       260    368.1263    655.3245 307.7694435  +6.4149021     784.1089      1094.54     1165.252     78.51757     156.4166     312.3061      1.484     4.58     841.3251     55.03808     137.0037         7     1.030     0.639 -17.67   0
       261    985.2328    650.0348 307.5133729  +6.4377089     7124.512      11341.7     11894.94     77.89784     155.9201     311.9955      1.701     3.22     839.3712     55.03808     962.3946        39     1.389     1.265  -5.46   0
       262     29.8492    649.2683 307.9101042  +6.4060431     1329.386     1775.974     1493.991     78.14632     156.1065      312.244      1.363     2.79     840.9628     55.03808     230.1107        11     0.961     0.722 -35.37   0
       263    578.7885    645.2719 307.6823076  +6.4261063     51920.59     73092.51     76584.46     77.77331     155.7957     312.0577      1.489     3.15      842.454     55.03808     8313.867        69     1.464     1.133 -36.07   0
       264    537.8287    645.6686 307.6993023  +6.4245720      712.813     1055.709      973.659     78.02219     156.1685     312.1819      1.445     3.43     842.1757     55.03808     111.9326         7     0.844     0.595 -30.81   0
       265    221.8529    646.4482 307.8304776  +6.4136591     728.6339     761.7927     808.4171     78.39401     156.1685      312.244      1.339     4.19     840.4954     55.03808     97.86115         7     1.039     0.483   7.44   0
       266    804.0187    644.5378 307.5888065  +6.4339353      677.148     897.4268     1587.574     77.89784     156.1065     312.1198      1.601     3.03     842.1021     55.03808     123.0905         6     0.889     0.523 -69.61   0
       267    186.3450    641.8378 307.8453763  +6.4143700     2989.719     4104.469     4248.829     78.27027     156.2306      312.275      1.428     3.26     840.3538     55.03808     455.3854        20     1.279     0.831 -46.96   0
       268    989.8167    641.6116 307.5117508  +6.4413387     765.9764      984.568     857.1011     78.02219     155.8579     312.1508      1.474     5.04     838.9802     55.03808     88.10522         9     1.214     0.591 -40.97   0
       269    508.5991    641.9218 307.7115652  +6.4251403     668.7408     806.1747     807.2271     77.52364     155.6089     312.0266      1.272     3.23     842.0149     55.03808     113.0887         6     0.897     0.534 -20.41   0
       270     78.9208    636.3280 307.8901658  +6.4130347     1466.978     2125.059      2438.64     78.51757     156.4166      312.213      1.434     3.75     840.5916     55.03808     266.3831        14     1.220     0.827 -51.63   0
       271    476.0302    629.0795 307.7255202  +6.4293511     68025.62     96166.22     100863.8     78.14632     156.2306      312.213      1.487     3.08     841.6192     55.03808     10453.69        80     1.473     1.176 -37.28   0
       272     19.6400    630.6702 307.9149704  +6.4133766     1851.717      2805.56     3524.885     78.14632     156.1686     312.3061      1.749     3.16     840.7056     55.03808     284.0561        19     1.262     0.880 -53.35   0
       273    661.6983    626.3154 307.6485154  +6.4367038     1045.716     1493.766     1303.547     78.27027     156.6024     312.3061      1.518     2.95     841.9828     55.03808      201.506         9     0.906     0.732 -21.68   0
       274    150.6359    624.0464 307.8608026  +6.4205145     1723.322     2407.018      1626.25     78.02219     156.1685     312.1508      1.469     3.73     839.7975     55.03808     279.2497        14     1.187     0.785 -45.49   0
       275    429.9645    621.9014 307.7448896  +6.4307712     926.5474     1294.069     1388.385     78.27027     156.0444     312.4302      1.527     3.04      841.002     55.03808     172.3121         7     0.888     0.490 -46.11   0
       276    945.8378    621.6860 307.5306794  +6.4480987     547.9841     578.9459     45.21016     78.27027     156.1065      312.244      1.260     3.88     839.5116     55.03808     91.86761         6     1.057     0.409 -13.02   0
       277    621.7665    620.7613 307.6652833  +6.4376616     873.8414     1315.555     1328.649     78.02219     155.9822     312.0266      1.493     4.47     841.7842     55.03808     122.0887         8     1.003     0.567 -25.70   0
       278    504.2516    620.1722 307.7141006  +6.4339729     483.1804     598.3025      1103.31     77.89784     156.2926     312.1508      1.497     3.40      841.679     55.03808     77.80682         5     0.956     0.349 -44.03   0
       279    321.6620    618.3214 307.7899809  +6.4286186     2240.833     3240.021     3222.494     78.39402     156.2306      312.275      1.555     3.25     839.7535     55.03808     351.9688        17     1.091     0.943  -4.80   0
       280     29.5632    618.4550 307.9112622  +6.4187525     686.4819     979.4706     1685.911     78.14632     156.1686      312.275      1.919     5.32     840.4565     55.03808     98.27814         8     1.330     0.602 -15.67   0
       281    473.7991    616.7266 307.7268615  +6.4343756     1050.321     1672.933      2231.96     77.64857     155.6089     312.0887      1.746     4.55     841.3841     55.03808     137.2718        10     0.984     0.720 -33.26   0
       282    748.1018    612.5759 307.6130963  +6.4452623     5639.806     7859.729     8051.786     78.39401     155.9201     312.0887      1.448     3.15     841.5397     55.03808     797.9387        24     1.231     0.930 -44.39   0
       283    801.6404    607.8716 307.5910214  +6.4489917     14959.48      20695.2     21085.21     78.14632     156.1685     312.3061      1.458     3.10     841.7814     55.03808     2249.406        36     1.330     0.998 -40.84   0
       284   1019.0224    608.4404 307.5007308  +6.4560048     857.1924     1215.828     1159.166     77.89784     155.9822     295.8572      1.649     4.09     837.2104     55.03808     114.1381         9     0.978     0.715 -30.23  16
       285    543.9185    607.9954 307.6980379  +6.4403271     1368.622     2114.367     2036.951     77.77331     155.7335     311.9645      1.515     3.67     841.8395     55.03808      245.439        12     1.161     0.692 -51.81   0
       286    625.5338    605.8344 307.6642195  +6.4439493     3160.082     4368.129     4142.606     78.14632     156.2306     312.3061      1.485     3.05     841.3019     55.03808     457.8907        22     1.212     0.942 -26.87   0
       287     46.6107    607.1633 307.9045647  +6.4239869     668.7852      594.488      828.795     77.77331     155.9822     311.9334      1.239     4.53     840.2086     55.03808     138.4794         7     1.004     0.581 -38.12   0
       288    942.8671    602.0590 307.5325691  +6.4561017     1177.744     1735.089     1881.718     78.39401     156.1065      312.244      1.631     3.50     838.9584     55.03808      219.098        13     1.033     0.931  -5.97   0
       289    383.8889    599.7049 307.7647679  +6.4383897     1080.907     1663.005     1489.614     78.27027     156.5405     312.3061      1.642     5.26     839.6658     55.03808     162.3895        13     1.329     0.750 -20.59   0
       290    237.9730    599.4577 307.8253660  +6.4335972      1362.75      2078.23     2433.799     77.89784     156.2306     312.0887      1.777     3.56     839.0378     55.03808     189.8529        11     0.985     0.796 -43.58   0
       291    877.7273    591.1800 307.5599836  +6.4584207     3013.546     4137.621     4688.124     77.89784     156.1065      312.213      1.420     3.07     840.5779     55.03808     464.1274        19     1.200     0.874 -40.77   0
       292    173.0471    590.7172 307.8526197  +6.4350251     770.4974     1350.599     2018.787     78.27027     156.1685      312.244      1.922     3.60     838.9352     55.03808     143.6218         7     0.876     0.669 -74.82   0
       293    836.4335    588.6307 307.5772170  +6.4580955     2686.012     3709.406     4126.317     77.77331     155.9201     311.9955      1.444     3.02     840.9955     55.03808     389.2605        21     1.319     0.871 -32.62   0
       294    807.4250    584.5801 307.5893989  +6.4587996     2689.511     3821.439     4941.924     77.89785     155.9822     312.1819      1.682     2.71     840.9728     55.03808     464.7156        19     1.233     0.848 -31.07   1
       295    817.0101    579.7451 307.5855803  +6.4611153     168927.1     238593.3     250323.7     77.64857     156.1065     311.9334      1.483     3.07     840.7384     55.03808     24671.95       120     1.522     1.244 -41.50   0
       296    749.9266    584.9009 307.6132654  +6.4567474     713.3154     912.9787     1030.733     77.89785     156.2926      312.213      1.362     3.98     840.8641     55.03808     109.2181         6     0.979     0.464 -54.26   0
       297    264.3793    583.4654 307.8149394  +6.4410849     8388.057     11791.35     11944.27     77.89785     156.1686     312.1508      1.498     3.06     838.7383     55.03808     1250.105        33     1.338     1.030 -35.76   0
       298    198.5990    578.0595 307.8424359  +6.4411081     63122.19     90303.91     95793.98     77.64857     155.9201     311.9334      1.534     3.12     838.7071     55.03808     9543.792        80     1.535     1.186 -37.75   0
       299    746.3353    580.2827 307.6149115  +6.4585339     612.1501     653.8546     710.5372     78.39402     156.3547      312.275      1.272     4.51      840.726     55.03808     84.00818         8     0.996     0.580 -20.15   0
       300    122.5534    574.2651 307.8741405  +6.4401197     6719.444      9480.13     9799.643     78.27027     156.1065      312.244      1.516     3.13     839.1972     55.03808      978.772        29     1.335     0.986 -34.52   0
       301    988.0775    571.5212 307.5148149  +6.4702144     1401.925     2212.754     2612.072     78.51757     156.4166     312.3681      1.723     3.39     837.0933     55.03808      206.184        13     1.146     0.739 -26.94   0
       302   1008.6846    570.3509 307.5062962  +6.4713840     851.3894     1060.982     826.3658     78.27027     156.1686     312.3061      1.564     4.74     836.5217     55.03808     109.9771         9     1.142     0.557 -42.95   0
       303    237.1164    569.8842 307.8267172  +6.4457760     789.2361     1233.332     1602.221     78.02219     156.3547     312.3371      1.437     3.76     838.4936     55.03808     127.9581         7     0.884     0.535 -50.10   0
       304    853.6456    566.9949 307.5707932  +6.4676011     4698.419     6770.531     6968.772     77.64857     155.8579     311.9334      1.504     3.08     839.9401     55.03808     746.0233        25     1.228     0.986 -36.29   0
       305    371.9640    565.1835 307.7708802  +6.4522400     18332.29      26165.2     26955.61     77.89784     155.9201     312.0266      1.504     3.17     838.3404     55.03808     2706.492        44     1.402     1.074 -38.75   0
       306    462.3361    565.3625 307.7333466  +6.4551944     766.4244     1176.934     1632.318     78.27027     156.1686     312.3061      1.645     3.96     839.2255     55.03808     138.7621         6     0.903     0.496 -47.02   0
       307    173.9661    564.0759 307.8531354  +6.4460530     2050.977     3197.726     4847.957     78.14632     156.1685      312.213      2.294     3.79      838.574     55.03808     352.8445        19     1.365     0.844 -36.00   2
       308    807.5393    560.3896 307.5901612  +6.4687892     6086.093      8451.78      8945.43     77.64857     156.0444     311.9645      1.497     3.02     840.0851     55.03808     1039.355        30     1.294     1.016 -45.40   0
       309    538.3853    560.0268 307.7019454  +6.4599431     6956.176     9807.984     9606.736     77.89784     156.0444     312.1819      1.454     3.11     840.3242     55.03808     1019.725        28     1.291     0.985 -34.76   0
       310    248.8744    561.8138 307.8221064  +6.4495020     927.9273       1441.1     1560.133     77.77331     155.9201     312.0577      1.810     5.16     838.3065     55.03808     120.6465        10     1.168     0.645 -45.23   0
       311    111.2980    561.1625 307.8792558  +6.4451499     1011.919     1466.793     1280.545     78.27027     156.0444     312.4302      1.382     4.20      839.184     55.03808     176.9001         9     1.166     0.547 -48.46   0
       312    396.5737    556.8073 307.7609425  +6.4565225     1494.055     2240.881      2063.86     77.77331     156.0444     312.0577      1.578     3.49     838.1641     55.03808     188.5964        13     1.028     0.830 -25.70   0
       313    185.4000    553.2440 307.8487524  +6.4509083     7220.125     10628.73     11480.48     77.52364     155.7957     311.8401      1.586     3.24     838.3849     55.03808      1043.35        33     1.380     1.047 -33.72   0
       314    823.9805    552.8148 307.5835870  +6.4724648     1497.901     2202.864     2222.771     77.89784     155.9201     312.1508      1.507     4.16     839.6561     55.03808     220.8896        15     1.224     0.829 -47.47   0
       315    583.1401    553.1282 307.6835918  +6.4642883     2547.721     3917.344     4282.178     78.39401     156.1685     312.3061      1.626     4.48     840.5073     55.03808     353.6953        22     1.596     0.787 -30.46   0
       316    280.5991    549.6827 307.8093411  +6.4555742     92058.63     132620.3     139677.5     77.52364     155.7335     311.9645      1.559     3.15     837.9017     55.03808      12766.4        89     1.529     1.213 -38.07   0
       317    866.3510    553.0314 307.5659840  +6.4737891     709.7541     1016.508     1273.078     78.02219     156.1685     312.1819      1.555     3.62     839.1726     55.03808     124.7453         8     0.978     0.621 -14.98   0
       318     57.0010    551.8333 307.9021164  +6.4471753     5229.879     7912.663     8186.495     77.52364     155.9822     311.9955      1.566     3.15     839.8943     55.03808     806.5507        31     1.330     1.062 -27.37   0
       319    570.0905    547.0667 307.6892143  +6.4663539     974.1967     1241.173      1399.85     78.39401     156.2926      312.275      1.399     3.87     840.2856     55.03808     193.8824        10     1.112     0.609 -28.14   0
       320    980.1271    543.5216 307.5190522  +6.4815079     1555.675     2518.634     2869.188     78.51757     156.4166      312.244      1.798     4.11     836.6146     55.03808     213.4467        18     1.384     0.920 -36.12   0
       321    803.7832    542.1247 307.5923324  +6.4762036     17488.68     24432.01     25047.58     77.77331     155.9201     312.1508      1.473     3.12     839.5162     55.03808     2759.858        41     1.346     1.049 -37.33   0
       322    264.6248    544.6482 307.8161438  +6.4571163     1544.459     2063.638     2440.561     77.89785     156.1686     312.1508      1.364     3.06     837.8663     55.03808     250.1377        12     1.087     0.690 -33.37   0
       323    507.3835    540.5255 307.7154742  +6.4669554     42673.41     66458.99     70829.79     77.77331     155.9201     312.1198      1.713     3.43     839.0271     55.03808     5867.804        76     1.633     1.291 -23.55   0
       324    657.6979    538.8604 307.6531083  +6.4726713     969.4528     1454.336     1916.187     78.02219     156.1685     312.3681      1.664     4.06     839.8895     55.03808     158.5234        12     1.140     0.838   6.32   0
       325     55.6315    537.1806 307.9031792  +6.4531776     1324.345     1864.023      2441.41     77.77331     155.9822     312.1198      1.665     3.59     839.7903     55.03808     198.0112        12     1.066     0.816 -13.55   0
       326    667.4033    535.5430 307.6491891  +6.4743651     3293.217     4708.536     4758.713     77.64857     155.9822     311.9334      1.586     3.33     839.7032     55.03808     467.1489        21     1.282     0.919 -45.64   0
       327    219.8968    536.6810 307.8349855  +6.4589036     1931.915     2948.756     2988.495     78.14632     156.4786      312.275      1.608     3.54     837.7752     55.03808     278.9892        18     1.235     0.940 -34.13   0
       328    105.9243    537.1324 307.8822971  +6.4548884     566.7638     607.1673     304.4225     78.39401     156.2926      312.244      1.232     3.39     838.9177     55.03808     100.5778         6     0.813     0.626  -4.10   0
       329    677.6228    535.4654 307.6449477  +6.4747388     1524.962      2110.37     2432.379     77.89785     156.1686     312.1508      1.591     2.78     839.6191     55.03808     251.3874        12     0.915     0.810 -34.25   0
       330    729.4849    534.5111 307.6234423  +6.4768656     1487.865     2188.129     2076.891     78.02219     156.4166     312.3681      1.491     3.06     839.5349     55.03808     280.1217        13     1.162     0.704 -26.66   0
       331     86.2665    532.9425 307.8906012  +6.4559571     723.6792      1073.13     956.6669     78.39401     156.1065      312.244      1.498     4.62     839.1935     55.03808     93.52185         8     0.980     0.619 -27.11   0
       332    405.1129    531.1562 307.7582586  +6.4673973      1813.34     2853.308     3141.591     78.27026     156.0444      312.244      1.613     3.17     837.0563     55.03808      268.235        16     1.126     0.845 -41.15   0
       333    336.4498    529.4100 307.7868306  +6.4658161     4172.557     5903.441     6412.274     77.77331     156.0444     311.9334      1.522     3.17     837.0752     55.03808     646.3074        24     1.302     0.938 -41.37   0
       334    151.6947    528.0450 307.8635974  +6.4601777     27270.05     39343.28     41178.74     78.14632     156.1065     312.3681      1.543     3.21     837.9915     55.03808     4069.246        58     1.462     1.160 -39.75   0
       335    516.4852    528.7320 307.7120904  +6.4721284     2331.396     3329.946     3326.745     78.39402     156.4166      312.275      1.553     3.32     838.6499     55.03808     325.3909        17     1.269     0.778 -53.86   0
       336    879.7603    528.1248 307.5612485  +6.4845179     1530.161     2183.833     2116.412     78.14632     156.1685      312.275      1.496     3.24     838.2641     55.03808     267.8268        15     1.104     0.869 -29.26   0
       337    422.4735    527.6196 307.7511681  +6.4694389     581.2488     803.2938     680.3235     77.89785     156.1065     312.1819      1.764     4.24     836.9708     55.03808     83.30383         5     1.058     0.485   0.49   0
       338    116.8089    526.2792 307.8781432  +6.4597343     2957.918     4304.354     4581.233     77.89784     155.7957     312.0887      1.577     3.35     838.5432     55.03808     479.7042        22     1.312     0.893 -28.30   0
       339    353.8660    524.8697 307.7797510  +6.4682743      1098.25     1467.477     1786.347     78.27026     156.2306      312.244      1.355     3.00      836.939     55.03808     187.2159        11     0.990     0.716 -77.51   0
       340    977.2888    522.6171 307.5209295  +6.4900428     5254.671     7556.688     7710.828     78.02219     155.9201     312.1198      1.531     3.12     836.4852     55.03808     697.3232        26     1.291     0.965 -35.50   0
       341    550.3541    515.2359 307.6984785  +6.4788331     1625.164     2320.452     2139.662     78.02219     156.1065     312.1508      1.537     3.53     838.5371     55.03808      207.071        17     1.179     0.888 -46.05   0
       342     15.9681    512.4299 307.9204840  +6.4620599     26508.85     38618.78     41197.95     77.77331     155.9201     311.9955      1.536     3.18     840.3098     55.03808     3851.941        55     1.459     1.153 -37.00   0
       343    448.7231    509.2081 307.7408860  +6.4779184      45988.4      65202.8     68722.55     77.89784     155.6712     312.0577      1.508     3.13     836.5504     55.03808     7235.128        71     1.489     1.157 -35.19   0
       344    656.7420    508.8756 307.6545106  +6.4850170     13252.91     18643.98      19299.6     78.39401     156.1685      312.213      1.485     3.11     838.5801     55.03808     1973.615        38     1.366     1.037 -30.65   0
       345    296.6880    509.4060 307.8040153  +6.4727397     949.5457     1251.335     1525.104     77.77331     155.8579     311.9955      1.611     3.79     836.1807     55.03808     144.6025        10     1.094     0.649 -44.37   0
       346    875.9363    508.1943 307.5635034  +6.4926177     3158.251     3329.718     3025.258     77.64857     155.9201     312.0266      1.068     3.72     837.9456     55.03808     1091.165         8     1.089     0.366 -85.38   0
       347    213.8619    506.7809 307.8384983  +6.4710433     19703.81     30421.59     32236.45     77.89784     156.1065     312.1198      1.654     3.25     836.5617     55.03808     2641.418        52     1.457     1.252 -24.84   0
       348    990.5795    507.1590 307.5159265  +6.4968668     1204.193     1700.927     1977.129     77.89784     155.9822     312.0577      1.457     2.77     836.1514     55.03808     208.3802        11     0.981     0.696 -45.09   0
       349    919.3931    506.6998 307.5455057  +6.4946838     771.3585     1029.873     1319.303     78.02219     155.7957     312.0266      1.199     3.10     837.1306     55.03808     135.5333         5     0.721     0.458 -72.30   0
       350    830.9255    506.8599 307.5822409  +6.4916668     1091.828         1493     1189.766     78.51757     156.1685      312.213      1.438     4.35     838.3095     55.03808     129.8114        11     1.007     0.784 -32.32   0
       351    578.4578    505.6912 307.6871278  +6.4837135     3032.268     4212.858     4000.594     78.14632     156.1065     312.3371      1.506     3.22     838.1788     55.03808     449.5714        21     1.226     0.953 -50.33   0
       352    952.3408    502.8677 307.5319506  +6.4973640     4857.503     6929.372     7469.361     78.39401     156.1065      312.244      1.528     3.22     836.5808     55.03808     654.3225        26     1.317     0.974 -34.87   0
       353    625.5531    501.2299 307.6677194  +6.4871303     6910.877     9645.097     9759.676     77.89785     156.2306     312.1508      1.483     3.15     838.0764     55.03808     1087.961        31     1.331     1.014 -33.30   0
       354    113.2213    501.7649 307.8804592  +6.4697327     1102.125     1663.372     1758.801     77.77331     155.9822     311.9955      1.478     3.85     838.1682     55.03808     182.1133         9     1.160     0.624 -45.17   0
       355    179.4758    507.9524 307.8527380  +6.4694049     1717.693     2383.062     1840.779     78.14632     156.2306      312.244      1.457     3.63      837.001     55.03808     216.8098        16     1.138     0.925 -61.68   0
       356    975.0886    495.1188 307.5227623  +6.5013209     3540.052     5017.918     5049.678     78.02219     156.3547     312.3371      1.477     3.26      836.233     55.03808     547.1093        20     1.188     0.931 -45.66   0
       357    413.3713    494.1780 307.7560719  +6.4829382     752.8341     1102.789     1690.152     77.77331     155.9822     312.1198      1.577     5.56     835.3226     55.03808     102.9871         9     1.085     0.804 -52.16   0
       358    537.7291    492.4525 307.7044861  +6.4878154       8002.8     11054.73     11460.99     78.14632     156.1065      312.244      1.498     3.10     837.2527     55.03808     1191.866        30     1.306     0.960 -37.91   0
       359      1.4794    506.2875 307.9267076  +6.4641078     15979.98      21545.3     23856.87      69.8962     126.4679     237.5198      1.320     3.09     840.5664     55.03808     4392.207        42     1.841     0.805 -89.33  24
       360    383.7686    492.6413 307.7684169  +6.4825804     2778.536     4019.348     4376.809     77.77331     155.9822     312.1198      1.572     3.50     835.5037     55.03808     408.9014        19     1.328     0.833 -37.62   0
       361    753.2738    492.7093 307.6149633  +6.4949159     583.4467     782.1415     778.7598     78.27027     156.4166      312.275      1.258     4.66     838.0646     55.03808     79.94434         8     0.962     0.640  84.61   0
       362    106.8655    492.1810 307.8834216  +6.4734751     720.7378     1098.804     1241.043     77.89784     156.1685     312.1508      1.711     4.48     838.1435     55.03808     109.2026         9     1.004     0.850 -19.99   0
       363    894.2791    488.3694 307.5565487  +6.5014132     3374.227      4528.35     5806.999     78.14632     156.1686      312.213      1.471     2.92     837.1926     55.03808     532.7865        20     1.190     0.866 -31.13   0
       364    547.3466    488.8633 307.7006126  +6.4896189     726.5076      1024.59     1185.203     78.27027     156.1065      312.213      1.471     5.06     837.2133     55.03808      97.9964         8     1.118     0.657 -40.21   0
       365    242.3988    488.1454 307.8272754  +6.4796938     759.4305     968.5219     674.1517     77.64857     155.9201     311.8712      1.570     3.97     835.5078     55.03808     120.1622         7     1.093     0.662 -33.81   0
       366    901.6486    482.6936 307.5536780  +6.5040019     2360.936     3454.435     3437.181     78.14632     156.0444     312.3681      1.558     3.01     836.9188     55.03808     354.1847        16     1.206     0.783 -41.23   0
       367    941.0381    482.1142 307.5373385  +6.5055544     1320.721     1945.485     1858.748     78.27027     156.1065      312.244      1.490     3.78     836.2667     55.03808     190.6758        13     1.195     0.751 -35.91   0
       368    120.5317    481.9190 307.8780925  +6.4781704       876.16     1272.922     1266.588     78.39401     156.4166      312.275      1.587     4.59     837.5615     55.03808     108.6103         8     1.099     0.544 -37.59   0
       369    648.0873    481.2555 307.6590309  +6.4961291     3341.093     3221.707     2976.696     78.27027     156.0444     312.3992      0.804     1.95       837.25     55.03808     1332.003         5     0.755     0.354  22.47   0
       370    725.5276    478.6591 307.6269570  +6.4997890     3155.873       4438.9     4443.652     78.39402     156.1686      312.213      1.491     3.19     837.5454     55.03808      476.426        19     1.199     0.897 -44.20   0
       371     87.3918    477.7840 307.8919936  +6.4787632     1903.019     2776.577     3301.738     77.89785     155.9201     312.0887      1.528     3.78     838.3849     55.03808      254.521        16     1.254     0.857 -58.84   0
       372    396.3606    476.9143 307.7637164  +6.4894944     4028.098     5936.909     6138.937     78.27027     156.1685      312.244      1.540     3.29     834.7533     55.03808     560.8438        25     1.267     1.028 -45.19   0
       373    436.8640    477.0062 307.7468929  +6.4908138     1050.819      1569.74     2083.698     77.64857     155.9201     312.0266      1.566     4.40     834.9184     55.03808     154.0914        12     1.241     0.703 -28.21   0
       374    624.2095    473.4526 307.6692090  +6.4985517     10629.97     15042.03     15885.76     77.64857     156.0444     311.9645      1.504     3.11     836.6829     55.03808     1555.739        36     1.382     0.994 -37.11   0
       375    786.9175    470.0390 307.6017502  +6.5053976     17582.73     24420.62     25663.66     78.27027     156.2306      312.213      1.457     3.11       837.15     55.03808     2781.925        42     1.400     1.025 -35.48   2
       376    790.9727    465.0351 307.6002336  +6.5075985     1483.957     2105.001       2900.8     77.89784     155.9201     312.0266      1.460     3.31     836.9185     55.03808     253.5289        12     1.095     0.748 -15.44   3
       377    306.6285    470.4013 307.8011996  +6.4891738     2889.344     4025.999     4427.923     77.77331     155.9201     312.0577      1.513     3.63     834.6937     55.03808     427.3789        18     1.326     0.782 -36.84   0
       378    430.2998    469.6554 307.7498659  +6.4936282     690.5715     1011.523     949.1841     78.02219     156.1686     312.5233      1.267     2.31     834.5615     55.03808     142.3878         5     0.716     0.435 -19.63   0
       379    815.8176    467.3017 307.5898394  +6.5074923     1427.299     1932.022     1606.425     78.27027     155.9822     312.0266      1.374     3.23     837.0134     55.03808     262.0964        13     1.133     0.752 -45.39   0
       380    389.6454    466.8672 307.7668429  +6.4934166     1759.608     2512.898     2868.603     78.27027     156.1065      312.275      1.538     2.91     834.4731     55.03808     278.3375        15     1.064     0.837 -47.60   0
       381    972.0946    465.0158 307.5250119  +6.5136477     2031.106     3064.774      3164.64     78.02219     155.9822     312.0887      1.537     3.14     835.3768     55.03808     294.5298        16     1.143     0.816 -34.75   0
       382    719.8863    464.0939 307.6297879  +6.5056130     557.2374     872.4861     1129.556     78.27027     156.6024     312.3061      1.454     3.91     836.8329     55.03808     97.12903         6     0.779     0.561 -47.73   0
       383    124.3772    461.8781 307.8771711  +6.4865721     4683.756     6889.171     7244.983     77.89784     155.9822      312.213      1.551     3.25     836.9472     55.03808     647.2083        27     1.351     0.997 -35.10   0
       384    762.4616    460.9137 307.6122126  +6.5083479     2476.217     3207.692     3465.174     78.27026     156.3547      312.244      1.407     3.10      836.724     55.03808     365.1313        17     1.178     0.811 -52.28   0
       385   1023.7162    459.5425 307.5037553  +6.5176269     871.4886     1042.643     983.0245     67.49743     123.2853     234.1908      1.082     3.10     834.6993     55.03808     206.5022         8     1.121     0.427  82.05  24
       386    282.3512    458.8550 307.8116700  +6.4931254     1626.752     2209.491     2344.275     78.27027     156.1685     312.3061      1.371     2.80     834.3491     55.03808     264.1776        12     0.979     0.742 -36.88   0
       387    360.2906    456.6698 307.7793764  +6.4966418      3263.92     4700.806     4556.428     78.27027     156.2926      312.244      1.564     3.38     834.3195     55.03808     457.1191        21     1.281     0.906 -37.65   0
       388    288.2097    457.2181 307.8092922  +6.4939976     443.3076     759.6978     987.3986     78.02219     155.9201     312.1198      1.908     3.45     834.2637     55.03808     77.54285         5     0.982     0.350 -44.33   0
       389    716.1568    454.4362 307.6316604  +6.5094750     1699.089     2393.908     2314.781     78.02219     156.1065     312.0887      1.468     3.08     836.3611     55.03808     260.7783        14     0.999     0.931 -32.01   0
       390    248.1638    452.5416 307.8260800  +6.4945840     1012.886     1384.419     1477.702     78.27027     156.1685      312.275      1.454     3.92     834.3348     55.03808     181.6608        12     1.199     0.728 -20.18   0
       391    557.5955    447.3551 307.6977494  +6.5070961     1113.152     1398.547     1191.703     77.64857     155.8579     311.9334      1.346     4.39     835.3169     55.03808     189.7118        10     1.225     0.543 -48.98   0
       392    459.0547    448.1123 307.7386481  +6.5034843     560.0524     602.6093    -58.60461     78.27027     156.0444     312.3992      1.310     4.00     834.0964     55.03808     81.32886         6     0.959     0.476 -36.64   0
       393    480.0617    445.3393 307.7300171  +6.5053326      1468.98      1975.98      1712.21     78.27027     156.1685      312.275      1.447     3.23      834.145     55.03808     228.5049        13     1.143     0.716 -47.92   0
       394    842.6349    444.5413 307.5794636  +6.5177827     1503.361     2081.032     2523.833     78.14632     156.1686      312.213      1.571     3.78      835.995     55.03808     213.6158        15     1.160     0.853 -12.25   0
       395    828.0715    443.5131 307.5855465  +6.5177211     2098.841     2882.863     2677.514     78.39401     156.4166      312.244      1.408     2.96     835.9487     55.03808      299.918        17     1.189     0.798 -37.98   0
       396    725.3850    441.7547 307.6282528  +6.5150183     15753.18     21884.16     23136.44     77.64857     155.9822     312.0266      1.473     3.02     835.8093     55.03808     2326.462        40     1.366     1.022 -37.19   0
       397    627.4189    443.5883 307.6688778  +6.5109869     970.0406     1225.996     985.8655     77.89785     155.8579     312.1508      1.554     4.86     835.6231     55.03808     121.4955         9     1.148     0.582 -40.64   0
       398    646.4990    437.6771 307.6611518  +6.5140650     2788.516     3896.123     4732.519     77.89785     156.3547      312.275      1.612     3.10      835.476     55.03808      398.164        18     1.209     0.872 -37.32   2
       399    719.5861    436.3649 307.6308418  +6.5170494     801.5605     1051.378     1447.001     77.89785     155.9822     312.0887      1.610     4.76      835.525     55.03808     123.5827         9     1.244     0.516 -39.96   0
       400    621.6833    434.8221 307.6715538  +6.5144137     5755.099     8250.745     8706.439     78.02219     155.8579     312.1198      1.528     3.10     835.2668     55.03808     785.3499        26     1.328     0.962 -39.97   3
       401    617.8640    432.2260 307.6732271  +6.5153576     15757.24     22294.68     23379.91     77.89784     156.1685     312.1819      1.497     3.19     835.1441     55.03808      2419.64        38     1.414     1.003 -36.33   3
       402    950.7069    431.6568 307.5350099  +6.5267056     4062.823     5539.878     6023.835     78.14632     156.1686     312.3992      1.477     3.02     834.1752     55.03808     593.9066        20     1.165     0.891 -26.96   0
       403    389.7889    427.6018 307.7681034  +6.5096297     30795.11     43800.88     45627.85     77.89785     155.8579     312.0577      1.507     3.17     833.1683     55.03808     4472.768        54     1.439     1.109 -37.43   0
       404    426.7544    429.2342 307.7526967  +6.5101948     671.6364     1027.374     913.7228     77.89785     156.1065     312.1198      1.584     5.31     833.1884     55.03808     97.54584         8     1.272     0.626  -0.67   0
       405    906.4615    427.3214 307.5535311  +6.5270202     1691.538     2243.816     2432.682     78.39402     156.2306      312.244      1.442     3.47     834.6094     55.03808     265.2294        14     1.047     0.943 -36.80   0
       406    135.9463    426.9510 307.8735440  +6.5013781     2480.066     3431.319     3592.187     78.27027     156.1685     312.3061      1.500     3.38     835.7386     55.03808     360.7744        17     1.264     0.788 -39.42   0
       407    902.8314    424.5362 307.5551320  +6.5280488     850.4194     1616.417     2016.653     78.02219     156.2306      312.213      2.201     4.26     834.5682     55.03808     103.9946         9     0.912     0.735 -15.38   2
       408     69.0893    422.4954 307.9014586  +6.5009696     1521.119     2401.673      2493.87     78.27026     156.5405     312.3061      1.676     3.57     836.9312     55.03808     227.7087        17     1.197     0.899 -44.61   0
       409    919.3578    421.9969 307.5483530  +6.5296481     5271.146     7398.652     7311.885     77.64857     155.8579     311.9645      1.481     3.19     834.2418     55.03808     782.8187        26     1.279     0.982 -40.62   0
       410    601.3178    423.2942 307.6803986  +6.5184912     730.3264     968.3773     824.1562     78.02219     156.4786     312.3681      1.529     3.97     834.7197     55.03808     108.9879         6     0.907     0.497 -43.49   0
       411    975.6909    419.7369 307.5250317  +6.5324588     684.0944     839.4376     300.2185     78.27027     156.2926     312.3371      1.266     2.80     833.2696     55.03808     121.2786         6     0.733     0.575  43.81   0
       412    247.3044    418.1152 307.8275959  +6.5087658     14613.55     21005.61     21758.05     78.27027     156.5405     312.3371      1.524     3.18     833.2969     55.03808     2014.102        41     1.421     1.055 -35.21   0
       413     83.0614    412.0960 307.8960070  +6.5057321     837.3868     1279.611     1102.186     78.02219     156.2306     312.3061      1.590     5.10     836.4034     55.03808     123.7017        10     1.414     0.609 -52.73   0
       414    742.0772    411.6733 307.6223281  +6.5279934     820.1856      1146.61     1303.396     78.51757     156.4166      312.275      1.416     4.67     834.4558     55.03808     149.4568         9     0.947     0.676 -58.72   0
       415   1020.2043    411.0048 307.5068356  +6.5375465     597.1856     975.5256     966.7037     77.64857     155.7335     283.3729      1.517     3.04     831.9359     55.03808     109.1812         5     0.791     0.491 -32.77  16
       416    970.7425    410.5071 307.5273955  +6.5361040     1139.769     1673.107     932.5918     78.14632     156.1065     312.3681      1.629     4.83     832.9343     55.03808     141.6312        14     1.272     0.755 -27.87   0
       417    710.2428    411.0427 307.6355708  +6.5271902     818.3978     906.9069     856.5424     78.02219     156.1685     312.0577      1.206     2.59     834.3586     55.03808     156.9843         8     0.801     0.649 -45.20   0
       418    360.4630    407.7259 307.7809508  +6.5168510     1534.581     2172.522     2176.497     78.51757     156.1686      312.244      1.599     3.18     832.3884     55.03808     216.6633        14     1.088     0.820 -45.35   0
       419    193.4288    407.6902 307.8503212  +6.5112599       1036.9     1452.281     1862.148     78.39402     155.9201     312.1508      1.590     3.80      833.879     55.03808     148.7504        11     1.030     0.803 -11.08   0
       420    147.6150    406.7280 307.8693797  +6.5101179     5436.629     7807.347     7991.804     77.77331     156.0444     312.1198      1.542     3.25     834.9375     55.03808     735.6245        28     1.354     0.969 -42.63   0
       421    388.0683    406.7372 307.7695194  +6.5181847     451.2187     498.1172     408.6775     78.27027     156.1065     312.3061      1.299     3.83     832.3429     55.03808     82.28882         5     0.850     0.494 -51.56   0
       422    445.1469    405.5008 307.7458558  +6.5206080     761.9886     1038.547     1005.104     78.14632     156.1685     312.4612      1.374     3.24     832.3119     55.03808     121.0973         8     0.859     0.667 -52.49   0
       423    252.3227    405.7627 307.8259277  +6.5140332      1512.42      2034.77     1981.775     78.14632     156.2306      312.244      1.344     3.44     832.8395     55.03808     231.8657        12     1.026     0.755 -31.19   0
       424    833.3147    403.3566 307.5847131  +6.5344727     691.0718     1052.007     631.4353     78.27027     156.0444      312.213      1.714     4.31     834.1975     55.03808     132.6547         8     1.175     0.612 -32.80   0
       425    169.5832    402.5642 307.8603968  +6.5125748     2676.603     4221.877     4421.588     77.89785     155.9822     312.0266      1.747     3.74     834.3165     55.03808     362.7626        24     1.498     0.927 -57.08   0
       426    565.3044    401.5995 307.6960836  +6.5262417     957.9261     1469.919      982.098     77.77331     155.7957     311.8401      1.608     4.04     833.1478     55.03808     145.4538        13     1.266     0.799 -36.33   0
       427    392.9895    397.3441 307.7677914  +6.5222270     2237.837     2971.052     2354.674     77.64857     156.1065     311.9334      1.435     3.16     831.8857     55.03808     315.3954        19     1.241     0.857 -31.13   0
       428    281.4291    397.6419 307.8141132  +6.5183623     897.6179     1145.323     985.7914     77.89785     156.0444     312.1198      1.291     3.08       832.28     55.03808     141.3447         9     1.038     0.586 -73.72   0
       429     11.8079    397.4136 307.9260926  +6.5093958     747.9614     1203.999     911.4998     77.89785     155.9201     312.1198      1.704     4.71     836.9611     55.03808     105.7895         7     1.004     0.627 -26.80   0
       430    981.8408    396.1402 307.5232662  +6.5424045     927.8368     1449.769     1966.564     78.27026     156.1685     312.3061      1.833     4.09     831.9124     55.03808     163.8882         9     1.192     0.488 -34.53   0
       431    446.9803    390.9263 307.7455841  +6.5266856     7611.142     11287.25     11815.34     77.89784     156.1065     312.1819      1.551     3.19     831.6483     55.03808      1136.34        31     1.411     1.008 -47.00   0
       432     43.2645    391.6904 307.9132223  +6.5128165     3394.409     5279.922      5546.32     78.14632     156.3547     312.3061      1.707     4.22     836.3558     55.03808     462.7883        26     1.506     0.962 -44.94   0
       433    779.3847    390.0372 307.6075580  +6.5381707     2097.597     2761.157      3169.29     77.89784     155.9822     311.9955      1.353     3.12     833.6851     55.03808      314.032        16     1.180     0.774 -34.85   0
       434    618.2656    391.3293 307.6744323  +6.5322530     393.5997     658.6897     939.4862     78.27027     156.2306      312.244      1.198     3.42     832.9258     55.03808     93.16107         5     1.216     0.279 -34.92   0
       435    787.5119    388.2831 307.6042412  +6.5391661     14120.06     19366.62     20439.55     78.02219     156.3547      312.275      1.468     3.03      833.624     55.03808     2334.737        41     1.367     1.088 -35.21   0
       436    351.1768    386.9351 307.7855067  +6.5251218       1189.8     1715.189     1613.429     77.89784     156.1685     312.1508      1.477     4.10     831.4347     55.03808     155.1343        13     1.211     0.824 -18.36   0
       437    962.5749    379.9204 307.5318104  +6.5484580     689.0665     1004.593     1120.064     78.02219     155.9822      312.213      1.517     4.64     831.7823     55.03808     122.5568         7     0.922     0.662  29.81   0
       438    195.9305    379.2717 307.8502396  +6.5230746     767.3135     1061.091     805.2993     78.39401     156.2926     312.1819      1.474     4.48     832.9731     55.03808     114.4651         8     0.950     0.693  59.51   0
       439      2.1653    377.5527 307.9307674  +6.5172693     1061.288     1565.519     2403.616       76.263     135.8538     248.1381      2.133     6.03     836.4797     55.03808     148.8533        14     1.136     0.985  24.04  24
       440    495.1829    374.6427 307.7261117  +6.5350219     3255.612     4785.212     4921.154     77.77331     156.0444     311.9955      1.526     3.07     831.0688     55.03808     474.1708        26     1.396     0.995 -44.20   0
       441    402.2381    377.3838 307.7646214  +6.5307764     512.0975     675.3868     721.1803     77.89785     155.9822     311.9955      1.035     2.51     830.9714     55.03808     101.3245         5     0.691     0.472  13.45   0
       442    535.7716    375.7899 307.7092156  +6.5359073     537.5707     820.0136      952.205     77.89784     155.9822     312.0887      1.570     3.42     831.3117     55.03808      86.3327         5     0.967     0.349 -42.91   0
       443    467.2943    375.1231 307.7376783  +6.5338895     2426.414     3497.893     3809.914     78.02219     156.2926     312.3061      1.531     3.23     830.9784     55.03808     354.6442        18     1.235     0.838 -33.34   0
       444    923.6768    374.3679 307.5481522  +6.5494534     905.5779     1384.223     1098.019     78.14632     156.1686     312.1819      1.668     3.84     832.9535     55.03808     149.0261         8     1.012     0.654 -32.84   0
       445    852.9469    371.2306 307.5776344  +6.5483894     34610.65     51191.11     53299.68     78.14632     156.2306     312.1819      1.565     3.26     833.0699     55.03808     5108.274        58     1.507     1.138 -52.38   0
       446    344.8750    366.9716 307.7887955  +6.5331511     966.3248     1468.489     1454.647     78.14632     156.1685      312.213      1.660     4.32      830.535     55.03808     147.9627        10     1.154     0.685 -31.17   0
       447    624.7076    363.6783 307.6726843  +6.5438826     2837.287     4073.842     4386.205     78.02219     156.3547      312.275      1.550     3.05     831.2258     55.03808     433.3625        19     1.209     0.900 -39.04   0
       448     32.7911    364.0652 307.9185039  +6.5238672     1179.569      1635.04     1336.641     77.77331     156.0444     312.1198      1.460     3.84     835.5986     55.03808     180.9901        13     1.122     0.786   7.20   0
       449    709.3802    357.2256 307.6377329  +6.5493768     86326.84     119891.7       125660     77.89785     155.9822     312.1508      1.494     3.07     831.8281     55.03808      13256.3        87     1.474     1.181 -36.24   0
       450    155.9655    361.8640 307.8674237  +6.5289174     626.3621     627.2625     1087.601     78.14632     156.1685      312.244      1.188     3.54     833.4968     55.03808     113.7282         5     0.799     0.507 -54.61   0
       451    867.4713    358.7988 307.5720178  +6.5540058     1408.013     1923.861     1917.406     77.64857     155.7335     312.0887      1.439     3.83     832.6566     55.03808     213.3405        13     1.160     0.756 -30.99   0
       452     88.7652    356.5651 307.8955109  +6.5288458      1230.12     1753.216     1821.518     78.02219     155.9201     311.9955      1.444     4.13     834.6239     55.03808     183.4334        13     1.177     0.811 -39.09   0
       453    571.8772    353.8900 307.6949551  +6.5461558     2886.237     3873.955     3914.028     78.14632     156.4166      312.275      1.414     3.04     830.2112     55.03808     430.1853        19     1.181     0.877 -41.01   0
       454    950.9059    354.1430 307.5375189  +6.5587100     840.1964     1076.613     1239.241     78.14632     156.1685     312.4302      1.335     4.06     831.3117     55.03808     141.3532         7     0.905     0.521 -44.08   0
       455    109.0995    352.6648 307.8871975  +6.5311394     6647.876     9442.494     9818.541     78.27027     156.2926      312.213      1.498     3.14     834.1605     55.03808     962.2697        31     1.343     1.025 -44.60   0
       456    555.1293    350.1313 307.7020372  +6.5471469     7752.928     10841.61     11269.88     78.27026     156.2926      312.213      1.439     2.97     829.9191     55.03808     1225.153        28     1.284     0.951 -37.00   0
       457    284.0730    347.7067 307.8146959  +6.5390634     2941.283     4334.704     4244.617     78.14632     156.2926     312.3061      1.528     3.50     830.0494     55.03808     424.4144        22     1.325     0.932 -34.31   0
       458    418.0166    345.2855 307.7591473  +6.5445550     27496.12     39253.91     40809.22     77.89784     155.9201     312.1819      1.504     3.11     829.4464     55.03808     3990.172        48     1.433     1.070 -32.93   0
       459    919.6372    345.9238 307.5507814  +6.5610605     1490.666     1661.149     1602.656     78.14632     156.2306      312.275      0.687     1.01     832.0953     55.03808     674.2766         5     0.499     0.411  27.99   0
       460    596.6777    344.7220 307.6849622  +6.5507700      721.223      924.197     1074.872     78.51757     156.4166     312.3371      1.495     5.21     830.0805     55.03808     136.4366         9     1.283     0.597 -37.39   0
       461    525.6622    343.8504 307.7144868  +6.5487532     1404.124     1857.065     2118.081     78.27027     156.1065     312.3061      1.446     3.69     829.6341     55.03808     204.6353        11     1.048     0.714 -44.10   0
       462    398.0853    343.2308 307.7674944  +6.5447351     1302.834     1886.513     2177.741     78.27026     155.9822     312.1198      1.525     3.65     829.3719     55.03808      205.126        12     1.200     0.634 -32.38   0
       463    684.6098    343.3723 307.6484855  +6.5542676     530.2226     788.4135     672.8007     77.89785     155.9822     312.1198      1.409     3.38     830.9016     55.03808     89.15601         5     1.044     0.317  21.51   0
       464    497.7265    340.4885 307.7262024  +6.5492056     1277.326     1796.175     1848.961     78.27027     156.4166      312.275      1.416     3.58     829.4879     55.03808     196.0939        13     1.221     0.674 -43.21   0
       465    812.9315    337.4008 307.5953873  +6.5610188     814.8881     1397.634     954.0501     77.77331     155.7335     312.0577      1.782     5.09     831.9566     55.03808     142.6423         9     1.050     0.929 -84.09   0
       466    507.1187    335.6994 307.7224624  +6.5514970     9210.976     13297.07     13424.88     78.27027     156.6024     312.3371      1.504     3.19     829.3187     55.03808     1324.501        36     1.405     1.032 -39.42   0
       467    395.1367    337.5858 307.7689089  +6.5469665     825.3488     1333.184      2155.21     77.77331     156.0444     312.0887      1.809     5.42       829.13     55.03808     125.4164         9     1.262     0.657 -39.88   0
       468    776.2109    334.4891 307.6107368  +6.5609948     3430.087     4759.979      4945.64     78.02219     155.9201     312.0577      1.529     3.04     831.8484     55.03808     528.5289        21     1.254     0.947 -20.05   0
       469    931.7287    334.1776 307.5461520  +6.5663125     857.3121     1012.122     1102.938     77.89784     155.9822      312.244      1.316     4.46      831.315     55.03808     147.2548         9     1.148     0.561 -42.48   0
       470    724.1137    333.8334 307.6323974  +6.5595253     935.6625     1330.671     1558.942     78.27026     156.0444      312.244      1.413     5.58     831.5157     55.03808     116.6609         9     1.327     0.661 -31.13   0
       471    333.6681    332.3594 307.7946144  +6.5470625     1208.159     1689.055     1704.397     78.14632     156.1065     312.3371      1.531     3.11     829.2109     55.03808     178.9047        11     1.038     0.680 -59.57   0
       472     91.7918    330.2014 307.8951430  +6.5398298      558.165     851.9227     1076.917     77.64857     155.8579     312.0266      1.671     3.72     834.0359     55.03808     89.57092         5     0.952     0.419 -44.84   0
       473    446.1027    326.2344 307.7481226  +6.5533603     536.1131     481.5898     228.1371     78.27027     156.0444     312.3992      1.157     3.77     828.6249     55.03808     97.95929         5     1.256     0.325 -48.79   0
       474    269.5348    326.2657 307.8214557  +6.5474259     789.0607     1209.008     1197.604     78.27027     156.1686      312.275      1.599     4.61     829.9622     55.03808     125.4624         9     0.990     0.869  83.50   0
       475    169.2345    326.0733 307.8631191  +6.5441369     1082.243     1297.777      1365.82     78.14632     156.1065      312.244      1.519     4.40     832.2405     55.03808     151.7847        13     1.301     0.664 -40.55   0
       476    396.8958    319.8735 307.7687738  +6.5543368     7695.446     11444.77     12442.82     78.02219     156.2926      312.244      1.546     3.22     828.2241     55.03808     1168.931        32     1.394     1.012 -33.62   0
       477    750.3699    319.8315 307.6219610  +6.5661823     983.8973     1252.489     1512.212     77.77331     155.9201     311.9955      1.336     4.38     831.4663     55.03808     159.2473        11     1.274     0.604 -41.21   0
       478    252.8329    320.4350 307.8285887  +6.5492721     2314.763     3351.792     3424.746     77.89784     155.9201     311.9955      1.487     3.26     830.1815     55.03808      345.521        18     1.181     0.915 -23.43   0
       479    764.8563    315.7523 307.6160806  +6.5683501     58651.59     81308.31     84891.64     78.27027     156.1685     312.3371      1.475     3.10     831.3882     55.03808     8574.105        70     1.417     1.143 -36.85   0
       480    436.4004    315.2110 307.7525228  +6.5575855     2465.725     3373.531     3212.314     77.89785     155.8579     312.0577      1.457     3.19     827.9899     55.03808     336.7233        17     1.233     0.805 -27.49   0
       481    999.7356    312.7851 307.5186196  +6.5774098     1774.343     2468.636     2340.635     77.77331     156.0444     312.1198      1.497     3.53      828.473     55.03808     253.1879        16     1.265     0.770 -32.99   0
       482    940.8173    311.8594 307.5431233  +6.5758284     2403.367     3426.271     3452.881     77.89784     156.0444     311.9955      1.527     3.51     829.9607     55.03808      351.076        17     1.209     0.837 -50.31   0
       483    582.7677    312.4559 307.6918224  +6.5636238     1351.553     1758.648     1656.849     78.14632     156.1686      312.213      1.335     3.08     828.8929     55.03808     256.0692        13     1.082     0.823 -50.30   0
       484    473.4673    311.3249 307.7372579  +6.5604315     1144.818     1729.203     1663.163     78.39402     156.2926      312.244      1.507     4.05      828.144     55.03808     148.0817        13     1.134     0.837 -43.52   0
       485    422.9504    310.7151 307.7582603  +6.5589906      2134.52     3140.367     3386.134     78.27027     156.1685     312.3371      1.560     3.35     827.6595     55.03808      295.265        19     1.250     0.877 -33.81   0
       486    302.7318    310.6075 307.8081951  +6.5550035     828.6392     1178.562     1169.227     77.77331     155.9201     312.1508      1.595     4.10     829.0828     55.03808     132.7048        10     1.308     0.801 -18.33   0
       487    844.4482    305.2909 307.5833716  +6.5753256     1310.869     1901.377     1585.066     78.27027     156.0444     312.3992      1.517     3.62     830.9742     55.03808     187.5819        11     0.978     0.835 -17.95   0
       488    473.4069    305.5580 307.7374768  +6.5628100     825.2332      1160.58     1205.748     77.77331     155.8579     311.9645      1.544     3.54     827.9181     55.03808     143.7913         9     1.016     0.716 -25.53   0
       489    199.3578    302.2441 307.8514111  +6.5549851     2409.207     3688.755      3949.65     78.02219     156.1686     312.0887      1.611     3.60     830.9211     55.03808     357.5373        19     1.310     0.908 -36.95   0
       490    763.3372    300.2770 307.6172301  +6.5746875     6701.158     9186.222     9797.618     78.51757     156.1686      312.213      1.446     3.00     830.9927     55.03808      1048.75        26     1.270     0.922 -39.65   0
       491    453.6570    302.5577 307.7457807  +6.5633868     1029.666     1581.953     2205.569     78.14632     156.1065      312.275      1.412     2.86     827.5742     55.03808      177.601         7     0.907     0.471 -11.72   0
       492    234.9449    300.9758 307.8366735  +6.5567038     650.6611     1004.664     1031.801     77.89784     156.2306     312.0577      1.507     4.74     830.1177     55.03808     99.47742         9     1.282     0.498 -30.18   0
       493    354.1541    299.7860 307.7872017  +6.5611955     711.4181     1249.198     1279.842     77.64857     155.9822     312.0266      1.791     5.09     827.6941     55.03808     98.00647         9     0.997     0.810 -36.55   0
       494     95.8505    299.4290 307.8944952  +6.5526684     1263.274     1986.332     2310.816     77.89784     156.2926     312.1508      1.685     3.90     833.3654     55.03808     180.3289        13     1.086     0.883 -84.44   0
       495    779.7289    298.2343 307.6104900  +6.5760781     2873.135     3976.267      4154.12     78.14632     156.1065      312.244      1.448     3.13     830.9604     55.03808     464.5787        19     1.248     0.797 -39.79   0
       496    482.7125    297.3092 307.7338889  +6.5665266     641.6491     816.2538     866.1281     78.02219     156.6024     312.3681      1.398     5.04     827.6145     55.03808     114.0616         8     1.001     0.725  23.92   0
       497    369.2176    292.9960 307.7811736  +6.5645034     1779.197     3293.072     3936.246     77.89784     155.7335     312.0887      2.079     6.39     827.2209     55.03808     213.4347        21     1.741     0.856  -9.52   0
       498     82.8918    293.4565 307.9000786  +6.5546979     1433.439     2098.394     2066.234     78.14632     156.1065     312.3681      1.576     4.19     833.5827     55.03808     192.1623        15     1.306     0.734 -35.69   0
       499    496.0075    289.1126 307.7286422  +6.5703554     2230.846      3046.72     3388.432     77.77331     155.8579     311.9955      1.413     3.45     827.3248     55.03808     324.1896        18     1.144     0.987 -31.35   0
       500   1017.9719    289.1517 307.5118346  +6.5877732     6261.126     8934.688     9138.619     77.89784     156.2306     304.9567      1.484     3.05     828.1839     55.03808     975.8999        26     1.282     0.957 -32.18  16
       501    258.5553    284.6966 307.8274154  +6.5642163     6197.058     9034.135      9874.48     78.27027     156.1065     312.3992      1.598     3.09     829.4175     55.03808     903.8334        32     1.335     1.064 -40.26   0
       502    777.8401    278.0650 307.6119502  +6.5843408     913.2776     1232.592      1448.92     78.27027     156.1065     312.3681      1.451     4.80     830.2161     55.03808     116.4008         9     1.030     0.634 -53.23   0
       503    392.6421    275.6300 307.7720283  +6.5724573     1641.104     2811.009     3031.165     77.89785     156.1065     312.0887      1.800     4.54     826.4943     55.03808     203.4554        21     1.355     1.106 -52.06   0
       504    235.2985    277.5992 307.8373139  +6.5663651     731.5782     1049.191     1062.847     77.77331     155.7957     311.9334      1.417     3.87     829.6885     55.03808     141.7011         9     1.094     0.619 -13.58   0
       505    798.6319    275.6587 307.6033945  +6.5860284     499.6189     413.6185      389.679     78.14632     156.2306     312.1819      1.172     3.83     830.1093     55.03808     98.77777         5     1.312     0.321 -44.86   0
       506    979.7216    274.1137 307.5282256  +6.5927065     999.6979      1401.43     1395.516     78.27027     156.4786     312.3371      1.404     3.14      827.987     55.03808      187.231         8     1.018     0.495 -33.24   0
       507    162.3891    271.1836 307.8678120  +6.5665641      1923.08     2689.204     3221.127     78.02219     155.8579     312.1508      1.528     3.35     831.0399     55.03808     281.9086        15     1.141     0.809 -50.08   0
       508    572.0291    266.7726 307.6978162  +6.5821221     2440.928     3556.346     3494.086     77.77331     155.9822     312.0577      1.506     3.05     827.0699     55.03808     351.2524        20     1.183     0.919 -49.18   0
       509    916.0700    266.1261 307.5549324  +6.5938819     1810.657     2598.832     2992.045     78.39401     156.2926      312.275      1.488     3.14     828.5966     55.03808      270.731        17     1.152     0.885 -33.33   0
       510    853.7238    266.7061 307.5808104  +6.5915628     654.3395     854.0769     807.1469     78.02219     156.3547      312.244      1.476     4.70     829.4436     55.03808     92.62042         8     0.964     0.650 -84.41   0
       511    735.7073    264.4879 307.6299059  +6.5885381     5619.409     7579.919     7553.899     78.27027     156.6024     312.3371      1.446     2.89     829.6199     55.03808     919.7473        25     1.203     0.945 -40.13   0
       512    676.5792    264.3333 307.6544713  +6.5866259      2287.74     3092.952     3173.504     77.89785     156.1686     312.1819      1.446     3.05     828.7907     55.03808     366.0172        16     1.190     0.772 -39.36   0
       513    314.9494    271.4891 307.8044372  +6.5715608     1287.092     1767.922     1883.633     78.27026     155.9822     312.3681      1.496     3.75     828.0687     55.03808     169.9521        15     1.049     0.991 -24.53   0
       514    391.6373    258.2034 307.7730317  +6.5796170     765.7861     1070.203     860.0649      77.3985     155.9822     312.0577      1.469     4.04     826.1885     55.03808     105.5042         8     1.146     0.588 -27.84   0
       515    931.7249    256.7452 307.5487435  +6.5982763      1279.89     1898.015     1773.152     78.14632     156.1685      312.213      1.563     3.58     828.1071     55.03808     180.7626        12     1.037     0.779 -30.70   0
       516    235.1829    249.7340 307.8383004  +6.5778634     2494.081     3563.999     3542.398     77.77331     156.1065     312.1198      1.529     3.10     829.2565     55.03808      377.085        20     1.290     0.882 -34.09   0
       517    877.9242    248.7208 307.5713600  +6.5997945     1862.444     2565.657     3360.129     78.51757     156.4166     312.3371      1.508     3.02     828.4719     55.03808     264.1882        16     1.144     0.813 -24.04   0
       518    768.1694    248.2279 307.6169668  +6.5963345       1701.7     2477.125     2752.135     77.77331     155.9201     312.0266      1.532     3.54     828.8372     55.03808     277.6732        15     1.210     0.822 -33.65   0
       519    469.1551    239.6258 307.7414583  +6.5898835     24638.89     35452.14     37364.71     77.77331     156.2306     312.1198      1.520     3.13     825.0964     55.03808     3391.656        47     1.404     1.108 -36.63   2
       520    474.6451    234.1636 307.7393614  +6.5923221     1606.504     2481.686     2777.602     78.02219     156.1065     312.1819      1.679     4.28     824.8032     55.03808     216.7855        14     1.257     0.695 -35.40   3
       521    257.3856    243.0175 307.8293047  +6.5813814     756.9544     991.0479     583.5942     78.02219     155.8579     312.1819      1.357     3.45     828.8743     55.03808     134.2524         7     0.850     0.615 -20.48   0
       522    330.0592    241.4346 307.7991727  +6.5844737     727.1818     1201.587     1300.554     78.14632     156.1685      312.213      1.526     4.55     827.2799     55.03808     122.9579         7     1.098     0.537 -28.21   0
       523    795.1650    238.6555 307.6060740  +6.6011874     14418.93     20266.22     22036.41     78.14632     156.1685      312.275      1.510     3.12     828.2959     55.03808     2129.271        48     1.542     1.163 -23.63   0
       524    734.0250    234.5837 307.6316070  +6.6008262     731.7232      1191.88     1320.122     78.02219     156.0444     312.1819      1.817     4.24     828.3723     55.03808     132.9616         8     1.117     0.672 -39.49   0
       525    157.3465    232.8943 307.8711971  +6.5821996     2494.315     3522.939     3879.102     78.14632     156.1065     312.4922      1.466     3.42     830.3526     55.03808     330.6981        22     1.379     0.924 -29.01   0
       526    132.0731    231.8289 307.8817302  +6.5817899     1220.047     1925.304     2161.715     78.14632     156.1685      312.213      1.695     3.77     831.2874     55.03808     176.9949        11     1.036     0.796 -48.77   0
       527    788.0311    230.8265 307.6092995  +6.6041809     685.7084     1141.333     1629.715     77.77331     155.9201     312.0887      1.630     5.54     827.9423     55.03808     99.20959        11     1.366     0.632 -14.98   0
       528    184.0334    230.9026 307.8601798  +6.5839185     818.9001     1171.781      1206.76     78.27027     156.0444     312.3681      1.678     4.95     829.7682     55.03808      104.495         8     1.100     0.631 -30.13   0
       529    931.5546    229.1688 307.5497366  +6.6096541     1565.075     2118.135     1787.605     77.89785     156.2306     312.1198      1.466     4.21     827.3165     55.03808     202.3311        15     1.309     0.739 -40.79   0
       530    629.5999    228.2392 307.6751961  +6.5999544     487.1356     820.9916     723.5755     77.27316     155.9201     311.9955      1.821     3.38     826.7141     55.03808     118.6426         5     1.371     0.241 -49.16   0
       531    313.5119    226.4283 307.8065507  +6.5901129     1162.395     1644.762     1502.343     78.39402     155.9201     312.1198      1.598     4.51     827.5585     55.03808     163.0611        13     1.216     0.844 -68.18   0
       532    555.7705    225.4798 307.7059558  +6.5986232     2227.793       3181.1     3379.612     78.14632     156.1686      312.213      1.550     3.38     825.0033     55.03808     358.1255        16     1.211     0.864 -31.87   0
       533    593.2960    225.2623 307.6903759  +6.5999688     5091.155     7245.952     6847.005     78.02219     156.2306     312.3061      1.502     3.08     825.7959     55.03808     767.9274        25     1.264     0.978 -36.99   0
       534    397.6945    224.5359 307.7716479  +6.5937175     1546.262     2154.051     2378.466     78.14632     156.2926      312.275      1.446     3.85     825.4765     55.03808     244.0299        14     1.269     0.746 -35.95   0
       535    900.2216    221.9773 307.5629928  +6.6115779     12070.59     16650.21     17596.22     78.02219     155.9822      312.213      1.428     3.08     827.2361     55.03808     1801.685        31     1.288     0.969 -37.06   0
       536    954.2542    222.3896 307.5405341  +6.6132093     2947.247     4046.319     4013.612     77.64857     156.1065     311.9334      1.483     2.91     826.5687     55.03808     407.5066        20     1.136     0.963 -27.24   0
       537    327.9987    222.2611 307.8006737  +6.5923191     981.5398     1446.099     1133.019     77.64857     155.9822     311.9645      1.618     4.58     827.1141     55.03808      123.993         8     0.977     0.611 -62.67   0
       538    986.8995    219.8160 307.5270593  +6.6153597     10392.59     14725.36     15581.12     78.27026     155.9201     312.0577      1.491     3.12     825.7573     55.03808     1513.468        33     1.293     1.028 -46.06   0
       539    698.2816    219.8438 307.6469484  +6.6057162     3045.665     4326.527      4710.44     78.27027     156.1685      312.213      1.498     3.04     827.5498     55.03808     471.7887        22     1.227     0.974 -39.62   0
       540    575.2093    221.6331 307.6980105  +6.6008617      1002.07     1485.821     1757.223     77.77331     155.9822     312.0887      1.574     3.60     825.3231     55.03808     179.1494        11     1.180     0.650 -23.03   0
       541    219.6041    221.8464 307.8457105  +6.5888516     792.1995     1048.803     1090.657     77.64857     155.9201     311.9334      1.394     2.93     829.0526     55.03808     149.6938         6     0.747     0.616 -27.43   0
       542     26.3553    218.4739 307.9260901  +6.5837467     27793.11      39873.6     41998.54     78.14632     156.2306      312.275      1.571     3.15     834.3999     55.03808     3838.935        51     1.429     1.136 -36.22   0
       543    272.6227    219.3635 307.8237724  +6.5916568     1049.801     1453.895     1418.602     77.89785     155.9201     312.0266      1.430     3.09      828.353     55.03808     187.1147         9     0.981     0.599 -12.42   0
       544    506.8986    214.6046 307.7266214  +6.6014761     2291.531     2868.849     2776.417     78.02219     155.8579     311.9023      1.348     3.34      824.326     55.03808     328.2261        18     1.263     0.834 -39.93   0
       545    838.8130    211.4784 307.5888531  +6.6138630     2216.594     3281.582     3131.256     77.89785     155.9201     312.0577      1.532     3.52     826.7722     55.03808      354.373        17     1.316     0.754 -30.45   0
       546    518.7593    210.5995 307.7218292  +6.6035265     2712.597     3900.939     3867.453     77.64857     155.8579     311.9645      1.501     3.29     824.3113     55.03808     393.9743        21     1.239     0.948 -26.69   0
       547    891.2360    210.2675 307.5671173  +6.6161119      2204.56     2984.611     3126.221     78.14632     156.2306     312.3371      1.476     3.66     826.6154     55.03808      306.853        19     1.277     0.860 -37.51   0
       548    750.4353    207.9081 307.6256844  +6.6123859     43815.57     60364.57     62876.85     78.39401     156.0444      312.275      1.475     3.10     827.1617     55.03808     6254.134        56     1.388     1.101 -35.81   0
       549    353.4136    207.2683 307.7906217  +6.5993604     6157.239     12251.99     12893.81     77.77331     155.9822     312.1198      2.067     5.99     826.4103     55.03808       743.77        44     1.919     1.159 -68.71   0
       550    984.1496    206.7645 307.5286380  +6.6206557     3005.723     4486.198     4382.537     78.14632     156.1065     312.1819      1.556     3.54     825.1951     55.03808     443.2404        23     1.361     0.925 -34.54   0
       551   1022.5060    205.3729 307.5127511  +6.6225081     1939.982     2541.149     2638.274     78.39402     139.8617     252.8974      1.414     3.54     824.3099     55.03808     259.3186        13     1.095     0.748 -37.56  24
       552    918.3218    205.0453 307.5560406  +6.6191710     8131.374     11432.84     11673.08     78.14632     156.1685      312.244      1.482     3.07     826.2486     55.03808     1225.396        30     1.309     0.982 -26.12   0
       553    461.7738    204.0144 307.7457210  +6.6043361     5428.146     7807.656     8198.313     78.02219     155.9822     312.1819      1.474     3.05     824.2499     55.03808     874.6957        27     1.293     0.969 -27.28   0
       554    235.9857    200.7869 307.8396156  +6.5980947     813.8818     1110.674     1518.745     78.14632     155.8579     312.1819      1.585     4.16     828.7212     55.03808     128.9527        10     1.063     0.816  -8.19   0
       555    119.1379    195.3249 307.8883338  +6.5964229     5101.069     7549.154     7756.535     78.51757     156.1685      312.244      1.560     3.34     830.9659     55.03808     703.6057        28     1.322     1.011 -27.55   0
       556    289.4886    192.0432 307.8176867  +6.6035001     36907.14     52606.67     55110.46     78.27026     156.1065      312.275      1.537     3.09     827.5812     55.03808     5375.321        59     1.463     1.144 -35.49   0
       557    264.8324    193.0540 307.8278941  +6.6022553     7252.138     10484.39     11097.15     78.14632     156.1065      312.213      1.517     2.93     828.0881     55.03808     1160.767        31     1.339     1.044 -43.35   0
       558    938.8195    194.5050 307.5478783  +6.6242055      892.587     1153.792     2028.222     78.14632     155.9822     312.0577      1.564     3.91     825.4883     55.03808      144.442         7     0.984     0.594 -23.16   0
       559    615.3895    193.9752 307.6822486  +6.6136229     608.6344     1117.254     1266.952     77.89784     155.9822     312.1198      1.512     4.77     825.1678     55.03808     99.05804         8     1.466     0.441 -22.69   0
       560    718.7794    191.5601 307.6393820  +6.6180766     1096.771     1379.373     1809.787     77.89785     155.9822     311.9955      1.339     3.73     826.6194     55.03808     192.6116        11     1.177     0.704 -51.14   0
       561    413.5860    187.5409 307.7662911  +6.6095212     54959.54     77912.25     81019.77     77.64857     156.1065     311.9645      1.532     3.08     824.7387     55.03808     8053.171        66     1.447     1.161 -35.32   0
       562    169.4695    188.8829 307.8676452  +6.6007739     4471.501     6441.572     6335.372     78.51757     156.4166      312.275      1.535     3.19     829.5643     55.03808     632.7877        26     1.338     0.965 -31.37   0
       563    430.9709    188.0722 307.7590518  +6.6098846     1632.509     2366.707     2745.152     78.14632     156.1685      312.213      1.569     3.65     824.4554     55.03808     225.8126        17     1.217     0.885 -39.82   0
       564    317.5823    185.2469 307.8062461  +6.6072483     19822.88     28275.66     29382.49     77.77331     156.1065     312.0266      1.529     3.09     826.9702     55.03808     2984.593        44     1.412     1.059 -35.04   2
       565    324.8871    185.2929 307.8032103  +6.6074744     2179.048     3497.365     4211.284     78.27027     156.6024     312.3371      1.929     7.32     826.8582     55.03808     336.6292        27     1.930     1.083 -69.05   2
       566    752.8618    183.7988 307.6254844  +6.6224191     36080.17     50082.68     52145.48     77.64857     155.9822     311.9645      1.447     3.04     826.0823     55.03808     5438.083        52     1.374     1.071 -33.89   0
       567    700.9365    185.5872 307.6469942  +6.6199459     1130.914     1594.171     1603.348     77.77331     155.9822     312.0577      1.479     3.13     826.3503     55.03808      200.522         9     0.965     0.647 -27.49   0
       568    801.0327    184.4454 307.6054524  +6.6237609     1265.964     1839.661     1860.142     78.02219     156.1685     312.0887      1.450     3.22     825.2509     55.03808     216.9429        12     1.130     0.671 -34.24   0
       569    519.1140    185.1768 307.7225358  +6.6140326     2688.285     2527.465     1792.493     78.27026     155.9822     312.1198      0.525     0.88     823.7819     55.03808     1841.406         5     0.438     0.313  79.97   0
       570     40.3211    183.8695 307.9214573  +6.5985003     648.5719     960.5477     814.4501     78.51757     156.4166      312.213      1.579     4.20     834.1498     55.03808     124.5816         7     1.039     0.545 -17.49   0
       571     69.6625    181.0035 307.9093669  +6.6006705     9918.797     14106.38     14525.59     77.64857     155.9201     311.9955      1.488     3.17     832.5919     55.03808     1476.054        34     1.331     1.034 -40.46   0
       572    576.5785    181.9707 307.6987733  +6.6172797     493.2088     726.8426     882.2344     77.77331     155.9822     312.1198      1.500     4.48     824.1856     55.03808     81.59418         5     1.002     0.571  13.60   0
       573    103.7442    179.2338 307.8952704  +6.6025473      1627.53     2138.465     1905.048     78.14632     156.1685      312.244      1.443     3.72     830.9445     55.03808     253.9138        15     1.074     1.001 -29.18   0
       574   1011.0905    178.6614 307.5183860  +6.6331543     1205.602     1701.099     1848.457     78.27027     156.2926     312.3061      1.581     3.42     823.3592     55.03808     173.6912         9     0.955     0.632 -50.53   0
       575    979.2368    177.0525 307.5316723  +6.6327570     562.8994     713.1331     971.8797     78.14632     156.1685      312.275      1.239     2.42      823.838     55.03808     122.4641         5     0.756     0.480 -36.22   0
       576    737.2941    171.4951 307.6323636  +6.6269779      728.446     960.0734     1002.467     78.27027      156.788     312.1819      1.344     4.06     825.8485     55.03808     120.3715         6     0.887     0.612  66.34   0
       577    586.9853    168.0873 307.6949164  +6.6233588     826.6926     1119.341      1165.22     77.89785     155.9822     312.1198      1.472     3.78     823.8724     55.03808     124.2067         7     0.895     0.520 -44.48   0
       578      3.0984    166.3906 307.9375080  +6.6044623     1047.277     1443.212      1167.19     78.02219      146.364     261.6388      1.518     5.03      836.522     55.03808     150.6909        12     1.207     0.853 -42.03  24
       579   1012.4711    164.3075 307.5182923  +6.6391256     2318.977     3647.284     4689.165     78.14632     156.2926      312.275      1.883     3.42     822.6539     55.03808     356.3463        23     1.244     1.127 -33.21   0
       580    595.0823    161.9891 307.6917576  +6.6261470     1196.867     1666.146     2232.033     77.89785     155.8579     312.0887      1.489     3.59     823.7534     55.03808     211.1558        12     1.172     0.718 -62.86   0
       581    603.5840    159.9899 307.6882931  +6.6272567     2157.094     3168.779     3585.451     78.02219     155.9201     312.1198      1.608     3.73      823.771     55.03808     310.3375        17     1.140     0.942 -37.31   0
       582    347.7223    160.2814 307.7945667  +6.6185648     1292.438     1717.871     1893.585     78.51757     156.4166     312.3681      1.536     4.26     826.4584     55.03808     146.5615        12     1.146     0.722 -43.60   0
       583    288.3346    158.3153 307.8193016  +6.6173836     33377.98     47953.56     50133.89     78.39402     156.4166     312.3061      1.558     3.14     826.9597     55.03808     4835.836        60     1.626     1.137 -29.41   0
       584     33.6341    156.7825 307.9251490  +6.6094560     4933.834     6998.414     6966.099     77.89785     155.9822     312.0887      1.552     3.15     834.5118     55.03808     659.7621        27     1.272     1.018 -42.30   0
       585    720.0635    154.9436 307.6400761  +6.6332345     8771.973     12250.65     12814.34     78.39401     156.1065      312.275      1.466     3.00     825.1149     55.03808     1327.531        34     1.300     1.045 -45.77   0
       586    197.2593    156.0385 307.8572091  +6.6152650     951.6562     1173.149     1174.329     78.27027     156.2306     312.3061      1.217     2.69     828.9807     55.03808     170.5766         8     0.901     0.595 -27.54   0
       587    130.8446    151.9772 307.8849330  +6.6147093      5262.47     7484.381      7826.72     77.77331     156.1065     312.0887      1.483     3.14     829.6489     55.03808     740.0151        25     1.269     0.956 -45.69   0
       588    425.9882    151.9487 307.7623361  +6.6246288     479.6176     738.5449     702.5886     77.64857     156.0444     311.9955      1.813     3.99     824.0684     55.03808     121.2571         5     1.351     0.338 -56.85   0
       589    274.4565    153.1403 307.8252405  +6.6190539     904.2351     1141.236     1320.866     78.39401     156.1685      312.275      1.322     3.18     827.3718     55.03808     130.7446         8     0.849     0.669 -44.24   0
       590    592.9336    149.7182 307.6930621  +6.6311404     814.8182     1172.515     1557.087     78.51757     156.4166     312.3061      1.336     4.07      823.427     55.03808     146.4569         8     1.189     0.476 -42.82   0
       591    469.8953    149.1892 307.7441901  +6.6272392     1461.068     1956.135     1745.894     77.89784     155.7957     312.0266      1.378     3.61     823.2656     55.03808     216.4365        13     1.142     0.762 -45.75   0
       592    401.4773    148.1354 307.7726460  +6.6253811     4057.585     6395.257     6854.247     78.51757     156.1685      312.244      1.735     3.35      824.754     55.03808     556.8336        29     1.298     1.189 -53.67   0
       593    658.6243    149.0043 307.6657977  +6.6336324     864.3019     1235.176     1053.132     77.77331     155.9201     312.0887      1.427     2.76     824.5132     55.03808     178.6976         9     0.922     0.706   0.99   0
       594    681.3332    145.3647 307.6564863  +6.6358940     728.4712     1136.079     1163.646     78.14632     156.2306     312.3061      1.631     6.27     824.5661     55.03808     113.4118        10     2.004     0.550 -46.71   0
       595    578.1630    147.0683 307.6992868  +6.6317400     663.9138     1074.331     1021.278     78.14632     156.1685     312.3681      1.542     4.08     823.2441     55.03808     107.7004         6     1.124     0.424 -62.58   0
       596    365.9842    146.9270 307.7874302  +6.6246898     3440.115     4697.374       4436.2     77.77331     155.9822     312.1508      1.435     3.31     826.0423     55.03808     497.8355        21     1.265     0.890 -32.77   0
       597    120.4448    146.6082 307.8894338  +6.6165758     1785.169     2656.358     2544.649     77.77331     156.0444     311.9645      1.609     3.65     829.7236     55.03808     259.6356        16     1.254     0.782 -29.49   0
       598    948.7000    146.3979 307.5453831  +6.6443933     513.3712     761.7882     1248.903     77.77331     155.9201     311.9645      1.118     3.23     822.7528     55.03808      104.647         5     0.729     0.451 -19.28   0
       599    755.8216    145.5953 307.6255352  +6.6382880     646.0757     781.0352      576.144     77.89784     155.9201     312.0577      1.494     3.87     824.2292     55.03808     99.20605         6     1.140     0.528 -66.19   0
       600     58.5814    142.8114 307.9152583  +6.6160623      504.541     744.6716     522.3534     77.89785     155.8579     312.1508      1.623     3.56     832.4816     55.03808      98.9137         5     1.229     0.297 -36.49   0
       601   1012.7923    140.9895 307.5189383  +6.6487618     1538.458     2115.385     2110.383     77.77331     155.9822     312.1819      1.429     3.74     821.6803     55.03808     228.3265        15     1.215     0.822 -36.65   0
       602    738.7280    140.8392 307.6327955  +6.6396803     592.2704     767.9022     583.6503     78.14632     156.1685     312.3061      1.366     3.34     824.2737     55.03808     107.3898         5     0.929     0.348 -47.68   0
       603    217.8106    135.8066 307.8493542  +6.6243066     5894.735     8615.738     8779.367     77.77331     155.9822     312.1508      1.527     3.17     828.7632     55.03808      848.464        28     1.323     0.957 -36.01   0
       604    100.4854    135.7760 307.8980898  +6.6203759     2353.123      3146.22     3607.624     78.27027     155.9201     312.0887      1.560     2.90     829.8665     55.03808     332.8584        18     1.143     0.894 -33.47   0
       605    679.5447    134.6840 307.6575875  +6.6402431     6919.802     9543.099     9925.809     78.27027     156.1686     312.3681      1.490     3.16      824.011     55.03808      977.983        28     1.276     0.985 -41.36   0
       606    827.7409    134.4698 307.5960313  +6.6452821      1033.73     1722.995     1306.692     78.39402     156.1686      312.244      1.592     4.17     822.8662     55.03808     158.3782        11     1.127     0.786 -18.22   0
       607    631.8026    131.9897 307.6775106  +6.6397588     10290.74     14638.03     15965.12     77.89784     155.8579     312.0887      1.490     3.04      823.348     55.03808     1616.716        37     1.393     1.016 -41.08   3
       608    635.3134    123.4885 307.6763374  +6.6433854     58460.89      81564.8     85145.38     78.02219     156.5405     312.3681      1.512     2.99     823.0399     55.03808     8764.803        68     1.442     1.141 -34.92   2
       609    266.3034    132.4122 307.8293253  +6.6273362     1038.988     1579.341     1744.135     78.14632     155.9201     312.0266      1.685     4.10     827.6057     55.03808     138.4396        11     1.078     0.794 -12.82   0
       610    569.8105    131.2743 307.7032868  +6.6379800     760.3306     1138.153     1071.265     77.89784     155.7957     312.1198      1.599     4.95      822.821     55.03808     117.4348         9     1.264     0.791 -36.97   0
       611     30.3894    130.5485 307.9273823  +6.6201754      924.685     1517.106     1098.393     77.64857     156.0444     311.9955      1.752     5.05     833.8861     55.03808     160.6016        14     1.475     0.822 -55.27   0
       612    358.9691    127.6289 307.7909936  +6.6324203     3965.464      6120.11     6229.685     77.77331     155.9201     311.9955      1.646     3.40     826.4167     55.03808     593.4669        30     1.612     0.927 -48.76   0
       613    540.6809    127.0123 307.7155306  +6.6387642     2050.972     2835.697     3131.254     77.89784     155.8579     312.0887      1.388     3.23     822.6041     55.03808     314.1597        15     1.197     0.722 -50.52   0
       614   1005.2304    126.4623 307.5225654  +6.6545067     877.3025     1228.747     1620.817     78.02219     156.2306      312.213      1.524     4.80     821.1429     55.03808     143.1012         9     1.126     0.580 -34.39   0
       615    314.3792    117.1396 307.8098691  +6.6352541      3884.76     5657.967     5857.307     77.89784     156.1065     312.1819      1.523     2.96     826.8727     55.03808     570.6686        24     1.273     0.951 -30.41   0
       616     11.9019    100.2579 307.9360841  +6.6320561     737489.9      1535000      1676254     78.02219     156.1065     312.3992      2.140     4.34     833.8476     55.03808     61942.15       464     2.170     1.923 -43.77  28
       617    685.4598    110.6687 307.6559357  +6.6503541     1503.434     2217.856      2279.43     78.39402     156.1065      312.244      1.551     3.80     822.6699     55.03808     258.1216        16     1.268     0.933 -33.77   0
       618    699.7527    107.2679 307.6501122  +6.6522357     3466.256     4833.947     4782.264     78.27027     156.1065      312.275      1.443     2.99     822.4224     55.03808     582.9954        20     1.226     0.906 -47.56   0
       619    441.3388     98.4713 307.7577575  +6.6472178     4696.889     6750.939     6759.545     78.39402     156.1686     312.3061      1.536     3.19     822.9802     55.03808     690.9573        29     1.373     1.017 -42.92   0
       620    895.9204     94.8335 307.5690346  +6.6639187     2368.966     3120.726     2728.588     78.14632     156.1685      312.244      1.450     3.24     820.7159     55.03808     350.2201        21     1.286     0.876 -42.01   0
       621    593.8869     94.3491 307.6945248  +6.6540279     728.6238     689.9138     546.0799     78.27027     156.0444     312.3061      1.112     3.98     821.9764     55.03808     123.6801         7     0.929     0.550 -53.60   0
       622    606.0351     92.4695 307.6895412  +6.6552102     1931.645     2712.705      2526.87     78.14632     156.1065     312.3371      1.460     3.33     821.9157     55.03808     297.1216        16     1.209     0.768 -39.61   0
       623    714.6669    111.6034 307.6437711  +6.6509445     964.0338     1244.738     1110.857     77.64857     155.8579     312.0266      1.230     3.19     822.6808     55.03808     167.4782         9     0.936     0.690 -46.05   0
       624    626.3687     92.3117 307.6810995  +6.6559556      564.706     798.5098     691.0893     78.39402     155.9822     312.1819      1.472     4.15     821.8672     55.03808      78.7063         6     0.919     0.535 -47.58   0
       625    404.8291     90.2935 307.7731991  +6.6493696     2059.106     2895.792     2590.562     78.39401     155.9201     312.1508      1.473     3.47     824.1825     55.03808     312.9577        17     1.167     0.890 -40.81   0
       626    252.0467     91.4522 307.8366270  +6.6437649     977.9588     1430.902     1703.376     78.39401     156.1065      312.275      1.837     4.44     827.8494     55.03808     145.7487        10     1.297     0.537 -40.18   0
       627    152.7970     87.0758 307.8780027  +6.6422368     3383.039     4799.125     4843.011     77.77331     155.6712     312.1508      1.479     3.20     827.0743     55.03808     514.6559        21     1.248     0.894 -40.79   0
       628     34.6794     84.9539 307.9271394  +6.6391398     13240.39     19334.06     20854.69     78.27026     156.1685      312.244      1.548     3.13      831.545     55.03808     1899.944        39     1.373     1.098 -39.28   0
       629    301.0657     85.6989 307.8164580  +6.6477853     1536.768     2250.902     3026.639     78.27027     156.2926      312.244      1.648     3.83     826.9428     55.03808     212.4269        16     1.277     0.787 -26.57   0
       630    769.8495     84.3805 307.6217592  +6.6640255     870.1154     1299.642     1900.295     77.77331     156.2306     312.0887      1.940     4.23     821.0903     55.03808     144.9186        12     1.163     0.903  -0.82   0
       631    574.4720     84.7696 307.7029118  +6.6573325     616.4407     736.1828     746.0643     78.14632     156.1686      312.213      1.307     3.43     821.5922     55.03808     117.1807         5     0.816     0.416 -66.90   0
       632    561.5231     84.4156 307.7083030  +6.6570452     875.3386     1276.305     760.8953     77.77331     155.9201     312.1198      1.601     5.01     821.5439     55.03808     133.1495        12     1.303     0.714 -56.98   0
       633    836.3523     79.5756 307.5942924  +6.6682294     6840.556     9518.997     10151.39     77.89785     156.1686     312.1198      1.482     2.95     820.6646     55.03808     1031.362        29     1.299     0.979 -38.18   0
       634    781.3784     79.9703 307.6171174  +6.6662311     3609.484     5161.252     5120.524     77.77331     155.9822     312.1198      1.483     3.04      820.855     55.03808     555.1101        24     1.326     0.932 -34.41   0
       635    426.4639     80.2780 307.7645484  +6.6542291     1234.775     1598.093     1222.141     78.51757     156.2306      312.244      1.472     3.75     823.3997     55.03808     165.9608        13     1.119     0.785 -18.53   0
       636    914.0339     93.8711 307.5615418  +6.6649201     4172.434      5865.75      6215.52     78.14632     156.1685     312.3061      1.430     3.07     820.3915     55.03808     627.9711        20     1.236     0.819 -40.18   0
       637    106.1313     79.8874 307.8976299  +6.6436349     607.9123     896.3969     1037.974     78.39401     156.4166      312.275      1.708     4.01     828.2159     55.03808     77.08325         6     0.784     0.588 -40.12   0
       638    769.0876     78.6166 307.6222688  +6.6663794     621.2065     765.2552     1257.881     78.02219     155.9201     312.1198      1.331     3.37     820.8987     55.03808      93.8075         5     0.769     0.427 -21.36   0
       639    543.7826     77.8600 307.7158930  +6.6591573     1178.856     1659.538     1814.906     77.89784     156.1065     311.9955      1.573     4.06     821.3252     55.03808     157.1384        10     1.184     0.590 -36.87   0
       640     74.8500     76.7985 307.9107281  +6.6438577     3327.502      4959.18     5316.297     77.64857     155.7957     311.8401      1.579     3.07     829.2812     55.03808     520.4312        24     1.303     0.959 -32.70   0
       641     59.5190     77.4911 307.9170732  +6.6430560     1011.024     1474.365     1491.732     78.02219     156.4166     312.3061      1.455     3.22     829.9037     55.03808     176.4757        11     1.108     0.681 -52.86   0
       642    663.5229     76.9578 307.6661797  +6.6635362     717.1081     962.0139     779.3575     78.14632     156.1685      312.275      1.660     3.74     821.1572     55.03808      124.392         8     1.198     0.656 -48.77   0
       643    436.2769     76.4081 307.7606021  +6.6561554     1047.341     1457.479     1766.028     77.89785     155.6712     312.0577      1.478     3.36     823.1089     55.03808     158.6532        11     1.022     0.753 -50.58   0
       644    598.6788     73.5045 307.6932339  +6.6627926     1471.895     1997.674     2131.847     78.02219     156.4166      312.275      1.573     3.44     821.1625     55.03808     232.2706        13     1.137     0.765 -32.68   0
       645     17.3669     72.3062 307.9347578  +6.6437776     2754.957     3970.264     4685.497     78.39402     156.0444     312.3371      1.576     3.45     831.2457     55.03808     407.9972        21     1.146     1.037 -51.62   0
       646     89.4481     68.1405 307.9049563  +6.6479226      794.421     1180.161     1087.341     78.27027     156.1685     312.3061      1.402     5.06     828.3724     55.03808     127.9446         8     1.204     0.602 -49.99   0
       647    776.0642     67.4659 307.6197442  +6.6712153     2178.583     2844.651     3199.004     78.27026     156.1685      312.244      1.447     3.06     820.3667     55.03808     332.5597        16     1.107     0.839 -35.41   0
       648    416.6602     67.3775 307.7690549  +6.6592255     1109.417      1695.48      1809.25     77.89785     156.1065     312.1508      1.668     4.00     823.8241     55.03808     156.1849        12     1.164     0.801 -44.50   0
       649    667.7990     67.2417 307.6647293  +6.6676898     554.1534     508.0284      591.961     77.64857     155.8579     311.9334      1.201     3.76     820.7564     55.03808     82.82629         5     0.900     0.451 -46.07   0
       650    113.8086     66.2940 307.8948993  +6.6495040     961.5577     1484.638     1074.327     77.89784     155.7957     312.0577      1.590     3.65      827.619     55.03808     145.4015        10     1.068     0.649 -36.30   0
       651    102.6494     61.1486 307.8997084  +6.6512526     10235.99     14763.52     15121.12     78.39401     156.0444     312.1819      1.554     3.18     827.7387     55.03808     1504.571        36     1.349     1.094 -43.84   0
       652    431.7499     60.9188 307.7630035  +6.6623974     2733.344     3683.457     4104.757     78.27027     156.2306      312.275      1.475     3.43     823.2973     55.03808     390.8157        20     1.219     0.889 -43.35   0
       653    253.0031     60.5077 307.8372721  +6.6565701     740.4853     1273.929     2020.055     77.89784     155.8579     311.9955      1.882     3.13      827.067     55.03808     133.8438         6     0.782     0.496  -5.65   0
       654    645.4829     53.2134 307.6744709  +6.6727342     20216.83     27837.58      29031.3     77.89785     155.9201     312.0887      1.471     3.03      820.233     55.03808     3169.219        44     1.351     1.078 -40.66   0
       655    269.5155     55.1599 307.8305927  +6.6593320     1739.374     2549.895     3576.946     78.27027     156.1065     312.1819      1.645     3.08     826.9294     55.03808     283.7698        15     1.119     0.799 -49.86   0
       656    675.0100     54.5836 307.6621582  +6.6731560     625.5046     797.8344     715.2203     78.02219     155.9201     312.1198      1.356     3.34     820.2795     55.03808     101.6807         6     0.839     0.672 -24.03   0
       657    700.8578     53.5812 307.6514535  +6.6744339     595.0354     951.2753     1375.228     77.89784     156.0444     312.0577      1.698     4.17     820.2241     55.03808       80.953         5     0.920     0.541 -48.32   0
       658    954.6439     52.6174 307.5460508  +6.6833035     706.1454     1012.447      1404.18     77.77331     156.0444     312.0266      1.470     3.42     818.3173     55.03808     117.6624         7     0.839     0.679  13.44   0
       659    545.2432     49.1937 307.7162491  +6.6710392     5631.328     7923.747     8181.468     77.77331     155.8579     311.9645      1.483     3.12     820.2995     55.03808     797.2542        26     1.316     0.934 -36.42   0
       660    271.3959     45.2365 307.8301458  +6.6634912     10062.05     14766.65      16371.6      77.3985     155.9822     312.0577      1.595     3.11      826.804     55.03808     1408.202        38     1.405     1.098 -41.21   0
       661     12.6296     47.5256 307.9375624  +6.6538467     1376.445     1953.493     1585.559     78.14632     156.1686      312.244      1.559     3.90     829.2037     55.03808     198.1234        14     1.157     0.840 -23.33   0
       662    632.9631     46.8175 307.6798867  +6.6749556     893.6464     1388.573     2245.258     77.89784     156.0444     312.0266      1.710     4.23     819.9998     55.03808     161.6361         8     1.083     0.511 -35.78   3
       663    631.6492     42.8763 307.6805649  +6.6765385     3466.848      5160.69      5730.22     78.14632     156.2306      312.244      1.583     3.17     819.8363     55.03808     519.6165        24     1.240     1.046 -40.18   2
       664    450.7617     44.8654 307.7556453  +6.6696611     24651.58     35043.43     36177.32     78.14632     156.1065     312.3061      1.512     3.18     822.4421     55.03808     3617.841        49     1.422     1.090 -38.53   0
       665    928.5894     44.8241 307.5571360  +6.6856518     2070.517     2899.023     3182.411     77.89784     155.9822     312.1198      1.546     3.03      819.005     55.03808     314.1749        14     1.099     0.758 -42.36   0
       666    517.1780     45.8544 307.7280206  +6.6714778     540.8334     581.2956     350.8391     77.77331     156.1685     312.0577      1.264     4.68     820.5518     55.03808     87.39941         6     1.090     0.571 -64.96   0
       667    331.0165     45.5095 307.8053690  +6.6653797      1114.36     1583.487     1738.166     78.02219     155.9201     312.1508      1.532     4.01     826.9432     55.03808     152.6642        12     1.106     0.775 -86.57   0
       668     36.8673     44.7086 307.9275891  +6.6558253     2516.204     3978.047     4228.368     78.27027     156.2926      312.275      1.674     3.72      828.489     55.03808     368.3929        22     1.399     0.930 -44.63   0
       669    263.5302     49.3977 307.8332732  +6.6615095     2117.264     3287.252      4998.76     77.77331     155.7957     312.0577      1.977     3.81     826.8192     55.03808     307.7751        19     1.256     0.953 -45.52   0
       670    564.0861     44.4186 307.7085814  +6.6736411     656.9044     831.2047     728.7014     77.89784     155.9201     312.1508      1.262     2.74     820.0546     55.03808     131.9712         5     0.722     0.457  19.37   0
       671    259.2710     41.9307 307.8352941  +6.6644486     3258.051     4973.202     6193.181     78.27027     156.2926      312.213      1.665     3.29     826.6466     55.03808     450.1329        24     1.286     0.999 -31.01   0
       672    312.5062     39.9037 307.8132473  +6.6670725     1175.219     1675.475     2375.601     78.27026     156.7262     312.1508      1.533     3.17     826.9446     55.03808     204.1632        11     0.997     0.760 -36.07   0
       673     75.0258     36.9705 307.9119991  +6.6603034     572.3553     623.1541     390.3463     77.77331     155.9822     312.0887      1.282     3.63     827.4191     55.03808     98.68536         5     0.995     0.381 -31.54   0
       674    949.2165     35.2644 307.5488862  +6.6902857     920.3324     1281.496     1203.748     77.77331     156.0444     312.1198      1.446     4.89     817.8573     55.03808     142.0825        10     1.156     0.654 -32.08   0
       675    700.6290     34.4812 307.6521892  +6.6823104     2313.865     3198.336      3115.97     78.14632     155.9822      312.213      1.457     2.74     819.4637     55.03808      404.271        17     1.108     0.861 -24.15   0
       676    105.7540     34.6479 307.8993127  +6.6622957     710.1771     1011.848     695.4814     78.27027     156.0444      312.244      1.654     5.55     826.9207     55.03808     105.3931         7     1.349     0.644 -32.19   0
       677    266.2260     29.3112 307.8328299  +6.6698912     808.0479     1244.374     2121.583     78.39402     155.9201     312.0887      1.706     2.87     826.5064     55.03808      141.301         8     0.935     0.568 -70.24   0
       678    211.8730     30.1869 307.8553798  +6.6677042     833.3423     1086.546     493.8376     77.77331     155.8579     312.0266      1.448     4.08     825.7858     55.03808     120.5338         9     0.961     0.677  -8.50   0
       679    188.9061     27.2944 307.8650181  +6.6681265     11451.01     16536.51      16985.2     78.27027     156.6643      312.213      1.518     3.31     825.7271     55.03808     1587.766        37     1.400     1.035 -35.84   0
       680      2.3891     27.3762 307.9424967  +6.6618189     1043.667      1395.74     1211.756     77.64857     138.5386     251.4753      1.353     4.00     827.3431     55.03808     144.0338        11     1.188     0.623 -48.46  24
       681    533.0179     25.4720 307.7221248  +6.6804218     3216.155     4592.858     4546.558     77.77331     156.1065     312.1819      1.485     3.26      819.661     55.03808     470.3359        20     1.223     0.849 -41.95   0
       682    934.5369     25.0207 307.5553277  +6.6940248     4384.679     6005.208     6445.639     77.89784     156.1685     312.1198      1.472     2.99     818.2238     55.03808     672.7335        22     1.230     0.906 -31.94   0
       683    735.2313     23.4456 307.6381837  +6.6880222     2246.592     3109.875     3220.039     77.89785     156.2306     312.1198      1.455     3.30      819.056     55.03808      332.155        19     1.176     1.049  37.88   0
       684    471.3096     23.7563 307.7478186  +6.6790631     1964.876     2802.326     2819.135     78.27027     156.1065     312.3371      1.521     3.44      821.124     55.03808     297.4067        14     1.090     0.828 -26.91   0
       685    999.1110     21.3818 307.5286212  +6.6976794      2126.05     3043.214     3131.063     78.02219     155.9201     312.1508      1.564     3.63      814.586     55.03808     303.5858        20     1.339     0.909 -38.36   0
       686    794.3099     20.4812 307.6137384  +6.6912194     519.3187     692.0338     605.8968     78.02219     156.3547     312.3061      1.406     4.09     818.2588     55.03808     90.85345         6     0.943     0.648 -67.50   0
       687    168.7690     20.0058 307.8736292  +6.6704582     460.9447     446.8549     545.8413     77.64857     156.0444     312.0266      1.232     3.38     825.6324     55.03808     83.84772         5     0.800     0.492 -32.83   0
       688    742.6632   1020.4650 307.6016977  +6.2767039     918.6985     1322.301     1288.738     78.27027     156.1686     280.5193      1.614     5.63     852.7306     55.03808     117.1932        11     1.114     0.954 -84.84  16
       689    373.1972   1019.2131 307.7551099  +6.2648624     1999.989     2989.111     2977.916     77.89784     155.8579     293.9837      1.578     3.46     852.7938     55.03808     272.6426        19     1.171     1.002 -50.59  16
       690    341.2545     16.6082 307.8020886  +6.6776530     1057.829     1462.096     2097.842     77.77331     156.1065     311.9645      1.506     4.08     826.9484     55.03808     164.2628        11     1.017     0.805  73.93   0
       691    726.6906   1021.8800 307.6082810  +6.2755864     2477.136     4083.643     3925.471     78.02219     147.0248       262.12      1.718     3.69     853.3607     55.03808     317.8394        26     1.453     1.090 -32.83  26
       692    760.2224   1008.7926 307.5947991  +6.2821084     7638.088     11960.12     12505.99     77.77331     155.9822     312.0577      1.665     3.33     851.0109     55.03808     960.2146        41     1.484     1.184 -33.08   0
       693    526.1279   1010.7839 307.6919100  +6.2734627     1253.869     1736.179     1474.505     77.77331     156.1065     312.1508      1.438     3.35     852.8702     55.03808     181.9279        15     1.066     0.930 -39.60   0
       694    555.6571   1009.3789 307.6796991  +6.2750306     4176.373     6568.461     7334.229     77.89785     156.1065     312.0577      1.740     3.62      853.122     55.03808      537.356        30     1.368     1.118 -36.90   0
       695    305.9168   1007.9814 307.7834156  +6.2672435     15433.16     23393.37     25450.94     77.89785     155.8579      312.213      1.630     3.41      852.653     55.03808     2157.349        53     1.801     1.118 -35.30   0
       696      2.1463   1009.5739 307.9094544  +6.2563853     710.7363     1044.524     973.0173     76.00837     135.5681     247.8254      1.541     4.70     848.1063     55.03808     89.67139         8     1.058     0.594 -20.70  24
       697    394.9189     14.9871 307.7798491  +6.6801222     636.8026     742.8296     804.4014     77.89785     155.9201     312.0887      1.316     2.42     825.3079     55.03808     112.8745         5     0.603     0.595  -6.32   0
       698    430.2653   1008.5319 307.7317793  +6.2711833     1000.948     1424.117      1478.76     78.27027     156.2306      312.275      1.601     4.11     852.0601     55.03808     140.8019        10     1.111     0.631 -53.34   0
       699    821.4395   1007.8782 307.5694168  +6.2845289     1097.881     1672.374     1958.104     78.14632     156.2306      312.244      1.713     4.32     847.8826     55.03808     135.6464        14     1.195     0.826 -19.23   0
       700    277.0938   1005.7139 307.7954563  +6.2672128         1068     1605.942       1786.1     78.27027     156.6024     312.3371      1.312     4.02     852.2443     55.03808     167.8312        12     1.296     0.609 -45.81   0
       701    921.5496   1002.2489 307.5280459  +6.2901910     8156.816      13796.7     14683.62     78.27027     156.0444     312.1819      1.825     3.58     847.2994     55.03808     996.3642        43     1.530     1.308 -40.12   0
       702    552.7910   1001.6461 307.6811481  +6.2781268     8507.152     12954.27     13985.21     77.77331     156.0444     311.9023      1.635     3.32     852.8808     55.03808       1152.4        36     1.406     1.116 -38.91   0
       703   1016.9114    997.9357 307.4886016  +6.2951485     4166.404     7580.051     7741.326     78.27027     156.4166     311.1867      1.954     4.21     845.5726     55.03808      478.697        36     1.508     1.329 -34.75  16
       704    895.1470    998.4478 307.5391336  +6.2908800     11501.85     19420.06     21113.56     78.39401     156.1685      312.275      1.863     3.77     847.5338     55.03808     1357.525        55     1.629     1.375 -26.21   0
       705    607.9821    998.8277 307.6583317  +6.2811359     1340.726      1929.24     1812.222     77.89784     155.9822     312.1508      1.514     4.57     852.7774     55.03808     165.6539        15     1.240     0.795 -28.13   0
