#   1 NUMBER                 Running object number                                     
#   2 X_IMAGE                Object position along x                                    [pixel]
#   3 Y_IMAGE                Object position along y                                    [pixel]
#   4 ALPHA_J2000            Right ascension of barycenter (J2000)                      [deg]
#   5 DELTA_J2000            Declination of barycenter (J2000)                          [deg]
#   6 FLUX_APER              Flux vector within fixed circular aperture(s)              [count]
#   9 FLUXERR_APER           RMS error vector for aperture flux(es)                     [count]
#  12 FLUX_RADIUS            Fraction-of-light radii                                    [pixel]
#  13 FWHM_IMAGE             FWHM assuming a gaussian core                              [pixel]
#  14 BACKGROUND             Background at centroid position                            [count]
#  15 THRESHOLD              Detection threshold above background                       [count]
#  16 FLUX_MAX               Peak flux above background                                 [count]
#  17 ISOAREA_IMAGE          Isophotal area above Analysis threshold                    [pixel**2]
#  18 A_IMAGE                Profile RMS along major axis                               [pixel]
#  19 B_IMAGE                Profile RMS along minor axis                               [pixel]
#  20 THETA_IMAGE            Position angle (CCW/x)                                     [deg]
#  21 FLAGS                  Extraction flags                                          
         1     12.7690     31.4395 307.9282500  +6.6388129     4661.097     15680.15     19626.09     91.58947     183.3983     366.9427      2.850     7.29     1225.728     64.71178     593.7235        71     2.199     1.948 -87.75  16
         2    813.7658     25.8146 307.5949338  +6.6677259     3005.814     7913.594     9495.836     91.58947     183.3252     366.9792      2.562     6.72      1189.65     64.71178     359.0758        45     2.057     1.516  64.77   2
         3    752.9781     14.1646 307.6206412  +6.6705287     936.5483     2327.295     2843.698     91.44305     183.3252     366.8331      2.535     7.22     1190.018     64.71178     120.9645        14     1.798     0.812  77.09   0
         4    755.4521     11.7471 307.6196933  +6.6716093     717.1915     1221.644     1353.864     92.31812     183.4713     367.1617      1.635     3.46     1189.887     64.71178     109.6439         5     0.744     0.465 -72.29   1
         5     80.8947      7.4736 307.9007070  +6.6509834     3501.645     11952.56     15230.69     91.88162     183.8362     362.1271      2.911     7.65     1220.254     64.71178     410.6494        66     2.111     2.022 -85.71  16
         6    410.3221      8.0556 307.7635253  +6.6616978     1063.876     2528.743     2963.037     92.02735     183.6173     365.7355      2.343     7.86     1206.956     64.71178      134.869        18     1.856     0.930 -38.94  16
         7    623.1804      1.6217 307.6751145  +6.6714141     5388.769      7947.32     8846.501     84.11537     150.9325      281.561      1.584     4.54     1192.465     64.71178     841.2123        26     1.831     0.725   1.30  24
         8    787.4776    999.1455 307.5728108  +6.2647463     11058.34     20278.74     21422.35     92.17285     183.6173     367.1252      1.963     4.26     1247.367     64.71178     1223.295        50     1.549     1.503 -32.90   0
         9    563.5367   1021.8994 307.6652086  +6.2479377     2104.447      3656.09     3567.045     91.73566     172.5561     307.8867      1.838     4.65     1250.223     64.71178     237.4761        23     1.269     1.244  48.71  24
        10    570.9297    990.1628 307.6632124  +6.2612937     104917.8     225953.5     253270.9     91.88162     183.6173     367.1982      2.243     4.77     1249.035     64.71178     11311.42       111     1.825     1.773 -53.04   3
        11    572.6655    982.8866 307.6627378  +6.2643572      49261.1     105862.1     116560.5     92.02735     183.8362     367.1617      2.200     4.97     1248.769     64.71178     5329.248        83     1.784     1.693  -6.24   3
        12    205.0008    993.3471 307.8153465  +6.2478381     2394.499     4866.451     5093.209     91.29639     183.1789     366.6138      2.149     5.13     1249.243     64.71178     344.5692        31     1.621     1.327 -64.70   0
        13    781.7883    986.9583 307.5755916  +6.2695931     5268.722     10150.93     10913.75     91.29639     183.3983     366.7965      2.010     4.48     1247.008     64.71178     600.1559        37     1.487     1.403 -72.46   0
        14    879.7005    983.7217 307.5349634  +6.2741644     1304.616     2721.798     3073.861     91.73566      183.909     367.1617      2.130     6.04     1245.516     64.71178     165.0829        16     1.290     1.016 -16.31   0
        15    202.7354    982.5605 307.8166573  +6.2522188     1574.951     3273.938     3315.544     92.02735     183.5444     367.2347      2.101     6.11     1248.872     64.71178     221.0402        22     1.388     1.222  29.47   0
        16    705.6641    979.4642 307.6075187  +6.2701725     5360.073      10361.4     11841.97     92.02735     183.6173     367.1617      2.054     4.47     1247.828     64.71178     616.4604        43     1.575     1.473 -53.03   0
        17    561.8977    978.6175 307.6673631  +6.2657642      2692.21     5797.763     7180.119     91.88162     183.3983     366.8696      2.345     5.45     1248.804     64.71178     279.3489        35     1.627     1.408 -41.82   0
        18    420.6548    979.6889 307.7260913  +6.2606404     2542.543     5737.774     7034.783     92.02735     183.4713     367.2712      2.451     5.66     1249.133     64.71178     302.4442        35     1.626     1.529  89.03   0
        19    737.8217    973.9714 307.5943257  +6.2735051     841.3672     1124.996     1508.314     91.29639     183.3252     367.0157      1.473     4.24      1247.54     64.71178     135.3077         8     1.048     0.631  11.83   0
        20    945.1796    968.7307 307.5082277  +6.2825188     6059.235     10386.93     10857.66     91.58947     183.4713     367.0522      1.789     3.88     1243.996     64.71178     727.6614        33     1.363     1.282 -86.50   0
        21    230.1223    968.8190 307.8057324  +6.2588058       740.46     1514.915     1262.809     91.44305     183.3252     367.0887      2.043     6.71     1249.067     64.71178     105.3693         8     1.211     1.044  62.41   0
        22    704.2795    967.2245 307.6085107  +6.2751833     1922.023     3869.669     4212.946     91.73566     183.3983     367.1252      2.301     7.65     1247.239     64.71178     217.2946        27     1.843     1.102 -32.18   0
        23    352.1003    964.1778 307.7551421  +6.2647739     1237.001     2778.216     3230.644     92.02735     183.3252     366.8696      2.393     6.25     1249.556     64.71178     176.8947        17     1.424     0.963  20.96   0
        24    604.0466    957.8331 307.6505336  +6.2757464     470.2674     645.3487     446.8528     91.73566     183.6173     367.0522      1.227     3.40     1247.463     64.71178      99.6145         5     1.544     0.217  27.16   0
        25    533.6942    954.6594 307.6799128  +6.2747276     2900.363     6592.616     7652.391     91.88162     183.6173     367.2347      2.396     5.46     1248.282     64.71178     360.0686        44     1.723     1.663  80.95   3
        26    531.2222    946.9881 307.6812024  +6.2778149     4932.635     11548.97      13242.9     91.58947     183.3983     367.0157      2.317     5.33     1248.006     64.71178     604.3684        49     1.754     1.610 -89.49   3
        27    284.4497    953.6689 307.7836467  +6.2668693     9344.218     21536.01     25059.04     91.88163     183.5444     367.1252      2.386     5.38     1249.349     64.71178     1108.848        77     2.115     1.769 -35.24   0
        28    798.7791    953.3151 307.5696644  +6.2840536     743.3259     1519.566     1565.157     91.73566     183.2521     367.0157      1.884     4.03      1245.23     64.71178     155.6667         7     1.264     0.662 -84.65   0
        29    409.8860    953.7893 307.7314542  +6.2709829     584.1934     1019.791     1051.755     91.58947     183.3252     366.9427      2.042     4.66     1248.376     64.71178     92.54944         5     0.959     0.643  28.78   0
        30    738.4399    954.0681 307.5947445  +6.2817482     5469.552     11343.74     12335.65     91.88162     183.5444     367.2347      2.166     4.81     1246.569     64.71178     643.3861        46     1.647     1.532 -23.04   0
        31    899.7316    947.3878 307.5278613  +6.2898364     7127.374     13209.18     14146.31     91.44305     183.4713     367.0157      1.958     4.28      1243.55     64.71178     795.2291        44     1.580     1.419 -77.91   0
        32    873.3439    943.5793 307.5389699  +6.2905386     9651.062     18899.04     20439.46     91.44305     183.6173     366.9061      2.058     4.36     1244.137     64.71178     1121.911        54     1.657     1.549 -54.00   0
        33    995.0906    942.8668 307.4883371  +6.2948503     4545.282     7893.091     7996.605     92.17285     183.7632     367.1617      1.856     3.97     1242.437     64.71178     475.9534        34     1.482     1.289 -63.39   0
        34    517.9323    942.9308 307.6868700  +6.2790508      2475.19     6031.345     6944.358     92.02735     183.7632     367.1252      2.530     5.88     1247.884     64.71178     299.4247        39     1.812     1.464  18.76   0
        35    587.2131    943.4283 307.6580275  +6.2811401     627.1577      1516.48     1611.289     91.58947     183.3983     367.0157      2.091     4.00     1247.219     64.71178     96.95752         6     1.386     0.330  40.91   2
        36    470.8585    939.7367 307.7065646  +6.2788102     1263.176     2996.993       3541.9     92.17285     183.5444     367.1617      2.291     8.33     1247.813     64.71178     153.3512        21     1.656     1.171 -59.00   0
        37    627.1577    941.0215 307.6414895  +6.2834567     879.6223     1696.375      1851.12     91.44305     183.4713     366.9427      2.085     6.86     1246.585     64.71178     131.1761        10     1.478     0.892  12.68   0
        38    905.1194    931.1198 307.5261712  +6.2967350     35051.67     65466.99     69706.19     92.31812      183.909     367.3076      1.988     4.24     1242.637     64.71178     3673.174        73     1.645     1.557 -57.97   0
        39    213.5505    929.7669 307.8139603  +6.2743881     979.0369     1800.257      2053.66     91.88162     183.6173     367.0522      1.920     4.58     1247.404     64.71178     130.9705         8     0.912     0.669  35.85   0
        40    803.0932    924.8807 307.5688347  +6.2959432     1635.286     3329.024     3723.964     91.73566      183.909     367.1982      2.137     5.58     1244.062     64.71178     189.2573        23     1.494     1.150  -9.18   0
        41    751.2717    922.9567 307.5904622  +6.2950254     4386.226     9810.946     11145.15     91.88162     183.6173     367.1617      2.269     5.56     1244.812     64.71178     497.4529        45     1.686     1.575 -61.83   0
        42    221.5704    922.5349 307.8108705  +6.2776422     975.3247     2098.215     2439.976     91.73566     183.6903     367.0522      2.321     7.75     1247.393     64.71178      119.015        16     1.465     1.146   9.94   0
        43     46.0106    920.7760 307.8839726  +6.2725295     1803.675     4124.004     4220.882     91.58947     183.3983     366.9792      2.270     5.09     1246.039     64.71178     264.9661        30     1.605     1.377  61.99   0
        44    939.4192    917.8563 307.5123491  +6.3033466      5528.18     10171.41     10678.58     91.44305     183.5444     366.9061      1.928     4.32     1241.091     64.71178     614.9163        39     1.464     1.417  24.77   0
        45    912.8416    909.5284 307.5236903  +6.3059100     1634.344     2841.856     2884.367     91.88162     183.6173     367.1982      1.888     6.29     1241.119     64.71178     185.1794        22     1.454     1.187 -42.93   0
        46    246.4268    906.0479 307.8010916  +6.2852792     2378.601     6002.074     6341.286     91.58947     183.6903     367.0522      2.433     6.24     1247.645     64.71178     271.7467        41     1.713     1.657  40.50   0
        47    772.3134    906.1227 307.5822787  +6.3026756     855.4128     1736.366     2149.352     92.02735     183.9819     367.2347      2.056     6.02     1243.625     64.71178     110.0488         9     1.548     0.657 -73.44   0
        48    633.9820    905.6655 307.6398523  +6.2982892     2624.434      6052.78     7215.438     91.58947     183.6173     367.0157      2.313     5.61     1244.776     64.71178     290.2834        36     1.628     1.466 -45.84   0
        49    982.6187    905.4062 307.4947960  +6.3099152     676.4172     1252.813     1443.174     91.58948     183.2521     366.9427      1.814     4.24     1240.121     64.71178     95.56995         5     1.058     0.485 -88.15   0
        50     15.2752    904.0028 307.8973338  +6.2784352      1289.37     3051.566     2474.805     91.44305     183.0326     367.0157      2.245     6.22     1245.552     64.71178     164.4357        22     1.501     1.325  60.63   0
        51    558.5353    898.2772 307.6714959  +6.2988434     1126.185     2213.807     2047.173     92.31812     183.6173     367.1252      2.051     6.47     1246.045     64.71178     146.4235        15     1.330     0.884 -36.47   0
        52    598.4418    893.3923 307.6550575  +6.3021830     719.1076     1449.845      1470.78     91.29639     183.3983     366.7965      1.864     5.65     1244.806     64.71178     126.3994         9     1.450     0.621  21.35   0
        53    278.6819    891.6171 307.7881637  +6.2923123     723.2974     1647.016     2375.964     91.58948     183.2521     367.0522      2.396     4.61     1247.961     64.71178     106.3447         6     1.111     0.543  57.81   0
        54    744.4797    887.1411 307.5945048  +6.3095973     782.4579     1357.566     1180.258     92.17285     183.6173     367.0887      1.557     4.29     1242.991     64.71178      133.024         6     1.201     0.622  47.45   0
        55    882.0457    884.7014 307.5373465  +6.3151503     5152.055     9979.799     10702.38     92.02735     183.4713     367.3806      2.005     4.48     1240.381     64.71178      558.806        39     1.529     1.414 -38.89   0
        56    417.9599    882.2026 307.7305344  +6.3008246     1164.455     2498.268     2191.242     91.14949     183.3252     366.8331      2.021     8.15       1246.1     64.71178     153.5312        23     1.596     1.523  43.27   0
        57    319.8157    880.9279 307.7714138  +6.2980942     4993.534     12985.26     15381.92     91.44305     183.4713     367.0157      2.496     6.03     1247.529     64.71178      600.999        56     1.908     1.734  88.73   0
        58    240.0124    879.7648 307.8046576  +6.2959241     3733.291     9868.962     10776.33     91.44305     183.3983     366.9061      2.438     5.95     1247.135     64.71178     548.7101        48     1.848     1.680  48.02   0
        59    897.8604    869.7234 307.5312740  +6.3218602     839.9935     1580.963     2234.589     92.17285     183.6903     367.0887      2.009     5.19     1239.024     64.71178     105.5865         8     1.138     0.669  30.03   0
        60    964.8100    865.7485 307.5035503  +6.3257117     698.9152     1092.278     1713.983     91.29639     183.4713     366.8331      1.689     3.73     1237.678     64.71178     97.79419         5     0.836     0.631  49.11   0
        61    734.2013    863.1777 307.5995957  +6.3191574     1164.911     2439.049     2466.336     91.58947     183.2521     366.7965      2.035     8.56     1241.741     64.71178     158.9086        21     1.491     1.372  42.82   0
        62    965.2944    858.0161 307.5036109  +6.3289222     1111.797     1808.426     2060.679     91.73566     183.3983     366.9427      1.695     5.49     1237.218     64.71178     133.2119        10     0.992     0.856 -70.27   0
        63    652.8721    856.3994 307.6336675  +6.3192675     1469.534     3384.228     4176.612     91.29639     183.0326     366.9061      2.587     6.30     1241.709     64.71178     214.3932        28     1.669     1.381 -45.75   0
        64     49.8284    852.9393 307.8847043  +6.3006805     1549.743     3632.294     4177.184     91.58947     183.6173     367.0522      2.427     7.54       1244.6     64.71178     213.1714        30     1.845     1.434  47.84   0
        65     67.3623    851.2156 307.8774679  +6.3019763     983.5046     2321.622       2267.4     91.73566     183.3983     366.8331      2.336     7.60     1244.623     64.71178     143.7092        15     1.761     1.004  44.05   2
        66    194.1519    851.6117 307.8247004  +6.3060303      1187.48         2654     2736.521     91.29639     183.4713       366.76      2.344     6.04     1246.186     64.71178     176.8979        15     1.322     1.082 -13.66   2
        67    931.0079    851.2543 307.5181072  +6.3305845     779.8093     1396.474     1676.131     91.44305     183.4713     366.7965      1.878     6.22     1237.288     64.71178     116.1204        10     1.192     0.913 -10.37   0
        68    647.3069    845.5400 307.6363524  +6.3235696     3862.822     9557.797     11047.03     91.88162     183.5444     367.2347      2.427     5.65      1241.24     64.71178     428.7312        45     1.750     1.597 -28.73   0
        69    884.8805    841.7208 307.5376249  +6.3330005     2150.862     4064.365     4424.812     92.31812      183.909     367.3076      2.005     4.86      1237.65     64.71178     254.0989        24     1.388     1.158 -44.95   0
        70    330.5569    839.0642 307.7683725  +6.3157455      8194.86     21581.42     25514.14     92.02735     183.5444     367.1617      2.551     5.96     1246.315     64.71178     1022.502        68     1.921     1.892  49.02   0
        71     20.8747    841.9929 307.8971255  +6.3042385     626.2457     1460.663     1709.923     91.58947     183.1058     366.9792      2.740     5.44     1244.409     64.71178     86.36963         6     1.177     0.711  27.66   0
        72    203.6186    838.7122 307.8212020  +6.3116740     639.6955     1396.773     1518.506     91.73566     183.3252     367.0157      1.970     4.60     1246.075     64.71178     112.3308         6     1.285     0.467 -83.59   0
        73     65.2004    839.8171 307.8787573  +6.3066132     663.1865     1760.237     1434.503     91.58947     183.1058       366.76      2.155     7.32     1244.368     64.71178     111.0414         9     1.800     0.834 -12.92   0
        74     94.6454    828.9145 307.8668786  +6.3120971     983.3899     1844.505      1530.25     92.02735     183.5444     367.1252      2.077     6.01      1243.98     64.71178     129.1384         9     1.241     0.819  26.15   0
        75     76.9885    825.3309 307.8743479  +6.3129899     953.6852     1775.869     3021.593     91.44305     183.3983     366.9792      3.271     6.19     1243.956     64.71178      115.847         9     1.225     0.879  12.34   3
        76     78.3114    822.5746 307.8738917  +6.3141726     1423.649     2448.664     3288.019     92.17285     183.3983     366.9427      1.918     5.22     1243.895     64.71178     177.6593        14     1.459     0.691  28.05   2
        77    875.3882    823.4572 307.5421945  +6.3402324     1326.299     2928.211     1754.926     91.29639     183.5444     366.7965      2.102     7.86     1236.692     64.71178     161.2815        23     1.639     1.145 -22.92   0
        78    846.2315    822.8414 307.5543481  +6.3395239     1320.271     2715.031     2761.292     91.44305     183.4713     366.9427      2.104     7.83     1237.412     64.71178     163.7814        18     1.410     1.217 -39.18   0
        79    809.6067    822.1315 307.5696126  +6.3386073      1930.02     4169.773     4582.807     91.44305     183.2521     366.9427      2.243     5.45     1238.433     64.71178     249.2318        27     1.424     1.359  -5.96   0
        80    545.5809    814.1165 307.6797506  +6.3331831     165968.2     447536.3     513150.7     91.58947     183.2521     367.0887      2.520     6.08      1242.55     64.71178     18118.72       173     2.065     2.007 -57.53   0
        81    389.8817    816.8963 307.7444435  +6.3268725     3563.032     9888.785     11364.01     91.88162     183.9819     367.2347      2.538     6.40     1243.928     64.71178     449.6512        54     1.906     1.806 -80.04   0
        82    333.0806    815.1821 307.7681370  +6.3256955     6120.331     16644.94     19481.29     91.58947     183.2521     367.0157      2.547     5.99     1245.762     64.71178     705.1268        63     1.931     1.835  29.17   0
        83    632.4458    815.7730 307.6435486  +6.3353753      650.834      1184.28     1634.318     91.44305     183.6903     367.0157      1.610     3.89     1239.735     64.71178     101.4197         5     1.068     0.406   5.98   0
        84    883.6557    809.9957 307.5392109  +6.3460667     3542.401      7504.58       8560.6     91.29639     183.3983     366.7965      2.242     4.98     1235.798     64.71178      419.536        38     1.643     1.404 -61.24   0
        85    651.0651    811.0044 307.6359629  +6.3379616     1763.511     4309.375     4931.889     91.14949     183.2521     366.8696      2.465     6.91     1239.179     64.71178     217.3823        32     1.704     1.385 -49.95   0
        86   1017.1550    803.9849 307.4838615  +6.3529547     3816.532     7080.894     7277.811     91.44305     183.3983     364.4141      1.960     4.24     1233.082     64.71178     429.6694        35     1.548     1.325  86.84  16
        87    626.0977    805.2276 307.6465488  +6.3395217      1636.57     4402.458     5600.942     92.17285     183.3252     367.0887      2.696     7.01     1239.173     64.71178     222.5078        36     1.722     1.661 -13.95   0
        88    814.0685    804.4330 307.5683568  +6.3460665     1008.791     2030.112     1993.964     91.88162     183.6173     367.1617      2.073     7.22     1237.196     64.71178     123.3481        16     1.299     1.125 -57.80   0
        89    617.2641    801.5825 307.6503486  +6.3407352     902.7351     2036.799     2798.347     91.58948     183.5444     366.9427      3.239     7.32     1239.115     64.71178     134.3676        11     1.893     0.793  -6.87   3
        90    619.2459    798.7632 307.6496198  +6.3419655      1155.11     2495.411     3029.982     91.73566     183.6173     367.0157      2.052     6.31     1238.924     64.71178     156.6154        13     1.679     0.667  20.13   3
        91    902.5057    797.6327 307.5317862  +6.3517966     2395.296      4499.91     4475.443     92.17285     183.4713     367.2347      1.972     4.98     1234.907     64.71178     274.9868        28     1.416     1.317 -72.50   0
        92    360.7051    796.3763 307.7572837  +6.3343815     819.0018     1292.628     2278.623     92.17285     183.3252     366.9792      1.784     3.50     1244.258     64.71178     146.1862         5     0.812     0.462  14.84   3
        93    361.6979    793.5726 307.7569662  +6.3355727      1377.18     2876.736     3681.363     92.17285     183.3252     367.0887      2.473     8.41     1244.112     64.71178     158.9039        21     1.608     1.229   5.78   2
        94    689.7505    795.5588 307.6203902  +6.3456226     4536.699      4409.23     4030.045     92.17285     183.6173     367.0522      0.766     1.07     1237.928     64.71178     1806.568         6     0.537     0.484  28.18   0
        95    682.1653    788.8396 307.6237750  +6.3481475      4186.76     4907.468     4271.204     91.73566     183.4713     366.9061      1.203     4.04     1237.522     64.71178     1034.822        13     1.264     0.460  58.12   0
        96    497.2603    783.6296 307.7008956  +6.3441767     1306.278     3611.328     3473.518     91.73566     183.6173     367.0887      2.425     9.06     1240.909     64.71178     198.8696        28     1.668     1.532  74.37   0
        97    544.0343    780.0657 307.6815533  +6.3471991     2884.513     8224.053     10142.75     91.88162     183.6173     367.1617      2.706     7.10     1240.502     64.71178     312.9086        53     2.001     1.775 -12.72   0
        98    841.9379    781.3998 307.5575414  +6.3565029     545.1919     954.1005     336.4681     91.14949     183.3252     366.7235      1.549     4.83     1234.955     64.71178     114.7288         5     1.367     0.484  -3.50   0
        99    462.3705    778.5873 307.7155857  +6.3451032     789.0773     1835.938     1954.262     91.44305     183.3252     367.0157      2.213     5.99     1240.875     64.71178     106.9454         9     1.324     0.762  62.33   0
       100    878.8564    777.9847 307.5422941  +6.3591330     740.5957     1564.144     1568.189     91.29639     183.5443     366.7965      1.610     4.04     1234.109     64.71178     130.7654         5     1.397     0.334 -85.44   0
       101    105.2905    778.2180 307.8641826  +6.3333947     650.7187      1071.16     1501.008     91.73566     183.3252     367.0157      2.506     4.43     1242.562     64.71178     129.7893         5     1.106     0.505  34.28   0
       102    514.7265    773.8621 307.6939602  +6.3487908     9225.853     26034.98     29580.67     92.17285     183.6173     367.1617      2.563     6.48     1240.215     64.71178     1097.961        71     1.963     1.873 -52.80   0
       103    928.1152    771.6368 307.5220109  +6.3633816     2613.115     5091.131     5099.527     92.02735     183.6173     367.0887      1.999     4.90     1233.396     64.71178     289.4915        29     1.503     1.257 -43.82   0
       104    306.3953    764.5535 307.7809682  +6.3457250     1142.458     2170.678     2109.141     91.29639     183.3252       366.76      2.088     7.23     1243.805     64.71178     157.1808        16     1.970     0.744  22.95   3
       105    307.8415    761.5530 307.7804689  +6.3470125     1551.137     2748.446     3366.156     91.88162     183.6173     366.9792      1.824     7.09     1243.562     64.71178     196.8154        20     1.929     0.868  23.80   3
       106     26.3760    764.3720 307.8974923  +6.3364876     771.0118       1542.2     1416.052     91.44305     183.4713     366.9427      2.083     6.13     1242.852     64.71178     108.3656         9     1.402     0.754  26.30   0
       107    772.7435    758.1708 307.5871246  +6.3638131     30346.32      74872.7     83726.12     91.58947     183.6903     367.0157      2.385     5.84     1234.786     64.71178     3398.101        88     1.914     1.807 -55.42   0
       108    229.5978    735.1304 307.8139295  +6.3553287     751847.9      2586545      3183763     91.44305     183.1789     366.9061      2.903     5.70     1241.986     64.71178      63594.4       561     2.693     2.333  86.46   4
       109      7.7290    760.1907 307.9053944  +6.3375939     1269.083     2289.168     1924.671     91.44305     183.1789     363.6042      1.769     5.97      1242.93     64.71178     182.9655        12     1.282     0.782   2.56  16
       110    695.9373    749.9972 307.6193645  +6.3646501     36368.49       111622     159769.1     91.29639     183.3983     366.8331      3.187    10.12     1235.032     64.71178     4994.883       172     3.394     2.032  28.63   0
       111    897.8934    753.1862 307.5352133  +6.3700066     5498.786     11928.52     13688.27     91.73566     183.3252     366.9427      2.245     5.20     1232.671     64.71178      630.879        48     1.672     1.565 -64.38   3
       112    894.8728    744.7097 307.5367579  +6.3734088     4204.032     9399.585     10572.79     92.02735      183.909     367.1252      2.294     5.20     1232.279     64.71178     480.7289        47     1.734     1.592 -62.47   2
       113    338.3564    752.6560 307.7680745  +6.3517013     5923.054     10212.71     10986.09     91.88162     183.6173     367.1252      1.784     5.26     1242.454     64.71178     743.8224        20     1.601     0.764  35.35   3
       114    340.1573    749.6317 307.7674283  +6.3530105     9542.427     21777.94     24983.74     91.44305     183.5444     366.9427      2.313     6.12     1242.244     64.71178     1077.727        53     2.098     1.358  30.34   3
       115    400.2143    750.2203 307.7424171  +6.3547606     6840.452     11166.43     12333.53     91.73566     183.2521     367.0157      1.783     4.88     1240.972     64.71178     731.1862        24     1.565     0.929  34.55   3
       116    402.2826    747.2057 307.7416592  +6.3560746     10406.46     22319.84     25157.98     91.58947     183.1789     366.8696      2.241     6.45     1240.823     64.71178     1119.056        51     2.063     1.342  31.87   3
       117    938.4314    746.5563 307.5185684  +6.3740836     1672.698     3303.266     3612.543     91.58948     183.6173     366.9792      2.076     4.98      1232.14     64.71178     208.9651        21     1.305     1.163 -84.73   0
       118    634.5021    745.5398 307.6450817  +6.3644586     2538.928     4841.788     6081.225     91.73566     183.6173     367.2712      2.181     4.84     1235.754     64.71178     294.6274        24     1.418     1.165  30.16   3
       119    635.9479    742.8951 307.6445699  +6.3655991      2812.85      5624.39     6446.926     91.88162     183.5443     367.4171      2.149     5.94     1235.561     64.71178      298.002        29     1.972     1.071  30.44   3
       120    423.3979    741.1746 307.7330781  +6.3592667     731.2233     1556.977     2064.995     91.58947     183.2521     366.9061      2.406     5.84     1240.142     64.71178      133.326         8     1.314     1.018 -47.36   0
       121    669.0856    736.6848 307.6309912  +6.3692614     707.0952     1077.269     1291.831     91.73566     183.7632     367.1982      1.437     3.37     1234.366     64.71178     152.7841         5     0.975     0.337  38.71   2
       122    671.2023    733.3989 307.6302221  +6.3706890     1146.663     2519.498     2541.127     91.29639     183.1058       366.76      2.180     7.45     1234.096     64.71178     186.0739        19     1.491     1.180  23.04   2
       123   1017.7578    735.9354 307.4859164  +6.3810882      711.025     983.0991     71.61221     92.02735     183.5444     360.4208      1.644     5.26     1231.249     64.71178     108.6149         7     1.153     0.677  82.89  16
       124    404.4982    730.9462 307.7412915  +6.3628653     22710.44     69270.67     83109.19     91.88162     183.6173     367.3806      2.701     6.77     1240.074     64.71178     2779.127       106     2.136     2.062 -73.64   0
       125    522.2712    729.8151 307.6923205  +6.3672378     3102.704     9227.335     10351.39     91.44305     183.5444     367.0157      2.586     6.68     1237.391     64.71178     362.2955        51     1.926     1.766 -27.45   0
       126    438.7444    727.9780 307.7271417  +6.3652275     1906.366     6071.385     8927.578     91.58947     183.6173     366.9061      3.266     9.51     1238.986     64.71178     301.7345        55     2.451     1.818  48.24   0
       127    767.2810    726.2642 307.5904816  +6.3768142     6088.352     15422.05     16915.43     92.31812     183.6903     367.0887      2.407     5.91     1232.641     64.71178     638.5576        57     1.834     1.742 -32.80   0
       128    787.8451    721.1280 307.5820982  +6.3796158     636.3716       1189.6     1283.501     91.88162     183.6903     367.1252      1.883     5.56     1231.847     64.71178      102.844         6     1.355     0.642  82.46   0
       129    117.7448    715.1862 307.8611552  +6.3598483     1553.533     4287.445     7824.904     91.29639     183.5444     366.8331      4.246     9.65     1239.824     64.71178     206.2477        35     2.084     1.672  58.48   3
       130    125.3894    718.8362 307.8578494  +6.3585947     5116.201     15359.18     21171.22     91.44305     183.3983     366.8331      3.217     6.52     1240.087     64.71178     767.2545        84     2.568     2.016  14.20   3
       131    134.4868    718.3246 307.8540812  +6.3591088     1628.401     3209.445     3626.345     92.02735     183.9819     367.1982      2.249     4.77     1240.021     64.71178     228.8102        21     1.418     1.099  51.91   3
       132    435.9586    720.6984 307.7285491  +6.3681425     1077.295     2085.089     2648.996     92.02735     183.4713     367.3806      2.364     6.32     1238.698     64.71178     178.4611        13     1.569     0.715  33.44   1
       133    912.7267    714.7565 307.5303441  +6.3863729     3925.581      8572.22     10101.08     91.88162     183.6903     367.1617      2.286     5.57     1230.214     64.71178     439.2428        41     1.631     1.527  87.64   0
       134    962.3038    714.2694 307.5097285  +6.3882102     996.6886     1893.168     2352.468     91.88162     183.7632     367.1252      2.191     5.89     1229.522     64.71178     143.0015         9     1.256     0.777   9.94   0
       135    667.4294    712.4969 307.6325029  +6.3791993     870.3889      2238.53     3420.722     92.17285     183.3252     367.1252      2.822     5.71     1233.052     64.71178     103.0894         9     1.458     0.630 -89.31   2
       136    555.1396    711.4103 307.6792692  +6.3759303     1063.405     2858.819     2996.811     91.29639     183.4713     366.7965      2.497     8.37     1235.697     64.71178     140.2465        16     1.623     1.207   5.42   0
       137    907.0128    706.8552 307.5329901  +6.3894486     1767.199     4001.357     4785.343     91.29639     183.5443     366.7965      2.298     6.91     1229.676     64.71178      190.916        27     1.525     1.326  62.45   0
       138    967.0670    705.6683 307.5080379  +6.3919207     1306.251     2484.503     2399.048     92.02735     183.6903     367.1617      1.962     7.53     1228.701     64.71178     143.8616        21     1.521     1.042 -39.35   0
       139    659.5788    705.6753 307.6360019  +6.3817577     830.0357     2099.153     2597.588     91.58948     183.3983     367.0522      2.551     7.75       1232.9     64.71178     94.66138        13     1.320     1.273  45.74   0
       140    230.9903    700.0000 307.8145497  +6.3698879     718.6274     1604.917     2842.401     91.14949     183.1789     366.7965      2.330     3.85     1239.825     64.71178     119.3846         5     0.849     0.501 -25.43   2
       141    936.4824    705.9806 307.5207555  +6.3907825     1934.089     4278.745     4854.551     91.58947     183.2521     367.0522      2.185     5.20     1229.327     64.71178      248.198        29     1.473     1.368 -34.35   0
       142    950.3054    695.6281 307.5153539  +6.3955156     1081.053     1633.607     2028.317     92.17285     183.3252     367.0157      1.833     4.74     1228.207     64.71178     160.7125         8     1.019     0.710  43.95   3
       143    951.0085    693.3254 307.5151394  +6.3964902     1268.327     2741.529      3214.69     91.58947     183.1789     366.9427      2.277     6.96     1227.928     64.71178     162.5673        13     1.504     0.903  10.93   2
       144   1023.6594    688.0945 307.4850815  +6.4010476     2780.375     3896.386     4334.741     80.36777     146.3345     276.3731      1.442     4.69     1225.344     64.71178     547.5654        14     1.529     0.519 -87.55  24
       145    992.8522    687.3525 307.4979278  +6.4003382     1044.623     2090.627     2371.663     92.17285     183.5444     367.1617      2.280     7.95     1226.156     64.71178     126.0184        15     1.661     1.064 -56.85   0
       146    880.3817    682.2217 307.5449088  +6.3987462     940.3737     2203.107      2159.74     91.73566     183.4713     367.0522      2.412     7.88     1228.099     64.71178     120.1727        16     1.573     1.104 -83.41   0
       147    854.1763    677.4380 307.5559771  +6.3998571     633.7941     1287.496     1669.887     91.58947     183.3252     366.8696      2.149     2.87     1227.953     64.71178     123.6077         5     0.719     0.474  15.63   0
       148    837.1876    674.4505 307.5631487  +6.4005301     978.7968     2520.213     3251.636     91.29639     183.4713       366.76      2.472     8.28      1227.87     64.71178     124.0273        18     1.609     1.190 -49.92   0
       149     37.2171    674.0136 307.8960729  +6.3741765     1152.245     3071.192     3804.142     91.73566     183.2521     367.0522      2.667     9.04     1237.181     64.71178     144.6276        21     1.690     1.363  49.58   0
       150    649.3989    662.3605 307.6417115  +6.3993153     2744.633     7904.362     8562.043     91.00236     183.3252       366.76      2.509     6.98     1230.745     64.71178     326.4661        46     1.923     1.603 -64.69   0
       151    596.1508    661.4681 307.6639020  +6.3979211     737.2803     2197.506     3032.894     91.88162     183.5444     367.1252      2.873     7.78     1231.796     64.71178     92.14771        11     1.725     0.980  76.30   2
       152    112.7843    658.4360 307.8651597  +6.3831274     1487.428     4541.726     5187.536     91.58947     183.3983     366.9061      2.633     8.24     1236.267     64.71178     198.4253        37     1.814     1.679  23.61   0
       153    622.3682    657.3096 307.6531326  +6.4005072     847.6135      2353.83     2766.053     92.17285     183.3983     367.1617      2.818     6.16      1231.03     64.71178     121.4644         9     1.372     0.776 -73.05   2
       154    986.0182    657.0424 307.5017994  +6.4126349     1619.622     3417.864     4304.823     91.44305     183.3983     366.8696      2.418     5.86     1224.659     64.71178     189.5227        21     1.393     1.240 -81.00   0
       155    766.2823    654.2987 307.5933420  +6.4065122     9745.126     26405.36     29947.95     92.02735     184.1275     367.2347      2.534     6.27      1227.47     64.71178     1047.028        69     1.911     1.854 -71.61   0
       156    895.8915    653.8593 307.5394164  +6.4109757     2056.184     4696.254     5147.979     91.88162     183.5444     367.2712      2.233     6.32     1226.386     64.71178      236.115        30     1.658     1.313 -73.42   0
       157    239.9423    648.6053 307.8125796  +6.3914174     2380.994     8164.027     10512.54     91.44305     183.4713     366.7965      2.949     8.06     1236.238     64.71178     345.0618        54     2.154     1.768 -76.38   0
       158    645.2361    649.0020 307.6438983  +6.4046963     2160.701     3512.052     4011.021     91.00236     183.3983     366.9061      1.721     6.08     1230.103     64.71178     269.2126        18     1.567     0.850  31.62   3
       159    647.1830    646.0134 307.6431897  +6.4059954     2879.558     6328.025     7071.063     91.73566     183.2521     367.0522      2.220     6.14     1229.897     64.71178      324.316        34     1.990     1.084  23.27   3
       160    905.0237    638.5038 307.5361368  +6.4176211     586.5081     1491.627     1929.964     92.17285     183.3252     366.9792      2.679     5.33     1225.517     64.71178      90.6825         5     1.465     0.548 -77.67   2
       161    717.0000    636.0234 307.6144733  +6.4124327     1330.669     2780.333      3922.98     91.44305     183.1789     366.8696      2.197     7.55     1227.422     64.71178     172.5115        18     1.956     0.815  65.57   3
       162    719.8076    634.7866 307.6133469  +6.4130365     1589.998     3254.373     4482.375     91.58947     183.3252     366.9792      2.436     5.72     1227.265     64.71178     202.4954        22     1.646     1.132  55.10   3
       163    923.0221    632.3502 307.5288548  +6.4207575     1397.986     3375.233     3687.419     91.44305     183.6903     366.9792      2.300     9.44     1224.906     64.71178     179.0717        29     1.805     1.378  82.27   0
       164      6.0902    632.4796 307.9104473  +6.3902978     953.6716     1740.016     2876.519     91.73566     183.8362     349.4341      2.958     3.80     1235.306     64.71178     147.6637        10     1.077     0.709 -77.34  18
       165      3.3469    630.1533 307.9116685  +6.3911674     754.4299     1579.063     2458.291     92.02735     175.1001     311.8222      2.850     3.53     1235.231     64.71178       127.98         5     0.748     0.481  80.19  19
       166    984.7045    631.8392 307.5032006  +6.4230039     5764.235     12812.29     14154.98     92.02735     183.4713     367.2712      2.237     5.53     1224.245     64.71178     639.8645        48     1.704     1.574 -62.36   0
       167     62.4764    627.5986 307.8871497  +6.3941921     10638.59     33224.17     39920.01     91.14949     182.9594     366.9061      2.743     6.60     1234.848     64.71178     1573.868        78     2.109     1.976  80.36   0
       168    525.0978    627.0234 307.6946447  +6.4097972     883.2197     1848.575      3006.49     92.17285     183.3252     366.9427      3.060     5.77     1231.484     64.71178     127.8528        10     0.993     0.945  75.75   2
       169    710.4749    618.9894 307.6177679  +6.4192540     1256.335     2634.564     4291.551     91.58947     183.1789     366.9061      3.058     5.04     1226.743     64.71178     152.1001        12     1.231     0.868  79.21   3
       170    707.2924    618.1027 307.6191226  +6.4195151     1230.136     2802.969     3936.963     92.02735     184.2003     367.0522      2.834     4.62     1226.796     64.71178     196.3293        13     1.243     0.986  69.75   2
       171    731.5291    616.5357 307.6090889  +6.4209641     1720.942     3226.142     4237.376     92.02735     183.6173     367.1252      2.351     4.73     1225.849     64.71178     220.1836        14     1.361     0.765  73.05   3
       172    729.0000    616.0047 307.6101595  +6.4210999     1499.753     3361.396     4937.036     91.14949     183.0326     366.7965      2.839    10.23       1225.9     64.71178     204.9758        25     2.531     1.153  85.68   3
       173    561.1891    617.6596 307.6799432  +6.4148615     1209.268     2249.097     3120.855     91.29639     183.4713     366.7965      2.180     6.38     1230.049     64.71178     140.7892        15     1.357     0.843  23.66   3
       174    562.4554    614.3635 307.6795284  +6.4162652     1307.413     2777.088     3625.252     91.88163     183.6173     367.1617      2.450     7.65       1229.8     64.71178     162.9619        22     1.852     0.976  17.72   3
       175    223.2707    614.2786 307.8206900  +6.4050442     663.5837     1834.563     2445.353     92.31812      183.909     367.0887      2.527     4.79     1233.445     64.71178     106.3359         6     1.694     0.385  55.43   2
       176   1002.9155    613.5101 307.4962426  +6.4311769     3242.997     6655.046     6839.466     91.73566      183.909     367.2712      2.080     5.01     1223.958     64.71178     411.9128        34     1.571     1.371 -72.47   0
       177    968.4813    612.3350 307.5106139  +6.4305265     4775.479     10821.83      12123.5     92.31812     183.7632     367.1252      2.289     5.67     1223.843     64.71178      490.813        49     1.761     1.614 -69.61   0
       178    127.1769    606.4890 307.8609465  +6.4050663     9205.977     30010.92      35217.2     92.02735     183.3983     366.9792      2.751     7.27     1233.561     64.71178     1299.662        79     2.125     1.981 -82.43   0
       179    415.1982    606.0597 307.7410964  +6.4148136     1362.001     2999.883      4725.52     91.29639     183.2521     366.7965      3.126     8.79     1231.482     64.71178     175.5491        21     1.584     1.362  61.46   2
       180    963.2027    595.4517 307.5133833  +6.4373275     4260.916     10236.56     11806.38     91.29639     183.2521     366.6504      2.389     5.34      1222.66     64.71178     450.0542        54     1.832     1.668  54.39   0
       181   1018.6074    590.4233 307.4904941  +6.4412323     60327.09     129132.2     139829.7     91.44305     183.3983     352.3745      2.173     5.08     1221.857     64.71178     6360.418        94     1.816     1.687 -71.07  24
       182    556.9670    590.9172 307.6826108  +6.4257696      17895.5     59879.96     72890.03     92.02735     183.4713     367.0522      2.817     7.58     1228.443     64.71178     2260.508       101     2.170     2.116 -79.90   0
       183    164.3224    587.4775 307.8461378  +6.4141560     1244.257     3675.927     4935.368     92.31812      183.909     367.2347      2.873     9.97     1232.544     64.71178     185.9285        32     1.894     1.716 -45.21   0
       184     59.4421    581.6408 307.8899847  +6.4130767     791.3466     1387.689     1098.682     91.73566     183.6173     366.9792      1.488     4.89     1233.279     64.71178      129.421         9     1.377     0.492 -87.04   0
       185    454.2840    574.7973 307.7258954  +6.4290253     21881.11     77781.09     96637.66     91.29639     183.1789       366.76      2.881     7.76     1228.891     64.71178     2760.979       111     2.235     2.159 -61.80   0
       186    130.1860    569.1896 307.8609695  +6.4205752     796.7253     1679.679      2168.59     91.73566     183.3252     367.0522      2.620     6.05     1232.239     64.71178     115.2357         8     1.196     0.861  21.29   0
       187    301.9581    564.0521 307.7896576  +6.4284084       689.98      1685.15     3380.921     92.02735     183.6903     367.1252      2.823     5.10     1228.336     64.71178     114.8921         8     1.659     0.443 -84.00   0
       188    298.3645    563.2709 307.7911799  +6.4286118     802.1107     1909.604     2916.454     91.88162     183.6173     367.1617      2.942     6.59     1228.269     64.71178     127.1626        10     1.665     0.732 -52.53   0
       189    726.5534    559.2910 307.6131055  +6.4444491     1882.505     4296.117     4982.292     92.02735     183.5444     367.2712      2.423     9.05     1222.927     64.71178     233.5609        24     2.271     1.007 -40.59   3
       190    724.9894    556.8978 307.6138378  +6.4453860     2135.873     3776.857      4520.51     91.73566     183.1789     366.9427      1.981     6.38     1222.834     64.71178     229.9589        19     1.304     1.186 -38.88   3
       191    779.8232    553.3954 307.5911346  +6.4486461     6246.898     17896.47     21173.77     91.58947     183.3252     366.9427      2.636     6.69     1221.701     64.71178     631.3613        64     1.970     1.842 -52.82   0
       192   1019.2188    552.0077 307.4915417  +6.4571233     1476.625     2896.015     3158.746     91.58947     183.2521     345.6555      2.146     6.42     1217.553     64.71178     193.6407        21     1.415     1.202 -69.78  16
       193    996.5781    553.5010 307.5009146  +6.4557597     919.9257     1676.304     1795.747     91.88163     183.3252     366.8696      1.948     4.47     1218.465     64.71178     99.09216        10     1.017     0.859 -64.94   0
       194    604.6931    550.2095 307.6641333  +6.4441678     1287.323     3157.313     4249.865     91.58947     183.1789     366.9061      2.692     8.51     1224.055     64.71178     135.6138        23     1.503     1.346  36.75   2
       195    855.5826    536.7340 307.5601683  +6.4580328     1413.237     3489.246     3180.986     91.44305     183.5444     366.9792      2.287     8.69     1220.597     64.71178     167.6476        23     1.503     1.404 -77.33   0
       196    813.0307    532.2584 307.5780312  +6.4584760     1040.916     2631.286     4005.733     91.73566     183.6173     367.0522      3.199     5.47     1220.255     64.71178     164.6833        11     1.028     0.863  62.07   2
       197    242.8495    529.4256 307.8154401  +6.4407491     2565.592     8992.768     10611.11     91.58947     183.6903     367.0157      2.789     7.61     1228.115     64.71178     356.4055        58     2.060     1.942 -70.37   0
       198    795.0076    525.3027 307.5857690  +6.4607539     67682.86     204110.9     239967.3     91.73566     183.1789     366.8696      2.657     6.90     1220.055     64.71178     7129.916       169     2.388     2.064 -34.01   0
       199     99.6723    522.3320 307.8752710  +6.4389172     1867.541     3617.238     4903.282     92.17285     183.7632     367.1252      2.303     8.32     1231.071     64.71178     203.4266        22     2.315     0.835  56.58   3
       200    101.9739    519.6998 307.8744032  +6.4400812     2791.865     6016.195     6795.406     92.02735     183.3252     367.0157      2.267     6.85     1230.894     64.71178     341.8184        33     1.933     1.220  58.29   3
       201    965.5226    515.9500 307.5151139  +6.4702488     870.9365     1617.709     1951.227     92.02735     183.6903     367.0887      2.118     7.08     1216.298     64.71178     110.3842        11     1.388     1.011 -34.09   0
       202    830.4886    512.6861 307.5714295  +6.4671388     2048.777      4389.73     4932.712     91.73566      183.909     367.2712      2.181     6.94     1219.362     64.71178     228.6467        31     1.935     1.093  83.20   2
       203    833.4770    511.9613 307.5702103  +6.4675369     1698.995     2299.094     2444.241     91.88162     183.6903     367.1252      1.532     3.72     1219.302     64.71178     216.7285        13     1.187     0.768  74.05   3
       204    349.0310    513.1751 307.7718026  +6.4509899      5081.08     9599.254     11479.12     91.44305     183.4713     366.9061      2.045     5.91     1224.093     64.71178     546.7522        26     1.731     0.940  33.33   3
       205    351.3446    510.2405 307.7709398  +6.4522791     6545.757     14932.94     18942.09     91.88162     183.6903     367.1617      2.466     7.90     1223.868     64.71178     726.7559        47     2.309     1.277  34.19   3
       206    152.3722    513.7522 307.8536314  +6.4442153     649.5219     1253.274     1715.648     91.58947     183.6903     367.0522      1.940     4.58      1228.68     64.71178     95.08301         5     0.823     0.723  14.85   1
       207    787.3162    505.0202 307.5896594  +6.4688790     1899.341     2994.162     2890.173     91.58947     183.2521     367.0887      1.621     4.45     1219.308     64.71178     280.8268        15     1.460     0.741  73.14   3
       208    784.3992    504.7770 307.5908818  +6.4688831     2373.546     5135.592     6019.116     91.58947     183.2521     366.8696      2.377    10.59     1219.343     64.71178     271.4056        34     2.605     1.200  81.99   3
       209    153.3448    509.3747 307.8533763  +6.4460561     898.5964     2201.409     3234.871     91.58948     183.6173     366.9061      2.993     7.34     1228.309     64.71178     137.1531        13     1.631     0.925   3.08   0
       210    515.3570    505.9162 307.7028239  +6.4595067     2185.671     6457.258     7735.237     92.02735     183.6173     367.0522      2.668    10.32     1222.841     64.71178     275.9592        40     2.189     1.356  83.32   3
       211    518.5831    504.8222 307.7015184  +6.4600656     2251.849     3356.158     3923.468     91.58947     183.4713     367.0522      1.645     4.26      1222.73     64.71178     252.3113        15     1.291     0.836  74.26   3
       212    162.8005    501.7867 307.8497003  +6.4495054     1793.539      3036.07     4020.306     91.58947     183.2521     366.9061      1.891     4.93       1227.5     64.71178     261.0715        16     1.500     0.721  21.67   3
       213    164.9598    498.2957 307.8489210  +6.4510194     2637.299     6311.381     8200.583     92.02735     183.4713     367.3076      2.670     8.77      1227.21     64.71178     324.4585        42     2.220     1.620  17.15   3
       214    560.3946    500.5433 307.6842615  +6.4632189     912.5621      2491.97     3329.412     91.44305     183.4713     366.7965      2.746     7.34     1222.016     64.71178     118.0802        12     2.035     0.741  58.97   2
       215    258.9352    495.6966 307.8098973  +6.4552177     28272.28     104828.2     132940.5     92.02735     183.7632     367.1617      2.963     8.21     1224.975     64.71178     4294.589       121     2.304     2.232  89.74   0
       216    176.9590    524.1205 307.8430443  +6.4407499     20177.33     71680.48     89675.98     91.88162     183.6173     367.1252      2.898     8.03     1228.958     64.71178     2968.667       108     2.269     2.150 -88.79   0
       217    781.7933    487.6745 307.5925476  +6.4758625     6955.956     20808.02     24232.26     91.58947     183.1058     366.9792      2.619     7.06     1218.594     64.71178     748.3611        69     2.015     1.853 -78.86   0
       218    484.4325    488.2880 307.7162958  +6.4657640     13437.45     26124.28     30389.06     92.17285     183.4713     367.1252      2.106     5.95     1221.583     64.71178     1467.553        47     2.060     1.132  27.81   3
       219    486.4778    485.0679 307.7155542  +6.4671622     15705.43     36505.75     44037.26     92.17285     183.6903     367.0887      2.458     7.26     1221.323     64.71178     1667.101        65     2.485     1.305  25.66   3
       220     35.3307    497.9775 307.9028823  +6.4468358     1802.883     6068.464     6970.268     91.58947     183.5444     367.0887      2.745     8.23     1230.757     64.71178     271.4524        50     2.039     1.850  82.60   0
       221    644.1168    482.0149 307.6500451  +6.4736462     1033.548     3087.982      4981.36     91.58947     183.2521     366.9792      3.448     8.47      1219.71     64.71178     141.2175        20     1.847     1.084  89.14   2
       222    130.0204    474.2054 307.8642864  +6.4598089     8824.505     31261.76     39592.26     91.58947     183.2521     366.9061      2.945     7.98     1227.141     64.71178     1248.973        91     2.233     2.154 -74.47   0
       223    385.1435    477.2029 307.7579995  +6.4670496     657.7983     1519.873     1895.301     91.29639     183.3983       366.76      2.158     4.23      1221.37     64.71178     99.37878         6     1.169     0.436 -62.01   0
       224    314.9176    478.0000 307.7872013  +6.4643885      1039.14     1992.143     3092.269     91.14949     183.0326     366.7235      2.055     6.53     1222.049     64.71178     144.4501        14     1.783     0.672   4.99   3
       225    316.6107    474.6971 307.7866094  +6.4658093      1385.28     2329.688     2714.859     91.73566     183.1789     366.9061      2.023     4.30     1221.796     64.71178     219.7123        13     1.137     1.050  76.56   3
       226    313.3514    473.3027 307.7880135  +6.4662771     1309.649     2372.995     2875.747     92.02735     183.5444     367.3076      1.907     6.50     1221.689     64.71178     151.6556        13     1.416     0.836 -77.86   3
       227     63.4018    477.3935 307.8919038  +6.4562741     493.5266     1121.685     1587.401     91.29639     183.2521     366.9061      2.815     4.19     1229.454     64.71178     70.56335         5     1.028     0.488  86.94   0
       228    856.4273    475.2195 307.5619053  +6.4834743     694.2308     1201.207     1011.658     91.58947     183.3983     367.0157      1.659     3.77     1217.048     64.71178      100.854         5     1.017     0.401  -6.21   0
       229    957.8329    488.3318 307.5192514  +6.4814051      920.097     2420.934     2382.735     91.88162     183.6173     367.1617      2.341     8.27     1214.316     64.71178     115.8524        13     1.633     1.171  27.47   0
       230     96.5368    473.1194 307.8782594  +6.4591430     950.2258     2573.305     3267.408     92.17285     183.6903     367.1252      2.829     7.49     1228.626     64.71178     154.1051        16     1.887     0.833 -56.66   2
       231    493.3213    472.5476 307.7131325  +6.4725615     658.3733     1488.525     1944.653     92.02735     183.6173     367.1252      2.900     4.24     1220.165     64.71178      89.5011         5     1.003     0.510  42.74   0
       232    955.1734    468.0874 307.5210450  +6.4896809     2789.074     6879.196     7158.326     92.17285     183.3983     367.0157      2.321     6.17     1213.139     64.71178     340.2651        40     1.764     1.503 -76.86   0
       233    426.9453    455.0484 307.7413563  +6.4775893     13278.79     50009.79     63797.18     92.02735     183.6173     367.2347      2.970     8.19     1218.909     64.71178     1844.801       101     2.275     2.199 -74.31   0
       234    633.6347    454.6119 307.6553406  +6.4846200     4112.614     10492.28     12149.35     91.44305     183.3983     366.9427      2.457     7.77     1217.134     64.71178     491.0062        45     2.387     1.276  76.76   3
       235    636.6481    453.8092 307.6541136  +6.4850514     4360.938     8042.846     8378.583     91.44305     183.3983     366.7235      1.923     4.45     1216.994     64.71178     517.6486        25     1.585     0.988  75.67   3
       236    191.2726    455.2426 307.8394411  +6.4696804     5637.239     11803.91     12852.49     91.88162     183.6903     367.1617      2.172     7.30     1223.932     64.71178     624.9865        32     1.912     1.005  26.07   3
       237    193.3716    451.8410 307.8386837  +6.4711554     7823.941     17667.92     22297.71     91.58947     183.4713     366.9427      2.471     7.50     1223.663     64.71178     870.2563        62     2.538     1.362  26.82   3
       238    160.0530    453.8696 307.8524820  +6.4692091     812.8672     1654.529     2427.116     91.88162     183.4713     367.0522      2.326     5.59     1224.666     64.71178     117.1626         9     1.187     0.741 -87.89   0
       239    555.6128    454.1758 307.6878308  +6.4822160     750.4596     1558.305      2143.55     91.73566     183.3983     367.0522      2.900     7.96     1217.399     64.71178      108.618        10     1.341     1.322 -74.99   3
       240    557.1577    449.8088 307.6873365  +6.4840713     1034.282     2398.346     3157.172     91.44305     183.3983     366.8331      2.611     7.97     1216.928     64.71178     144.2424        18     1.883     0.944  11.03   2
       241    968.9014    451.3671 307.5158980  +6.4970416     482.8695     1282.922     1765.401     92.02735     183.4713     367.2712      2.573     4.82     1211.454     64.71178     96.56677         5     1.365     0.482   0.49   0
       242    929.5151    448.5176 307.5323892  +6.4969190     2414.833     5081.485     5986.469     91.73566     183.9819     367.1982      2.247     7.03     1213.355     64.71178     241.8542        31     1.968     1.183  86.59   3
       243    932.2668    447.6669 307.5312727  +6.4973613     1579.276     2428.671     2996.712     92.02735     183.6173     367.1617      1.678     3.74     1213.199     64.71178      255.726        11     1.018     0.953  50.00   3
       244    605.5013    446.0171 307.6673432  +6.4872392     2389.348     4029.362     4014.619     92.02735     183.3983     366.8696      1.825     5.05     1216.418     64.71178     290.5236        21     1.556     0.884  66.40   3
       245    602.9806    449.2384 307.6682828  +6.4858249     2072.805     3843.948     4966.585     91.58947     183.3983     366.7965      2.118     5.67      1216.76     64.71178     237.6498        18     1.280     0.979  25.14   3
       246    602.4288    445.2073 307.6686497  +6.4874720     2037.225     3423.424     3980.717     91.44305     183.3983     366.9061      1.892     4.96     1216.308     64.71178     244.6639        16     1.261     1.032 -63.71   3
       247    952.9512    440.4486 307.5229076  +6.5010261      1736.86     4414.059     4717.071     92.02735     183.4713     367.1252      2.298     8.66     1211.657     64.71178     181.1262        30     1.607     1.421 -77.29   0
       248    514.7599    440.7484 307.7052926  +6.4864092     2217.103     3977.943      4475.06     92.02735     183.6903     367.1252      1.902     4.60     1216.547     64.71178      267.139        17     1.383     0.835  15.86   3
       249    517.5463    438.0848 307.7042235  +6.4876020     2683.444     5468.207     6903.835     92.02735     183.6173     367.3076      2.185     5.04     1216.157     64.71178     323.8483        24     1.522     1.095  82.94   3
       250    514.5365    436.6936 307.7055237  +6.4880769     2323.573     3885.811      4845.11     92.02735     183.6903     367.1982      1.867     5.51     1216.121     64.71178     276.6384        18     1.481     0.925 -71.24   3
       251    362.4794    438.3400 307.7687587  +6.4823523     903.0997     3133.583     4238.896     92.17285     183.6173     367.0522      3.029    10.66     1218.481     64.71178     128.1978        25     1.908     1.659 -56.44   0
       252    870.6663    434.5319 307.5573598  +6.5007539     1380.322     2728.804     3953.461     92.02735     183.6903     367.1617      2.165     8.16     1213.776     64.71178     181.1144        23     1.987     0.938  88.46   2
       253    873.6835    433.8019 307.5561287  +6.5011552     1150.627     2513.986     4328.359     91.29639     183.1789       366.76      3.059     6.59     1213.646     64.71178       145.67        15     1.401     0.996  89.17   3
       254    878.1401    427.3228 307.5544936  +6.5039790     995.2935     2753.023      3297.46     92.17285     183.6903     367.0887      2.877     7.22     1213.074     64.71178     126.5513        12     1.316     1.109 -73.58   2
       255    918.8218    426.7399 307.5375793  +6.5055631     652.9138     1300.571      1473.15     91.58947     183.5444     367.0522      1.608     4.92     1212.421     64.71178     101.5049         8     1.332     0.515 -30.35   0
       256    703.4870    425.9867 307.6272388  +6.4987578     1142.542     3136.273     4616.161     91.58947     183.3983     367.0157      3.189     8.66     1213.948     64.71178     138.2148        18     1.920     1.092 -28.50   2
       257    373.2141    424.1662 307.7647742  +6.4885641     1093.568     2799.835     3173.504     91.58947     183.3252     366.9792      2.592     8.85     1217.082     64.71178      132.566        22     2.263     0.965  50.44   3
       258    376.0624    421.7200 307.7636721  +6.4896692     1278.615     2811.978     3734.287     92.17285     183.6903     367.1252      2.571     7.67     1216.827     64.71178     170.7043        19     1.796     0.916  38.91   3
       259     66.1163    424.1569 307.8925958  +6.4783570     754.9305     2367.547     2206.711     92.02735     183.6173     367.0522      2.539     8.91     1226.571     64.71178      108.402        18     1.723     1.287 -46.23   0
       260    600.7886    421.1713 307.6701507  +6.4973475     3034.764     5534.847     7065.222     91.44305     183.3983     366.9427      2.001     6.07     1213.589     64.71178      363.767        20     1.655     0.854  43.49   3
       261    603.1183    418.1754 307.6692829  +6.4986624     3729.374     9150.907     10897.61     91.73566     183.3252     367.0887      2.444     7.88     1213.253     64.71178     422.0472        42     2.102     1.326  33.09   3
       262    763.9869    417.2679 307.6023520  +6.5043608     5810.889     12046.53     13629.97     91.44305     183.3983     367.0157      2.168     9.09     1213.432     64.71178     711.6759        36     2.225     1.036  66.56   3
       263    766.7611    414.7505 307.6012828  +6.5054925     5958.374     11888.84     14880.94     92.02735     183.6173     367.0522      2.226     7.42     1213.288     64.71178     680.0465        40     1.958     1.265  59.98   3
       264    283.0461    418.1492 307.8025103  +6.4880551     930.4185     2105.113     2574.228     92.17285     183.4713     367.1982      2.629     8.41     1217.811     64.71178     125.5736        13     1.597     1.238  50.74   2
       265    949.1543    410.1321 307.5255166  +6.5134255     1011.203     2361.532     2423.474     92.02735     183.5444     367.1617      2.646     6.27     1210.044     64.71178     147.6903        13     1.408     1.021  82.97   2
       266    100.6077    409.8139 307.8787307  +6.4854307     1243.773     2328.282     3610.864     91.58947     183.3252     366.9427      2.269     7.21     1224.998     64.71178     141.7924        16     1.595     0.913  71.82   3
       267    104.3049    407.1311 307.8772836  +6.4866621     1673.024     3706.672     5087.232     91.88162     183.7632     367.1617      2.783     8.50     1224.728     64.71178     219.5881        25     1.892     1.378  39.44   2
       268   1004.1707    405.1599 307.5027838  +6.5172948      2427.74     5877.511     7078.135     91.44305     183.3252     366.9792      2.406     6.30     1206.817     64.71178      254.338        39     1.737     1.561  42.06   0
       269    742.4153    405.7283 307.6117236  +6.5084148     816.0749     1876.564     2811.807     91.44305     183.4713     366.9792      3.272     4.87      1212.32     64.71178     138.0918         9     0.957     0.709  70.28   2
       270    340.3854    401.3154 307.7792185  +6.4969142     1015.714     2625.383     3854.232     91.58948     183.3252     366.9792      2.917    11.57     1216.147     64.71178     148.4331        24     3.013     1.237 -56.29   2
       271    705.4198    386.7397 307.6277690  +6.5150357     4960.784     8376.927       9689.3     91.58948     183.4713     366.9792      1.878     4.53     1210.964     64.71178     546.3817        23     1.492     1.017  87.98   3
       272    702.0378    389.0328 307.6290988  +6.5139765     5137.615     9101.093     10412.19     91.58947     183.3252     366.8696      1.888     5.66     1211.126     64.71178     591.0869        29     1.761     1.005  43.32   3
       273    702.4705    385.5128 307.6290384  +6.5154450     4823.226      7371.03     9207.878     92.17285      183.909     367.1252      1.764     3.57     1210.909     64.71178      579.786        18     1.200     0.973  34.28   3
       274    806.8044    388.4546 307.5855079  +6.5176798     760.0008     1911.451     1919.656     91.29639     183.3252       366.76      2.282     4.99     1210.913     64.71178     106.5283         9     1.686     0.418  38.57   0
       275    623.4720    380.8063 307.6620826  +6.5147745      836.006     2230.562     4433.205     91.58947     183.1058     367.0157      3.419     4.48     1210.408     64.71178     130.3419         7     1.062     0.538  16.71   2
       276    596.9751    378.6260 307.6731865  +6.5147977     5829.929     19273.26     29997.97     91.44305     183.3983     367.0157      3.354     8.88     1210.126     64.71178     692.0701       107     2.830     2.191  35.39   0
       277    927.6396    377.3533 307.5355847  +6.5262574     1884.339     4719.819     5591.387     91.88162     183.6173     366.9061      2.589     6.81      1208.23     64.71178      230.868        28     1.870     1.134  81.70   2
       278    367.9949    373.5567 307.7686735  +6.5092985     8567.046     34269.81     43773.18     91.29639     183.2521       366.76      3.011     8.65     1213.588     64.71178     1255.686        91     2.295     2.166 -62.19   0
       279    115.3253    371.8299 307.8739042  +6.5016122     919.7424     2098.382     2617.448     91.88162     183.6173     367.1252      2.737     7.08     1222.637     64.71178     127.4617        14     1.871     0.751  27.92   0
       280    882.6626    371.2750 307.5545138  +6.5272835     819.3245      1794.46     3033.936     92.31812     183.6173     367.1252      2.474     5.64     1208.314     64.71178     110.6873         9     1.465     0.611 -68.82   0
       281    896.6556    369.3084 307.5487557  +6.5285580     1885.509     3205.696     4183.424     91.88162     183.4713     367.2712      2.247     7.86     1207.949     64.71178     220.5938        22     2.038     0.908  -6.72   3
       282    896.4471    366.0823 307.5489520  +6.5298839     2061.285     3782.824     4469.866     92.02735     183.6173     367.1617      2.079     8.72     1207.702     64.71178     275.3535        23     1.975     1.148  -1.63   3
       283    225.0199    366.7637 307.8284183  +6.5073544     3615.482     6541.361     7185.123     91.44305     183.3983     366.9061      1.884     6.51     1217.687     64.71178     431.7816        22     1.662     0.902  12.52   3
       284    226.8880    363.2174 307.8277619  +6.5088816     5079.325     11739.01     14878.85     91.73566     183.3252     366.9792      2.585     8.38     1217.437     64.71178     614.5403        56     2.458     1.531  20.01   3
       285    125.0649    355.5188 307.8704082  +6.5086747     1380.657     2541.675     2821.885     92.31812     183.6903     367.1252      2.002     7.42     1221.431     64.71178     188.7075        14     1.702     0.905  30.37   3
       286    127.6045    352.2156 307.8694641  +6.5101238     1959.136     4195.474     5303.783     91.58947     183.2521     366.9427      2.444     9.64     1221.142     64.71178      233.403        36     2.250     1.468  31.86   2
       287    148.5155    348.1213 307.8609000  +6.5125111     1039.838     2791.512     3513.065     92.02735     183.9819     367.2712      2.962     8.45     1220.129     64.71178     148.9301        18     2.022     1.070  30.78   2
       288     22.1329    338.0783 307.9138494  +6.5124516     1362.534     3815.063      4556.27     92.17285     183.6903     367.0887      2.729     9.31     1226.962     64.71178     176.6499        32     2.051     1.393  83.78   0
       289    424.3351    339.1714 307.7463945  +6.5253738      2411.31     4892.416     5962.229     91.73566     183.6173     367.0522      2.162     9.01     1208.878     64.71178     263.6519        24     1.938     1.169  51.30   3
       290    427.3383    336.4711 307.7452365  +6.5265890     2421.989     4084.106     5270.083     92.17285     183.6173     367.1982      1.954     5.49     1208.541     64.71178     288.3499        21     1.619     0.940  85.34   3
       291    424.0008    334.6902 307.7466865  +6.5272140      1853.19     3196.321     3755.979     91.14949     183.0326     366.8331      1.916     4.65     1208.567     64.71178     273.6638        13     1.350     0.764 -13.81   3
       292    764.8773    333.9975 307.6048118  +6.5387916     5027.149     15549.32        20197     91.29639     183.0326     366.9061      2.960    10.28     1206.896     64.71178     550.8091        82     2.864     1.959 -10.53   0
       293   1009.5479    328.7704 307.5031357  +6.5490311     1908.361     4880.624     5315.899     91.73566     183.7632     367.0157      2.355     7.05     1202.242     64.71178     229.5175        34     1.643     1.523 -59.08   0
       294    444.3327    318.8867 307.7387619  +6.5344173     886.6122     2100.699     3691.592     92.17285      183.909     367.1617      3.498     5.91     1206.657     64.71178     138.7004         8     1.360     0.722  89.13   2
       295    475.4615    320.6821 307.7257426  +6.5347082     1142.824     2584.548     3770.327     92.17285     183.6173     367.0887      2.796    10.02     1205.776     64.71178     126.0892        23     2.624     1.066 -35.02   2
       296    472.0039    317.8041 307.7272801  +6.5357824     861.0005     1693.944     2766.237     91.29639     183.1058     366.9061      2.938     7.49     1205.655     64.71178     117.3413        10     1.704     0.922 -50.88   3
       297    830.9432    316.7644 307.5778950  +6.5480949     14506.33     42884.41     50766.82     91.88162     183.6173     367.1617      2.661     7.03     1205.705     64.71178     1513.218        91     2.133     1.961 -79.37   0
       298    602.5215    309.7380 307.6732231  +6.5434407     1019.961     3276.501     4260.241     92.17285     183.6903     367.1617      2.832     9.63     1204.031     64.71178     178.4766        22     1.655     1.562 -87.90   0
       299    686.2270    304.8293 307.6385447  +6.5482400     27054.83     51038.08     58978.87     91.44305     183.3983     366.9061      2.112     9.73     1205.435     64.71178     3166.431        54     2.345     1.126  60.16   3
       300    689.4113    302.2055 307.6373084  +6.5494293     26943.11     57577.12      66467.1     91.58947     183.3252     367.0157      2.274    10.30     1205.224     64.71178     2994.021        59     2.259     1.309  44.29   3
       301     87.4066    299.0685 307.8880147  +6.5307411      1945.04     7522.805     9624.426     91.44305     183.2521     366.9427      2.962     8.41     1222.584     64.71178     286.2013        59     2.171     1.964 -86.77   0
       302    551.2581    299.9663 307.6948961  +6.5457792     930.9688     2538.592     3899.375     91.88162     183.6173     367.0522      3.431    10.08     1203.059     64.71178      128.059        18     1.872     1.513 -52.62   2
       303    535.5115    295.4660 307.7016044  +6.5471165     2198.702     3953.205     4368.342     92.02736     183.8362     367.0887      1.897     5.17     1202.751     64.71178     286.8938        23     1.465     1.083 -82.18   3
       304    531.8028    298.1862 307.7030556  +6.5458698     2383.062      4417.35     4492.812     91.58947     183.2521     366.9427      1.903     5.93     1203.082     64.71178     269.2009        24     1.704     0.994  31.24   3
       305    532.0143    294.0000 307.7031102  +6.5476062     2173.089     3987.012     4063.814     91.44305     183.1789     366.7965      1.822     4.82     1202.731     64.71178     239.5322        18     1.315     1.022  11.46   3
       306    262.1816    296.4011 307.8153536  +6.5376576     851.0563     1815.712     2703.473     91.58947     183.1058     366.7965      2.530     6.90     1212.802     64.71178     111.1962        10     1.517     0.879  31.57   3
       307    264.7664    293.8073 307.8143662  +6.5388151     870.9098     1869.734     2463.152     91.44305     183.3983     366.9061      2.482     5.57     1212.666     64.71178     129.2926        11     1.344     0.769  79.31   3
       308    395.0005    289.0000 307.7603172  +6.5451270     6986.141     11474.03      13506.6     91.14949     183.0326       366.76      1.750     4.40      1206.45     64.71178     854.5919        22     1.385     0.990  14.26   3
       309    395.2560    293.5213 307.7600566  +6.5432676     8223.838     16406.51     18532.44     92.17285     183.6173     367.1252      2.130     6.41      1206.81     64.71178     854.1279        38     1.842     1.133  33.85   3
       310    398.3348    290.5252 307.7588771  +6.5446076      9001.47     15691.87     17547.08     92.17285     183.6173     367.0887      1.921     4.72     1206.425     64.71178     1035.415        38     1.822     1.154  73.86   3
       311    483.7170    283.5424 307.7235721  +6.5503251     2600.474     4573.181      6826.59     92.02735     183.6173     367.1982      2.192     5.83     1202.807     64.71178      267.564        24     1.722     0.905  44.24   3
       312    486.1706    280.5028 307.7226544  +6.5516622     2949.624     7841.465     9639.756     92.17285     183.3252     367.1252      2.707     8.65     1202.546     64.71178     345.2262        40     2.120     1.392  42.43   3
       313    752.8397    278.5863 307.6117067  +6.5612854     1114.328     1708.886     2333.567     91.44305     183.3983     366.8331      1.793     5.38     1203.925     64.71178     130.4612        12     1.072     0.938 -46.24   3
       314    753.3511    282.1944 307.6113711  +6.5598117     1222.417     1989.807     2049.966     91.29639     183.3983     366.7235      1.679     6.17     1204.084     64.71178     163.7101        12     1.052     1.018 -70.36   3
       315    756.0000    279.9323 307.6103453  +6.5608338     985.7578      2214.45     2547.789     91.14949     183.0326     366.7965      2.306     5.63     1203.996     64.71178     156.6735        10     1.533     0.589  88.06   3
       316    373.9998    263.4950 307.7699297  +6.5549663     2146.069     3765.262     4888.774     91.44305     183.1789     366.6504      1.955     5.71     1206.391     64.71178     250.5629        16     1.315     0.928  34.61   3
       317    374.1583    268.3968 307.7696964  +6.5529466     2409.831     4350.115     5790.083     91.29639     183.3252     366.7965      2.077     7.84     1206.633     64.71178     273.8646        23     1.723     0.997  41.25   3
       318    377.3684    265.2053 307.7684690  +6.5543716      2600.28      4685.64     5888.562     91.29639     183.4713     366.8696      1.978     5.02     1206.347     64.71178     326.8838        26     1.687     1.060  80.50   3
       319    232.6966    266.2719 307.8286569  +6.5491241     793.2177     1692.665     3059.542     91.88162     183.8362     367.0887      3.268     5.02     1212.962     64.71178     125.6436         7     1.106     0.741 -51.58   0
       320    741.6176    261.6147 307.6169555  +6.5679256     20281.36     49131.99     55740.32     91.73566     183.2521     367.0522      2.406     8.46      1202.98     64.71178     2309.412        57     2.290     1.275  77.95   3
       321    744.7711    260.7342 307.6156727  +6.5683937     17215.41      29893.7     33582.16     91.73566     183.5444     367.0522      1.894     5.15      1202.94     64.71178     2109.907        44     1.850     1.149  72.39   3
       322    413.0414    263.1637 307.7536885  +6.5563992     811.6232     1693.865     2511.679     91.73566     183.6173     366.9792      2.667     5.80     1204.587     64.71178     111.5345         8     1.426     0.665 -12.88   2
       323    417.2488    260.2504 307.7520364  +6.5577423      787.737     1558.643     2588.386     92.02735     183.4713     367.0522      1.648     3.51     1204.311     64.71178     121.6716         5     0.815     0.436  72.06   2
       324    976.7516    259.0958 307.5191522  +6.5767339     903.3159     2103.938     2259.056     91.88162     183.4713     367.3076      2.369     6.58     1198.901     64.71178     142.8696        10     1.272     0.954  62.95   2
       325    918.4247    257.6918 307.5434822  +6.5753889     1270.506     3124.358     3678.046     92.17285     183.3252     366.9427      2.600     8.24     1200.651     64.71178     132.9872        26     1.595     1.449 -70.80   0
       326    178.3653    248.5387 307.8518800  +6.5546429     833.7728     2602.027     3502.231     92.02735     183.6173     367.0887      2.937     8.97     1217.598     64.71178     148.7369        17     2.003     1.121 -45.53   0
       327    430.3086    249.9426 307.7469513  +6.5624341     499.9227     1074.557     1295.677     91.88162     183.5444     367.2347      1.593     3.91     1203.239     64.71178     110.0687         5     1.365     0.321  40.02   0
       328    740.2631    247.9803 307.6179831  +6.5735135     2115.777     3554.778     4469.431     91.58947     183.6173     366.9427      1.769     5.33     1202.251     64.71178     245.3453        20     1.531     0.954  30.02   3
       329    743.4099    245.2016 307.6167675  +6.5747656     1837.811     3025.434     3989.011     91.44305     183.2521     366.8331      1.889     5.47     1202.103     64.71178     218.7269        17     1.518     0.838  69.54   3
       330    740.2629    244.0280 307.6181176  +6.5751463     2026.527      3042.33     3903.195     91.58947     183.6173     367.0522      1.646     4.44     1202.044     64.71178     240.1351        13     1.057     0.902  48.99   3
       331    759.3784    244.1570 307.6101552  +6.5757252     930.6348     2146.954     2758.029     91.44305     183.4713     366.9061      2.406     6.34     1202.084     64.71178     108.3025        12     1.669     0.676  69.64   2
       332    756.3439    244.1653 307.6114182  +6.5756214     887.5505     2024.506     2863.983     91.88162     183.6173     367.1617      2.430     6.32     1202.078     64.71178     151.4475        10     1.924     0.584  71.08   2
       333    347.6776    238.8487 307.7817286  +6.5642740     796.3511     2179.567     3320.938     92.02735     183.6903     367.0887      3.221     7.07     1206.319     64.71178     112.3005         8     1.725     0.813 -88.47   0
       334    995.7742    234.6578 307.5120617  +6.5874576     3233.243     7895.486     8594.116     91.58947     183.6173     366.9427      2.272     6.00     1197.012     64.71178     352.2028        42     1.713     1.560 -88.08   0
       335    476.0933    235.1187 307.7283967  +6.5700770     735.8826     1711.767     1871.598     91.73566      183.909     367.1982      2.223     5.92     1199.417     64.71178      90.0415         9     1.435     0.688  80.31   0
       336    235.2909    233.1283 307.8287096  +6.5629024     1717.774     3185.511     4095.301     91.88162     183.8362     367.1252      1.953     6.30     1212.916     64.71178      183.399        16     1.438     0.800  26.50   3
       337    237.7580    229.7906 307.8277966  +6.5643633     2112.724     5384.961     6666.381     91.29639     183.3983     366.8331      2.568     8.73     1212.744     64.71178     268.4454        38     2.125     1.369  25.13   3
       338    287.9354    230.1135 307.8068972  +6.5658979     2282.715     2145.831     2085.102     92.02735     183.8362     367.1617      0.776     2.75     1209.862     64.71178     831.3308         5     0.759     0.309  -5.96   0
       339    956.2669    220.6768 307.5289839  +6.5919300     486.7541     990.4766     1580.394     92.17285     183.6903     367.0887      1.711     3.48     1197.354     64.71178     92.45337         5     1.184     0.295  54.27   0
       340    373.1926    220.4149 307.7717360  +6.5727366     706.6412     1626.337     2466.263     91.58947     183.3252     366.9427      2.773     4.97     1204.449     64.71178     88.04285         6     1.133     0.616  74.80   0
       341    142.4833    216.5472 307.8679112  +6.5666648     785.3044     1324.578     1860.413     92.02735     183.6173     367.2712      1.724     3.77      1219.81     64.71178     121.9988         6     0.929     0.439  16.72   0
       342    548.9557    214.7930 307.6987563  +6.5808898     780.3389     1755.581     1715.438     91.44305     183.3983       366.76      2.278     4.18     1198.173     64.71178     136.5763         8     1.173     0.765 -19.68   0
       343    713.1716    212.4051 307.6304717  +6.5873143     1787.658     3383.873     3776.774     91.44305     183.3983     366.9061      1.876     8.31     1199.936     64.71178     201.1851        22     1.608     1.200  10.64   3
       344    714.9854    208.7646 307.6298404  +6.5888783     1745.365     3901.228     4856.078     91.58947     183.3983     366.9427      2.361     8.25     1199.874     64.71178     202.5052        24     2.081     0.914  15.39   3
       345    892.4771    211.5949 307.5558498  +6.5935761     862.2905     1912.998     2729.034     91.58948     183.0326     366.9427      2.529     4.52     1198.062     64.71178     118.4619         8     1.162     0.499  88.72   0
       346    654.8682    208.1569 307.6548891  +6.5871397     796.9917     2192.586     3627.813     92.02735     183.5444     367.1982      3.108     5.14     1198.742     64.71178     106.0305         8     1.264     0.591 -12.25   2
       347    211.0235    194.3226 307.8401384  +6.5781265     589.7997     939.6111     1286.885     91.58947     183.4713     367.0887      1.741     3.49     1216.666     64.71178     86.21106         5     1.017     0.345 -42.99   2
       348    213.0000    198.0526 307.8391880  +6.5766513     757.5879     1513.911     1993.025     91.14949     183.0326     366.5773      2.439     5.11       1216.3     64.71178     130.6573         7     1.152     0.640 -16.45   3
       349    215.2482    194.9883 307.8383569  +6.5779920     698.8108     1390.773     2180.119     91.29639     183.4713       366.76      2.753     5.75     1216.388     64.71178     98.17383         8     1.402     0.664  53.24   2
       350    854.9417    195.8464 307.5720118  +6.5988424     807.6707      1800.08     2224.186     92.02735     183.6173     367.2712      2.806     5.38     1197.961     64.71178     111.6266         8     1.029     0.794   8.53   0
       351    446.0051    183.4986 307.7426830  +6.5904041     6349.469      11142.6     12583.18     91.73566     183.2521     366.7235      1.902     4.77     1198.638     64.71178     672.5298        24     1.349     1.147  29.33   3
       352    446.0541    187.7086 307.7425190  +6.5886665     7293.731     11746.77     12900.54     91.88162     183.4713     367.2712      1.772     5.39     1198.919     64.71178     887.3016        22     1.636     0.853  27.50   3
       353    449.4317    185.2472 307.7411969  +6.5897954     7419.905      15358.6     19267.53     91.73566     183.6173     367.0157      2.374     7.00     1198.602     64.71178     795.9414        49     2.284     1.337 -76.89   3
       354    774.7770    183.7802 307.6057971  +6.6011776     4445.622     8621.596     10696.79     91.73566     183.4713     367.0522      2.241     4.77     1199.121     64.71178     552.7917        29     1.678     1.172  75.72   3
       355    134.2330    180.8711 307.8725662  +6.5811283     883.0187     2333.313     3567.323     91.88162     183.6173     367.1252      3.377     6.75      1220.44     64.71178     124.5142        11     1.669     0.765  23.17   2
       356    771.8475    184.9459 307.6069771  +6.6005992     5389.571     12562.06     15308.25     92.02735     183.6173     367.1617      2.396     7.44     1199.169     64.71178     595.3093        44     2.262     1.171  74.86   3
       357    908.5505    176.6268 307.5503452  +6.6085531     610.6743     1351.396     1567.905     91.58948     183.6903     367.0522      1.920     4.52     1196.181     64.71178     98.87085         6     1.462     0.397  11.30   0
       358    570.0751    168.7026 307.6915341  +6.6006305     1026.258     1948.303     2956.397     91.58947     183.7632     367.1617      2.176     4.37     1196.465     64.71178      158.479         7     1.112     0.490  23.22   3
       359    570.0392    172.9971 307.6914028  +6.5988552     1720.953     3199.415      3994.99     91.00236     183.3252     366.7965      2.071     5.47     1196.616     64.71178      218.361        20     1.604     0.878  61.54   3
       360    573.6583    170.5458 307.6899795  +6.5999878     1635.482     3025.474     4214.172     92.17285     183.6173     367.1252      2.158     7.25     1196.549     64.71178     201.6499        20     1.661     1.190 -88.49   3
       361    533.4675    173.9601 307.7065957  +6.5972453     710.5243     1348.358     2040.429     91.88162     183.5444     367.2347      1.883     4.86     1196.614     64.71178     114.8958         5     1.093     0.614  22.75   2
       362    876.8842    167.9304 307.5638245  +6.6111001     4885.107     10693.93     12532.88     92.31812      183.909     367.1617      2.263     7.46     1196.194     64.71178     571.6943        39     2.088     1.220  81.42   3
       363    880.0000    166.9915 307.5625592  +6.6115909     3782.047      6550.34     7483.737     91.14949     183.1789     366.8696      1.834     4.67     1196.105     64.71178     453.7384        22     1.645     0.882  81.25   3
       364    930.9490    168.2893 307.5413027  +6.6127371     1335.923     3114.288      3502.84     92.02735     183.3983     367.2712      2.426     6.75     1195.407     64.71178     186.3335        17     1.441     0.887  62.48   2
       365      4.6696    164.9087 307.9270495  +6.5834068      9564.13     32002.32     38947.65     92.02735     183.7632      331.769      2.839     7.36     1226.833     64.71178         1272        83     2.228     2.035 -80.77  24
       366    964.7632    165.3636 307.5273236  +6.6150619     5154.352     12942.28     14231.39     91.73566     183.4713     366.8696      2.375     5.88     1194.224     64.71178     549.0905        52     1.835     1.645  89.56   0
       367    675.0355    167.2769 307.6478843  +6.6046957     1035.886     2104.929     3471.448     91.88162     183.6903     367.1617      2.295     8.01     1198.593     64.71178     147.6564        15     2.435     0.736  76.60   2
       368    678.3807    165.4070 307.6465552  +6.6055790     880.0329     2114.948     2631.134     91.58948     183.2521     366.9061      2.438     5.51     1198.553     64.71178     146.8881         9     1.391     0.616 -60.66   3
       369    484.1574    161.5858 307.7275466  +6.6007223     634.1644     1964.664      1830.08     91.14949     183.3252     366.8331      2.608     7.09     1196.282     64.71178     102.3296        11     1.938     0.728  72.65   0
       370    815.4232    157.1460 307.5897798  +6.6135246     878.3209     2425.444      2865.51     91.44305     183.6173     366.9061      2.596     6.33     1197.362     64.71178     173.9203        12     1.680     0.670  78.56   0
       371    498.3082    157.6566 307.7217892  +6.6028148     707.0021     1696.246     2414.962     91.88162     183.5444     367.2347      2.287     4.23     1196.209     64.71178     90.55261         5     1.591     0.321  58.95   2
       372    869.1533    156.2149 307.5674412  +6.6156847     994.7548     2622.957     2939.922     91.29639     183.3983     366.8331      2.368     8.92     1195.639     64.71178     133.2386        23     1.613     1.376 -86.55   0
       373    331.5048    153.3370 307.7913811  +6.5990629     2735.161      8646.25     13218.55     91.88163     183.7632     367.1617      3.377     8.80      1207.75     64.71178     292.5267        71     2.522     1.938 -73.45   0
       374    495.4412    158.9453 307.7229389  +6.6021874      690.704     1313.063     2544.333     91.88162     183.6173     367.1252      2.007     3.97     1196.219     64.71178     108.1079         5     0.868     0.520  35.60   2
       375    727.2452    155.2557 307.6265564  +6.6113897     15443.25     28853.93     34256.54     92.02735     183.6173     367.1252      2.135     9.90     1197.766     64.71178     1779.542        49     2.402     1.137  68.24   3
       376    730.2637    152.9992 307.6253764  +6.6124217     13277.39     26294.89     29674.94     91.14949     183.3252     366.8331      2.107     7.05     1197.633     64.71178     1475.697        43     1.963     1.217  57.92   3
       377    961.8741    152.3077 307.5289696  +6.6203603     1558.642     3768.242     4114.176     92.02735     183.7632     367.1252      2.441     6.88     1193.662     64.71178     213.0134        29     1.700     1.546  39.90   0
       378    895.1702    150.8171 307.5567924  +6.6187740     3732.542     7510.521     8658.103     91.58947     183.3252     367.0522      2.106     5.94     1194.954     64.71178     425.2589        35     1.928     1.137  83.71   3
       379    898.1775    150.3675 307.5555556  +6.6190590     2618.368     4226.452     4571.927     91.44305     183.3983     366.8696      1.748     5.71     1194.849     64.71178     300.6527        14     1.509     0.727  86.62   3
       380    438.0546    151.0781 307.7470989  +6.6035337     1584.653     3765.647     4316.186     92.17285     183.6173     367.1617      2.440     9.91     1197.661     64.71178     200.9714        28     2.428     1.127 -86.74   3
       381    441.9679    149.8285 307.7455123  +6.6041798       1716.9     3398.682     4364.533     91.44305     183.3252     366.8696      2.185     8.71     1197.531     64.71178     198.1779        26     1.955     1.083 -81.46   3
       382   1000.3984    150.4086 307.5129943  +6.6224159      1033.28     2159.329     2437.704     91.29639     183.2521     366.8696      2.207     7.27     1192.542     64.71178      144.436        15     1.453     1.018  88.26   0
       383     95.6972    139.9978 307.8900075  +6.5967303     1085.196     1879.078     2202.545     91.44305     183.3252       366.76      1.919     4.98     1221.458     64.71178     174.0648        10     1.348     0.521 -65.08   3
       384     96.4558    143.8259 307.8895607  +6.5951741     1626.803     2658.613     3625.827     91.58947     183.6173     366.9427      1.884     5.72     1221.525     64.71178     226.5067        17     1.559     0.888  30.90   3
       385     99.2594    141.0840 307.8884874  +6.5964002     1879.185     3006.224     3687.783     92.17285     183.6903     367.1982      1.798     7.97     1221.359     64.71178     241.0269        19     1.741     1.020  56.38   3
       386    267.6443    138.2748 307.8184821  +6.6031631     10614.04     41326.62        53484     91.88162     183.6903     367.1617      3.033     8.94     1215.177     64.71178     1469.843       101     2.319     2.228 -64.95   0
       387    241.7008    141.3851 307.8291766  +6.6010156     2207.995     4729.019     6019.186     92.02735     183.3252     366.8331      2.420    10.91     1217.124     64.71178      276.999        36     2.637     1.256  78.50   3
       388    245.0000    139.3584 307.8278724  +6.6019626     2320.165     4674.391     5426.254     91.14949     183.1789     366.6504      2.161     5.85     1216.924     64.71178     313.6781        25     1.957     0.902  79.08   3
       389    390.9791    136.0000 307.7672122  +6.6082002     16103.12     32539.74     36830.96     91.44305     183.1789     366.7235      2.186     6.94     1201.611     64.71178     1851.096        42     2.103     1.111  26.27   3
       390    393.7849    132.9963 307.7661466  +6.6095342     17101.93     36880.74     50767.21     91.58947     183.1789     366.9427      2.661    11.97     1201.298     64.71178     2119.784        67     2.842     1.443  30.82   3
       391    145.0000    135.9893 307.8696193  +6.6000277     911.5824     1905.288     2756.286     91.44305     183.1789     366.8696      2.594     7.07      1219.89     64.71178     156.8693        10     1.961     0.715  60.50   3
       392    148.9985    133.6896 307.8680334  +6.6011108     1534.682     3853.518     5259.621     91.14949     183.1058     366.8696      3.034    10.18     1219.741     64.71178     190.6882        31     1.952     1.481  88.64   2
       393    296.2809    131.3579 307.8067963  +6.6069724     6435.964      22083.2     31498.12     92.02735     183.6173     367.0887      3.254     8.88     1213.201     64.71178     835.9647       108     2.802     2.266  -6.55   0
       394    729.7130    130.0490 307.6263863  +6.6218848     13230.83     31554.97     36843.11     92.02735     183.5444     367.1982      2.385     7.65     1196.329     64.71178     1565.336        62     2.270     1.411  76.16   3
       395    733.0000    128.9914 307.6250538  +6.6224304     10177.53     17226.35     18205.86     91.14949     183.1789     366.8696      1.759     4.61     1196.268     64.71178     1233.719        26     1.645     0.940  80.16   3
       396    778.4077    130.1675 307.6061082  +6.6234464     603.9902     1422.286     2120.176     91.44305     183.4713     366.9061      2.663     4.16     1196.317     64.71178     75.61633         5     1.175     0.421 -76.64   0
       397     47.5101    129.5111 307.9104273  +6.5994572     3156.624     6198.637      7356.06     92.02735     184.2003     367.2347      2.130     6.77     1223.947     64.71178     340.3735        29     1.982     1.210  33.57   3
       398     49.6116    126.7858 307.9096457  +6.6006531     3510.446     7202.988     8727.489     91.88162     183.2521     367.0522      2.295     9.25     1223.791     64.71178     436.6298        34     2.430     1.053  38.48   3
       399     84.0568    124.8622 307.8953716  +6.6025952     705.6405     1116.325      1813.99     92.17285     183.5444     367.1617      1.470     3.96     1221.871     64.71178     118.0745         5     0.876     0.512 -62.51   0
       400    990.5005    111.0156 307.5184519  +6.6383638     1088.948         3149     4037.468     92.02735     183.3252     366.8331      2.817     8.04     1191.242     64.71178     139.8696        18     1.786     1.012 -28.53   2
       401    265.4829    102.4670 307.8206055  +6.6178838     8694.428     16963.81      18659.5     92.31812      183.909     367.1982      2.063     5.64     1216.815     64.71178     922.5854        30     1.462     1.334 -78.47   3
       402    265.5293    106.7709 307.8204392  +6.6161074     9273.799     15953.81     18773.06     91.88162     183.6173     367.0887      1.886     5.58     1216.573     64.71178     1262.288        33     1.910     0.934  19.93   3
       403    268.5287    103.9700 307.8192861  +6.6173642     10990.93     20154.97     23302.81     91.88162     183.6173     367.0887      2.010     6.47     1216.562     64.71178     1310.981        38     1.841     1.178 -78.19   3
       404    581.2759    108.3055 307.6889283  +6.6259529      659.691       1321.7     2860.172     91.73566     183.8362     367.1252      4.362     5.39     1195.574     64.71178     99.54846         6     1.112     0.738   5.54   0
       405     12.9360    102.2001 307.9257563  +6.6095873     1829.123     3739.918     4807.588     91.14949     183.3252     366.7965      2.294     7.65     1225.508     64.71178     220.1169        27     1.980     1.042  21.91   3
       406     11.0321    105.2410 307.9264448  +6.6082676     1594.039     3432.541     4684.455     91.58947     183.4713     366.9792      2.240     7.34     1225.661     64.71178     179.0991        20     1.613     0.935  18.83   3
       407    696.8939    102.0334 307.6410038  +6.6323727     3178.892     6844.526     8987.578     92.17285     183.4713     367.2347      2.444     9.66     1194.611     64.71178     350.5992        40     2.358     1.627  84.37   3
       408    700.0000    100.0121 307.6397794  +6.6333106     2586.237     4317.405     5100.026     91.44305     183.1789     366.8696      1.738     4.63     1194.497     64.71178     358.4911        19     1.519     0.833  85.50   3
       409    109.0491     98.3802 307.8858733  +6.6143673     1764.008     6303.613     7889.037     91.44305     183.6903     366.9427      2.966    10.84     1220.352     64.71178     276.6787        48     1.959     1.861 -68.49   0
       410    378.1165     96.3903 307.7739194  +6.6241364      1303.18     2178.473     2746.931     91.58947     183.2521     366.9427      1.807     5.69     1204.714     64.71178     178.1315        15     1.578     0.742  40.72   3
       411    380.4346     93.1851 307.7730637  +6.6255375     1552.934      3859.25     5187.298     91.58947     183.3252     366.9427      2.758     8.64     1204.571     64.71178     181.7268        32     1.916     1.308  33.83   2
       412    343.3338     95.3754 307.7884355  +6.6234005     1278.326     2429.333      3431.03     91.58948     183.6173     367.0157      2.243     4.99     1209.926     64.71178     152.3726        15     1.268     0.943   7.71   3
       413    346.3092     92.9674 307.7872790  +6.6244941     1083.098     2099.208     2717.052     92.17285     183.4713     367.1617      2.026     6.29     1209.649     64.71178     142.9011        13     1.520     0.731  79.71   3
       414     99.4557     93.4712 307.8900353  +6.6160758     843.4389     1841.245     2839.336     91.88163     183.5444     367.0887      2.529     5.76     1220.541     64.71178     124.3369         7     1.501     0.622 -62.81   0
       415    342.2196     90.6468 307.7890609  +6.6253169     869.9007     1577.172     2109.228     91.58947     183.6173     366.9061      2.013     5.36     1210.168     64.71178     112.5168         8     0.969     0.837 -66.63   1
       416    989.9571     86.8677 307.5194975  +6.6483220     921.2007     1869.376     2053.869     92.02735     183.5443     367.1982      2.186     5.87     1189.157     64.71178     140.0978        10     1.460     0.663  81.81   0
       417    195.9540     82.2796 307.8502430  +6.6239111     1818.267      6832.51     8652.838     92.02735     183.6173     367.1252      2.957    10.55     1218.507     64.71178     272.2877        51     2.138     1.842 -52.72   0
       418    656.1953     81.8829 307.6586349  +6.6393501     2146.156     4181.811     5884.516     91.44305     183.1789     366.8331      2.397     9.47      1194.09     64.71178     265.1215        29     2.619     0.955  82.02   2
       419    659.5975     80.1923 307.6572759  +6.6401611     2115.503     4035.458     4769.991     91.29639     183.2521     366.9061      1.988     6.43     1193.957     64.71178     241.3114        19     1.403     1.006  86.93   3
       420     80.3575     81.9532 307.8983807  +6.6201978     847.7296     1728.292     2091.846     92.02735     183.6173     367.0522      2.188     4.25     1221.421     64.71178     103.0536         7     0.765     0.674  77.27   0
       421    610.0645     78.4210 307.6779599  +6.6392525      3418.64     11115.88     13128.13     91.58947     183.6173     366.9792      2.723     9.53     1194.866     64.71178     424.6002        54     2.118     1.687 -37.65   3
       422    613.2879     69.3427 307.6769270  +6.6431097     19069.34     65881.31     83018.88     92.02735     183.4713     367.2712      2.894     7.69     1194.552     64.71178     2209.182       115     2.477     2.132 -52.31   2
       423    335.0000     71.0237 307.7927368  +6.6331836     714.5467     1298.258      1816.05     91.44305     183.1789     366.8696      1.692     3.90     1211.518     64.71178     121.1532         5     1.085     0.401 -89.78   3
       424    335.6945     76.0567 307.7922758  +6.6311275     1244.432     2257.926     3645.712     91.88162     183.6173     367.3441      2.044     7.47     1211.273     64.71178     168.5947        16     1.720     0.909  49.71   3
       425    338.2367     73.6245 307.7913004  +6.6322167     1592.133     3525.512     4915.754     91.58947     183.3983     366.8331      2.669     5.73     1211.123     64.71178     158.7339        22     1.441     1.111  57.04   3
       426    519.6437     74.6186 307.7157371  +6.6378267     706.6071     1370.874     1722.433     91.44305     183.4713     366.8696      1.707     3.45     1195.979     64.71178     100.6111         5     1.078     0.319 -20.83   0
       427    292.4090     63.3093 307.8107331  +6.6349553     1447.681     4881.525     6433.497     91.58948     183.2521     366.8331      2.979    10.52     1215.937     64.71178     160.2383        45     2.042     1.833  86.01   0
       428    676.6210     54.4909 307.6510627  +6.6513425     1302.571     2603.689     3749.603     91.88163     183.3983     366.9427      2.448     7.06     1192.944     64.71178     186.4304        21     1.767     1.012  49.63   2
       429    679.3802     52.1558 307.6499934  +6.6523985     1158.259     2408.382     2787.432     91.44305     183.4713     366.9427      2.209     7.00     1192.862     64.71178     131.6907        13     1.533     0.896  51.20   3
       430    417.5142     42.4541 307.7593569  +6.6477261     1179.755     2170.399     1887.532     92.02735     183.5444     367.3076      1.862     7.66     1203.191     64.71178     151.9132        16     1.429     1.148  79.80   3
       431    418.7792     46.7628 307.7586831  +6.6459881     1424.448     2351.575     3108.248     91.58947     183.3252     366.8331      1.780     4.45     1202.664     64.71178     208.9523        13     1.317     0.704  12.79   3
       432    421.5071     44.0061 307.7576414  +6.6472175     1324.229     2328.177     2666.009     91.58947     183.2521     366.9427      1.880     5.40     1202.667     64.71178     178.9026        15     1.384     0.792 -71.57   3
       433    873.7366     40.5163 307.5694631  +6.6636340      1169.08      2792.28     3463.237     92.17285     183.6903     367.0887      2.433     8.95     1188.397     64.71178     126.6802        23     1.608     1.389  44.05   0
       434    891.8119     39.5848 307.5619684  +6.6646159     2135.423     5531.264     6624.986     91.88162     183.2521     367.0522      2.601     6.82     1188.318     64.71178     239.2493        40     1.802     1.574  57.34   0
       435    584.1208     39.7284 307.6900801  +6.6543776     772.0532     1928.892     1968.034     92.31812      183.909     367.0887      2.361     5.54     1194.439     64.71178     100.4924         7     1.223     0.708  31.86   0
       436    381.6380     38.1270 307.7744421  +6.6483226     700.2662     1402.814      2194.42     91.88162     183.5444     367.1982      2.527     5.18     1207.626     64.71178      122.166         6     1.218     0.623  65.01   0
       437    131.0297     33.5182 307.8789417  +6.6418939     1167.724     4146.732     3945.053     91.88162     183.3983     367.0887      2.580    11.29     1218.963     64.71178     168.2881        37     2.158     1.646 -43.99   0
       438    268.5799   1012.8323 307.7882305  +6.2419009     1058.698     2318.996     2284.498     91.44305     183.3983     366.9061      2.183     6.64     1250.352     64.71178     142.8204        14     1.366     1.037 -30.17   0
       439    692.4983   1010.2132 307.6119517  +6.2570338     3387.875     6330.533     6616.821     91.88162     183.3252     366.8696      1.991     4.50     1249.364     64.71178     365.0098        33     1.443     1.409 -76.21   0
       440    758.2386     27.2372 307.6180062  +6.6653021     1439.873     2538.889      3558.53     91.73566     183.4713     366.9792      2.217     7.69      1190.67     64.71178     168.0076        19     1.961     0.844  73.76   2
       441    761.3290     25.3686 307.6167829  +6.6661764     1177.444     2285.388     2849.257     91.88162     183.6173     367.0887      2.223     7.02      1190.53     64.71178     149.7189        13     1.391     0.994  69.86   3
       442     52.8358     25.6616 307.9117665  +6.6425351     1227.813     2081.508     2114.948     92.02735     183.6173     367.0887      1.845     5.81     1222.682     64.71178     155.2814        13     1.458     0.792 -14.39   3
       443     54.8613     22.1537 307.9110433  +6.6440517     1230.059     2209.587     2611.216     91.88162     183.4713     367.1252      2.151     9.31     1222.499     64.71178      157.856        19     2.219     1.091   5.14   2
       444    602.5224   1008.5596 307.6494425  +6.2547396     1254.058     2834.047     3374.783     91.88163     183.6173     367.1617      2.327     7.44     1249.164     64.71178     130.0255        18     1.366     1.136  -5.40   2
       445    887.9159   1009.3223 307.5306770  +6.2638593     712.8515     1166.628     772.3484     92.17285     183.9819     367.2347      1.517     4.45     1246.484     64.71178     121.5432         6     1.058     0.532 -50.63   0
       446    223.0682   1006.8446 307.8073691  +6.2428625     901.4897     1609.191     1898.742     92.02735     183.5444     367.1617      1.890     5.37     1250.388     64.71178     139.7513         7     1.293     0.629  18.36   0
       447     58.3121   1000.1724 307.8761397  +6.2401396     5421.308     11512.75     12539.96     92.17285     183.3252     367.0157      2.194     4.79     1246.773     64.71178     687.0343        48     1.728     1.548  77.53   0
