#   1 NUMBER                 Running object number                                     
#   2 X_IMAGE                Object position along x                                    [pixel]
#   3 Y_IMAGE                Object position along y                                    [pixel]
#   4 ALPHA_J2000            Right ascension of barycenter (J2000)                      [deg]
#   5 DELTA_J2000            Declination of barycenter (J2000)                          [deg]
#   6 FLUX_APER              Flux vector within fixed circular aperture(s)              [count]
#   9 FLUXERR_APER           RMS error vector for aperture flux(es)                     [count]
#  12 FLUX_RADIUS            Fraction-of-light radii                                    [pixel]
#  13 FWHM_IMAGE             FWHM assuming a gaussian core                              [pixel]
#  14 BACKGROUND             Background at centroid position                            [count]
#  15 THRESHOLD              Detection threshold above background                       [count]
#  16 FLUX_MAX               Peak flux above background                                 [count]
#  17 ISOAREA_IMAGE          Isophotal area above Analysis threshold                    [pixel**2]
#  18 A_IMAGE                Profile RMS along major axis                               [pixel]
#  19 B_IMAGE                Profile RMS along minor axis                               [pixel]
#  20 THETA_IMAGE            Position angle (CCW/x)                                     [deg]
#  21 FLAGS                  Extraction flags                                          
         1    686.6392     18.0946 307.6449586  +6.6897338     7315.808     11170.19     11467.54     77.80643     154.8748     310.0269      1.606     4.25     813.0189     54.62556     1013.407        30     1.598     0.849  39.97   0
         2    606.8423     17.3926 307.6781427  +6.6873624     3735.689     5923.745     5832.353     77.19038     154.8131     309.6262      1.613     4.72     813.9183     54.62556     536.9524        24     1.549     0.807  36.76   0
         3    407.0977     13.6801 307.7612721  +6.6822234     6224.327     10021.32     9916.219      77.5606     155.3058     309.9653      1.671     4.56     818.7979     54.62556     882.0319        32     1.698     0.863  38.30   0
         4      7.9970     13.3866 307.9271237  +6.6689737     8032.917     12951.53     13272.65     77.31399     154.6897     308.3592      1.693     4.70     820.6587     54.62556     1066.494        32     1.679     0.889  38.28  16
         5    653.6833     12.3507 307.6588455  +6.6910057     949.1526     1613.223     1666.361     77.68362      154.998     309.9961      1.403     5.29     813.1196     54.62556     164.2806        10     1.532     0.515  32.76   0
         6    303.6133      8.6216 307.8044443  +6.6808496      12829.4     20059.06     21039.28     77.43739     154.8131     309.8112      1.702     4.43     823.3181     54.62556     1846.654        42     1.702     0.934  38.88  16
         7    482.4446     10.4221 307.7300702  +6.6860863     694.0595     1019.798     1007.571     77.19038     154.8748     309.7188      1.732     3.61      815.369     54.62556     135.8241         6     1.015     0.501  35.04   0
         8    398.8073      9.6535 307.7648519  +6.6836082       707.92     1251.338     1788.451     77.19038     154.8131     309.5954      1.857     5.36     819.5403     54.62556     108.5986         9     1.456     0.558  33.19  16
         9     77.1930      8.9642 307.8985193  +6.6731211     2352.092     3884.347     3916.734     77.06658     154.8131     309.6879      1.742     4.99     820.6249     54.62556     329.8779        24     1.680     0.883  38.31  16
        10     68.3877      7.7689 307.9022182  +6.6733190     1517.309     2758.357     2848.291     77.19038     154.7514     307.2424      1.838     6.42     820.5435     54.62556     220.3104        17     1.583     0.733  40.03  16
        11    772.0099      7.1373 307.6098461  +6.6971010      828.505     1240.554     971.4155     77.19038     154.8131     303.2383      1.464     3.98      812.547     54.62556     159.1938        10     1.260     0.531  36.54  16
        12    369.7888      6.5775 307.7770134  +6.6839073      2201.99     3158.495     2865.178     77.31399     154.8131     299.0209      1.582     3.91     822.2302     54.62556     359.1791        19     1.433     0.767  35.29  16
        13    438.1566      6.9956 307.7485889  +6.6860206     555.9431      957.875     639.6502     77.06658     154.6897     302.1974      1.846     4.58     817.0687     54.62556      72.6723         7     1.328     0.449  28.34  16
        14    640.6760      5.5538 307.6644776  +6.6933773     1575.462     1576.325     1701.557     77.56061     155.0596     289.5794      0.754     0.89     813.1536     54.62556     820.5432         5     0.657     0.351  56.12  16
        15    630.7230      2.2789 307.6687230  +6.6943970     10706.79     15140.94     15746.85     77.06658     136.3846     248.0939      1.520     4.79     813.2081     54.62556     1513.718        29     1.558     0.816  30.14  24
        16    965.2214      3.5775 307.5296699  +6.7049989     820.4156     1234.117     1528.564     77.43739       149.67     266.3577      1.794     5.71      809.004     54.62556     90.24371        10     1.197     0.766  45.41  16
        17     48.3247      2.6572 307.9107265  +6.6747555     762.0827     1163.704     1115.292     77.68362     140.8619     253.7262      1.650     5.08     820.1595     54.62556     104.5172        10     1.293     0.564  50.89  24
        18    795.4393      1.9186 307.6002833  +6.7000352     1439.605     1950.445     2608.379     74.03326     131.6827     242.3701      1.429     4.50     812.2843     54.62556     220.3021        12     1.270     0.586  29.37  24
        19    508.3821      1.8979 307.7195764  +6.6904709      1278.83     1800.805     2026.706     73.77485     131.2469     241.9758      1.495     4.94     814.7363     54.62556     200.7153        10     1.221     0.566  32.67  24
        20    232.0309      1.1205 307.8344412  +6.6815488     1187.726     1678.634     1646.387     64.52294     119.7584     229.6665      1.180     2.81     821.1337     54.62556     357.7292         9     1.360     0.321   2.37  24
        21    202.1460    984.7969 307.8139320  +6.2745460      1575.92     2706.161      3006.52     77.06658     154.7514     309.5337      1.799     4.93     843.5106     54.62556     209.3772        21     1.589     0.892  37.96   0
        22    934.7334   1022.9979 307.5084654  +6.2832109     4528.674     6800.073     7158.027     74.41918      132.622     243.7059      1.590     5.04     841.5961     54.62556       569.65        24     1.601     0.894  16.75  24
        23    694.7239   1021.8930 307.6081632  +6.2756819     2466.917     4228.425     4468.008      77.5606     145.7919     259.9718      1.790     4.68     843.2943     54.62556     287.3022        25     1.622     0.988  37.09  24
        24    689.1963   1023.5895 307.6104020  +6.2747975     728.0911     1060.168     1058.377     68.54147     124.0662      234.399      1.348     3.62     843.4296     54.62556     120.5417         7     0.948     0.481   7.29  25
        25    418.0265   1022.6589 307.7230296  +6.2661366     927.9754     1120.502     823.0958     76.69398     137.0133     248.7857      1.407     5.45     846.9065     54.62556     128.1647        11     1.070     0.816  27.01  24
        26    219.4957   1023.3582 307.8054386  +6.2592107     937.8005     1413.001     1422.696     71.27328     127.6322     238.4379      1.585     6.00     844.1597     54.62556     140.9408        12     1.405     0.785   2.23  24
        27     91.1116    984.0910 307.8600585  +6.2711189     497.2995     828.7819     805.7302     77.68362     155.4901     309.9961      1.678     3.82     842.1098     54.62556     98.04004         5     1.007     0.417  44.44   0
        28    601.0939    982.4429 307.6483555  +6.2888449     815.4742     1245.664     854.3189     77.68362     154.9364     310.0269      1.739     5.51     845.0036     54.62556     115.0049        11     1.497     0.572  41.74   0
        29    793.2518    980.1692 307.5686383  +6.2961840     2004.984     3519.245     4081.634      77.5606     155.1212      309.842      1.909     4.87     842.2396     54.62556     229.3438        24     1.617     0.959  30.61   0
        30    741.1198    977.8089 307.5903646  +6.2954230     6034.438     10275.56     11707.36     77.31399      154.628     309.7496      1.847     4.26     842.3718     54.62556     753.1758        40     1.804     1.057  39.08   0
        31    210.2574    976.9699 307.8108258  +6.2780480     1389.425     2389.379     2674.816     77.43739     155.0596     309.7804      1.894     4.23     843.4493     54.62556      192.136        17     1.255     0.981  56.16   0
        32    528.3143    977.5410 307.6787399  +6.2884408     845.2191     1493.939     1303.265     77.68362      154.998     309.9961      1.781     5.68     846.1125     54.62556     99.57025        11     1.266     0.718  40.99   0
        33    929.4686    973.0305 307.5123107  +6.3036606     5675.414     10434.28     11366.87      77.5606      154.998     309.8729      1.979     4.93     840.6192     54.62556      649.116        46     1.918     1.212  42.48   0
        34    175.1114    976.4470 307.8254365  +6.2770873     653.8021     1369.308     1391.703     77.68362     154.8748     310.0577      2.127     6.05     843.0681     54.62556     106.6046         9     1.640     0.628  34.29   0
        35     35.5562    975.1523 307.8834250  +6.2729462     2484.491     4328.957     4447.604     77.68362     154.9364      309.842      1.863     4.84     841.0649     54.62556      312.443        25     1.631     0.948  29.47   0
        36    185.1811    969.1992 307.8214979  +6.2804159     637.5461     1286.527     1180.885     77.31399     154.5662     309.5954      1.926     4.66     843.0168     54.62556     90.14996         7     1.219     0.780 -87.86   0
        37    611.7699    967.1616 307.6444314  +6.2955082      649.233     1140.419     830.1193     77.31399     154.7514     309.7804      1.747     4.12      844.523     54.62556     105.5206         7     1.578     0.307  39.17   0
        38    902.8365    964.4435 307.5236552  +6.3063198     1817.843     3016.718     3307.357     77.43739     154.9364     309.7496      1.901     5.56     840.8477     54.62556     222.7391        19     1.400     0.965  38.36   0
        39    623.9130    960.6667 307.6396054  +6.2985938     4232.126     7086.214     6942.156     77.68362     155.1828     309.9345      1.779     4.34     844.2534     54.62556     524.2068        31     1.659     0.989  36.87   0
        40    236.1586    960.8998 307.8006084  +6.2855476      4174.83     6733.459     6714.964     77.68362     154.8748     310.1193      1.707     4.34     843.6609     54.62556     535.2129        30     1.626     0.976  39.70   0
        41    762.6334    961.1646 307.5819847  +6.3030093     1136.162     1769.365     1300.552     77.31399     154.7514     309.6571      1.633     5.37     842.3162     54.62556      144.856        14     1.395     0.689  43.10   0
        42    445.6629    959.0883 307.7136756  +6.2932983     1118.237     1701.259     1525.256      77.5606     155.1828     309.9345      1.689     5.93     845.5226     54.62556     149.0493        13     1.432     0.692  42.63   0
        43      4.6923    958.3200 307.8968040  +6.2788586     2068.959      3418.84     3236.387     77.43739     155.2443     280.2967      1.691     4.77      840.239     54.62556     275.1779        18     1.435     0.854  38.29  16
        44    855.7457    957.0376 307.5434562  +6.3078109     570.2367     1039.664      152.229      77.5606     155.0596     309.9345      1.750     4.40      841.533     54.62556     87.38336         7     1.400     0.394  58.13   0
        45    272.1141    954.6913 307.7858862  +6.2893131     852.6139     1650.533     2102.265     77.43739     155.4287     310.0269      2.228     5.79     844.2909     54.62556     108.8203        11     1.469     0.642  53.00   0
        46    926.9351    953.1656 307.5140225  +6.3117758     559.4979     1025.639     1015.634      77.5606      154.998     309.9037      1.897     5.98     840.1879     54.62556     86.49634         9     1.323     0.760  54.59   0
        47    548.4899    952.9526 307.6711818  +6.2992628      1545.85     2646.433     2647.456     77.68362     154.8748     310.0269      1.803     5.30     845.4872     54.62556     192.4525        20     1.563     0.866  38.51   0
        48     37.7946    950.5287 307.8833206  +6.2831843     654.2695     1076.834     1346.653     77.31399      154.628     309.8112      1.687     4.29     840.2118     54.62556     105.0632         7     1.145     0.457  50.77   0
        49    267.4297    947.2930 307.7880786  +6.2922100     1352.524     2195.099      1915.66     77.80644     154.7514     309.8112      1.743     4.96     843.9581     54.62556     197.3508        14     1.296     0.808  40.73   0
        50    587.8337    949.7913 307.6549496  +6.3018798      1134.45     1831.121     1228.706     77.19038     154.8131     309.7496      1.753     4.69     844.6625     54.62556     154.6157        15     1.321     0.883  29.61   0
        51    734.5488    943.0861 307.5942485  +6.3095363      792.363     1360.432     1478.892     77.68362     154.8748     309.9653      1.893     4.07     842.4186     54.62556      123.157         8     1.155     0.481  30.36   0
        52    872.0799    939.9142 307.5372422  +6.3154219     6109.237     10510.68     11124.46     77.43739     155.3058     309.9961      1.867     4.67      841.097     54.62556     742.7804        39     1.795     1.073  37.20   0
        53    407.9670    937.1561 307.7300605  +6.3010918     2019.923     3386.106     3806.465     77.31399     154.9364     309.7496      1.749     4.28     844.5166     54.62556      251.029        18     1.389     0.846  44.62   0
        54    309.6046    935.5977 307.7709569  +6.2984477     9013.873     14533.15     14771.55     77.06658     154.5662     309.6571      1.725     4.43     844.1031     54.62556     1208.944        39     1.676     1.002  35.86   0
        55    229.7061    934.5347 307.8041693  +6.2962137     6800.743     10962.39     11079.86     77.68362     155.1212     309.9345      1.754     4.47     843.1627     54.62556     870.0538        36     1.644     1.023  39.47   0
        56    558.0082    928.8049 307.6680343  +6.3095473       1101.3     1844.934     1450.795     77.06658     154.7514     309.7496      1.629     5.25     844.8026     54.62556     160.5458        16     1.679     0.672  38.57   0
        57    741.5426    928.0850 307.5918434  +6.3159610     663.9058     1057.019     1412.258     77.68362      154.998     310.0577      1.646     4.95     842.3644     54.62556     106.6512         7     1.151     0.692  54.25   0
        58    887.6285    924.8291 307.5312865  +6.3221655     798.3365     1597.558     1216.412     77.19038     154.7514     309.6571      1.850     6.16      840.489     54.62556     117.2111        14     1.743     0.611  30.20   0
        59    191.9978    925.0443 307.8201445  +6.2988687     430.1538      541.439     541.2515     77.06658     154.5662     309.5645      1.374     3.26     842.1629     54.62556     77.43689         5     0.626     0.604  89.80   0
        60    120.1919    924.9198 307.8499649  +6.2965155       626.28     1007.736     1001.273     77.31399      154.628     309.7496      1.531     4.61     840.1006     54.62556       83.479         6     1.079     0.559  64.48   0
        61    955.6579    920.9520 307.5031643  +6.3260268     679.4775     1101.917     1445.703     77.68362      154.998     310.0269      1.579     6.21     838.4258     54.62556     109.0455         9     1.310     0.828   8.05   0
        62    724.1144    918.0154 307.5994158  +6.3195369     1565.846     2698.995     3137.851     77.31399     154.7514     309.8112      1.728     4.36     842.5079     54.62556     239.4141        18     1.504     0.728  34.80   0
        63    547.7151    918.7818 307.6726426  +6.3133411     745.9122     1032.778     1530.926     77.31399     154.7514      309.842      1.713     5.14     844.7645     54.62556      124.845         7     1.385     0.539  37.31   0
        64    588.4777    914.8777 307.6558456  +6.3163120     783.1713     1294.002     795.7076     77.92906     155.2443     309.9961      1.739     6.53     844.0559     54.62556      116.457        12     1.706     0.702  32.56   0
        65    955.3085    913.7859 307.5035473  +6.3289731     1036.953     1940.335     2284.741     77.43739     154.7514     309.6879      2.188     6.56     838.2793     54.62556     131.7132        15     1.386     0.872  40.11   0
        66    600.1458    914.5320 307.6510118  +6.3168438      613.759     823.2781     415.3777     77.68362     154.9364     309.8112      1.724     5.25     843.8695     54.62556     91.20337         6     1.550     0.502  48.47   0
        67    509.6686    914.2847 307.6885918  +6.3139278     829.5143     1434.925     1148.174     77.92907     155.2443     309.9345      1.844     3.78     844.9585     54.62556     125.9548         6     1.130     0.364  47.89   2
        68    642.7735    911.2949 307.6334178  +6.3196010     2386.324      3781.51     3852.207     77.80644     154.7514     309.7804      1.693     4.23     843.3586     54.62556     330.8585        22     1.597     0.777  30.12   0
        69     39.2674    907.7488 307.8841423  +6.3008905     2645.609     4375.791     4754.769     77.56061     154.8748      309.842      1.736     4.02     839.0487     54.62556     343.0779        26     1.497     0.989  39.57   0
        70    803.3962    907.9146 307.5668282  +6.3263454     802.2449     1116.406     1156.866     77.19038      154.628     309.6262      1.490     5.46     841.8295     54.62556     100.0602        10     1.195     0.703  19.13   0
        71    182.7765    906.6468 307.8245891  +6.3061534     2294.262     3524.292     3609.706     77.31399      154.998     309.7804      1.650     4.03     841.3799     54.62556     290.3713        20     1.386     0.897  39.14   0
        72     56.7387    907.0206 307.8769121  +6.3017768     1786.752     3010.128     2920.229     77.31399      154.998      309.842      1.770     4.44     839.0411     54.62556     273.7731        23     1.494     0.983  35.28   0
        73    920.9379    906.9525 307.5180477  +6.3306516     768.5421     1249.969     1530.583      77.5606     154.9364     309.9653      1.824     3.97     839.1784     54.62556     123.0229         8     1.044     0.650  59.59   0
        74    774.8763    902.0699 307.5788663  +6.3278086     720.5682     1290.549     1040.277     77.92906     155.1212     309.9037      1.929     6.41     841.9572     54.62556     93.44263        10     1.297     0.890  64.56   0
        75    483.8528    902.8370 307.6996939  +6.3177912     3588.522     3307.514     3185.682      77.5606      154.998     309.9345      0.563     0.95     844.8032     54.62556     2271.781         6     0.559     0.362  65.72   0
        76    217.0036    903.3809 307.8104858  +6.3086471     723.6141     1168.182     1219.119     77.31399     154.5662     309.7188      1.779     5.05     842.1484     54.62556     102.0474         8     1.277     0.564  43.79   0
        77    637.3513    900.5575 307.6360271  +6.3238522      6607.38     10616.42     11253.92     77.68362     154.9364      309.842      1.774     4.44     843.2562     54.62556     861.0398        35     1.680     0.981  36.03   0
        78    321.5946    902.2568 307.7670921  +6.3126099      833.898     1239.979      2021.09     77.19038     154.8748     309.6262      1.943     4.95     843.2211     54.62556      137.032        10     1.269     0.653  34.88   0
        79    874.8119    896.6291 307.5375460  +6.3333792     2300.897     4076.431     4250.816     77.19038     154.8131     309.7804      1.908     4.64     840.2043     54.62556     271.9528        27     1.579     1.023  38.94   0
        80     10.1587    897.1093 307.8965857  +6.3043058     899.0292     1340.547     460.6585     77.68362      154.998     309.9653      1.600     4.11      838.837     54.62556     152.5148        12     1.244     0.824  49.13   0
        81    320.3744    893.7834 307.7678819  +6.3160665     15685.17     25130.97     26488.53     77.43739     154.8131      309.842      1.718     4.26     843.0147     54.62556     2058.253        42     1.671     1.014  37.19   0
        82     54.7847    894.7847 307.8781334  +6.3067615     1241.234     2057.331     1910.589     77.43739     154.6897      309.842      1.685     5.59     838.8384     54.62556     154.2703        16     1.563     0.722  30.38   0
        83    190.9695    893.0602 307.8216416  +6.3120355     1154.695     1907.216     2053.371     77.43739      154.998     309.8729      1.621     4.45     841.1556     54.62556      163.241        11     1.354     0.562  41.60   0
        84    370.6035    892.6342 307.7470623  +6.3182198     681.7969     1044.804     1602.322     76.94258     154.8748     309.6879      1.809     4.29      842.969     54.62556     94.28955         7     1.109     0.473  27.52   0
        85     83.4590    884.6767 307.8665653  +6.3118945     1600.836     2432.569     2429.513     77.80644     155.0596     309.8729      1.697     4.31     838.7004     54.62556     214.7935        23     1.485     1.050  54.18   0
        86    648.8983    885.2504 307.6317418  +6.3305551     520.3586     1078.904     1867.363     77.68362      154.998     310.0577      1.747     4.16     842.8293     54.62556     102.8508         6     1.657     0.298  22.35   0
        87    398.1396    884.7418 307.7358912  +6.3223975     1013.853     1559.816     1655.492     77.80643     154.9364     309.9345      1.546     4.37     843.2528     54.62556     167.1771        10     1.233     0.577  39.52   0
        88    477.6839    880.3962 307.7030042  +6.3268477     539.7147     1053.807     1082.594     77.19038      154.628     309.5954      2.105     3.90     844.0624     54.62556     128.6481         6     0.893     0.632  38.20   2
        89    651.5869    880.5757 307.6307810  +6.3325742     739.0433     1241.697     1425.471     77.43739     154.8131      309.842      1.671     5.20      842.712     54.62556     110.7522        10     1.400     0.545  43.05   0
        90    865.6226    878.5765 307.5419620  +6.3405250     1920.515     3279.844     3391.058     77.19038     154.8748     309.8729      1.760     5.20     840.0882     54.62556     225.2636        19     1.471     0.828  41.67   0
        91    836.0598    878.0396 307.5542569  +6.3397633     1932.641     3302.867     3299.425     77.68362      154.998     309.9961      1.762     4.83       840.67     54.62556     247.2549        23     1.525     1.011  33.38   0
        92     67.2478    878.0805 307.8735178  +6.3140737     2239.787     3885.998     4381.783     77.68362      154.998     309.9345      1.769     4.32     838.5677     54.62556     277.7852        25     1.455     1.074  34.74   0
        93    799.5535    877.4703 307.5694364  +6.3387837     2710.079     4476.526     4880.055     77.68362     154.9364     309.9037      1.831     5.23     841.3552     54.62556     333.3105        23     1.672     0.860  37.33   0
        94    535.4604    868.9815 307.6793920  +6.3334874     320865.9     508111.5     535259.8     77.31399     154.9364     309.7496      1.700     4.22     843.7021     54.62556     43020.93       172     1.832     1.243  35.86   0
        95    430.2149    876.0121 307.7228629  +6.3270721     587.9747     877.8301     1021.238      77.5606     154.6897      309.842      1.744     4.44     843.6169     54.62556     111.6949         6     1.170     0.480  18.43   0
        96    315.1302    876.0372 307.7706526  +6.3232158     632.9041     1062.623     1500.587      77.5606      154.998     309.9653      1.609     4.75      842.626     54.62556      103.722         8     1.334     0.479  34.92   0
        97    322.9020    870.0552 307.7676252  +6.3259447     11827.32      19330.7     20659.35      77.5606      154.998     310.1193      1.705     4.30     842.2963     54.62556     1575.958        45     1.686     1.075  37.94   0
        98    379.7294    871.6179 307.7439746  +6.3271992     7514.134     11983.65     12482.57     77.19038     154.8748      309.842      1.721     4.36     842.4457     54.62556     1089.219        36     1.650     0.955  37.05   0
        99    622.7678    871.4567 307.6430527  +6.3353776     1054.612     1528.557     1265.155     77.56061      154.998     309.8729      1.464     4.21     843.0093     54.62556     161.6824        12     1.167     0.685  42.78   0
       100    641.2717    866.2348 307.6355423  +6.3381497     3468.374     5602.058     6102.168     77.56061     154.9364     309.9037      1.732     4.10     842.6252     54.62556     483.6945        25     1.662     0.861  40.18   0
       101    873.7970    865.0776 307.5390159  +6.3463687     4770.646     8271.421     9279.526     77.19038     154.5044     309.7188      1.861     4.50     839.5427     54.62556      595.324        37     1.758     1.113  35.72   0
       102    712.9533    862.4891 307.6058987  +6.3420841     796.1664     1040.597     1292.616     77.68362     154.8748     310.0269      1.365     3.60     841.9398     54.62556     135.5078         9     1.013     0.716  52.20   0
       103   1007.1754    859.0712 307.4838238  +6.3532802     4054.113     7602.866     8593.614     77.31399     154.8748      309.842      2.033     4.61     835.4885     54.62556     487.6899        42     1.795     1.270  45.02   0
       104    616.0779    860.3273 307.6462017  +6.3397482     3309.291     5084.805     5135.193     77.92906     155.2443     309.9037      1.654     4.36     842.8459     54.62556     449.4481        26     1.562     0.880  39.18   0
       105    804.5909    859.3461 307.5679472  +6.3464322     1437.265       2212.7      3068.26     77.06658     154.9364     309.6262      1.847     4.82     840.9387     54.62556     198.5084        15     1.452     0.733  37.71   0
       106    606.2244    859.1753 307.6503320  +6.3398952     1045.862     1725.152      1867.21     77.19038     154.8131     309.8112      1.705     5.56     842.9371     54.62556      147.217        13     1.442     0.661  34.45   2
       107    609.1057    854.9230 307.6492772  +6.3417465     2080.139     3308.453     3234.121     77.43739     155.1828     309.9653      1.638     4.32     842.7543     54.62556     278.8816        20     1.502     0.786  44.82   3
       108    931.2497    858.1002 307.5153878  +6.3511586     734.8816     1215.128     1645.828     77.68362      154.998     310.0577      1.973     5.48     837.6307     54.62556     104.8236         9     1.036     0.818  31.75   0
       109    892.5747    852.9714 307.5316199  +6.3519900     2828.311     4818.826     4889.403     77.19038     154.8131     309.7804      1.794     4.86     838.7664     54.62556     344.0026        28     1.672     0.975  44.89   0
       110    302.4841    853.5394 307.7766559  +6.3320788     1160.553      1867.79     1789.137     77.80644     155.0596     309.9653      1.758     6.27     842.2576     54.62556     168.3753        13     1.370     0.806  33.83   0
       111    350.7210    848.8722 307.7567806  +6.3356180     2605.292     4164.915     4569.241     77.92906     155.2443     309.8729      1.759     4.33     841.1096     54.62556     345.0257        22     1.474     0.885  42.23   0
       112    318.6786    840.5057 307.7703664  +6.3379999     505.0924     750.7209     487.2471     77.43739     155.1828     309.9345      1.848     5.06     841.4662     54.62556     110.1959         6     1.063     0.682 -74.55   0
       113     51.6427    840.4617 307.8812581  +6.3290773     5696.556     10442.82     12436.47     77.68362      154.998     309.9961      1.872     6.03     837.4438     54.62556     1444.896        21     2.065     0.496  29.27   2
       114    486.9374    838.6428 307.7005544  +6.3443904     3105.246     4954.768     4916.769     77.68362     154.9364     309.9961      1.668     4.00     842.2961     54.62556     420.2438        25     1.559     0.862  37.73   0
       115    831.3386    837.5388 307.5575641  +6.3563234      1077.64     1441.398     1450.791     77.68362      154.998     309.9345      1.433     4.33     840.0454     54.62556     147.9084        12     1.163     0.776  39.56   0
       116    552.6432    836.1456 307.6733510  +6.3476138      761.419      1289.39     1550.744     77.68362      154.998     309.9037      2.004     6.46     841.7618     54.62556     109.2628        13     1.304     0.899  28.07   0
       117    533.7977    834.8167 307.6812217  +6.3475336     5823.779     9112.246     9673.729     77.31399     154.5662     309.7188      1.649     4.11     841.7506     54.62556     850.0175        31     1.626     0.897  37.71   0
       118    869.8757    833.0468 307.5417089  +6.3594593      1285.74     2464.676     2385.723      77.5606     155.0596     309.9037      1.940     5.75     839.2007     54.62556     182.3429        20     1.771     0.859  36.60   0
       119    540.6956    834.3124 307.6783739  +6.3479719     1147.287     1780.945     2275.494     77.68362     155.3672     309.9653      1.585     4.90     841.6358     54.62556     158.0903        12     1.218     0.664  45.92   0
       120    451.7025    833.7320 307.7153508  +6.3452409     1518.714     2320.409     2270.782     77.68362     155.1212     309.9037      1.757     5.58     841.9633     54.62556     228.7131        17     1.576     0.779  35.36   0
       121    245.3172    834.9712 307.8010163  +6.3378304      826.517     1209.557     1358.464      77.5606     154.8131      309.842      1.507     4.91     840.6926     54.62556     110.7282         9     1.092     0.624  38.67   0
       122     93.2283    833.0424 307.8642380  +6.3335334     1383.363     2203.422     2294.503     77.31399      154.998     309.7804      1.739     4.55     837.4028     54.62556     176.2012        19     1.451     0.897  47.24   0
       123    669.3396    831.5069 307.6250426  +6.3534193     789.8442      1020.51     1163.063     77.56061     154.9364     309.9345      1.519     5.30     840.9855     54.62556     108.1559        10     1.182     0.672  50.33   0
       124    504.5456    828.6620 307.6935750  +6.3490978     19604.03      30212.1     31635.21     77.80644     154.9364     309.8729      1.682     4.24      841.634     54.62556     2721.205        45     1.664     1.000  36.73   0
       125    345.4890    830.5740 307.7595646  +6.3429956     747.5618     1070.594     1008.368     77.80644     154.7514     309.7496      1.517     4.86     840.8224     54.62556     97.19751         6     1.027     0.650  20.93   0
       126    918.0955    826.7948 307.5218906  +6.3636431      3500.75     5973.669     6425.683     77.43739     154.6897     309.6879      1.800     4.56     837.6453     54.62556     434.9597        29     1.623     0.973  35.54   0
       127    150.6854    828.6353 307.8405258  +6.3372774     590.4526     735.4033     567.7858     77.68362     154.8748     309.9037      1.322     4.02     837.7752     54.62556     105.3904         6     0.961     0.480   2.17   0
       128     37.5935    824.9830 307.8876108  +6.3349949      526.449     829.2208     879.6949     77.31399     154.7514     309.7496      1.680     5.26     836.8292     54.62556     79.84381         6     0.967     0.807   5.49   0
       129     14.8717    819.3876 307.8972337  +6.3365424     1432.588     2112.997     2309.418     77.19038      154.628     309.7188      1.687     5.57     836.4561     54.62556     213.5314        17     1.595     0.736  38.35   0
       130    672.4730    820.1813 307.6241185  +6.3581984     427.5732     629.2028     214.7451     77.31399     154.9364      309.842      1.441     4.66      840.541     54.62556     80.08704         5     1.173     0.525  29.07   0
       131    144.0510    819.4952 307.8435867  +6.3408276     536.0895      687.204     793.0872      77.5606     154.9364     310.1193      1.505     4.98     837.3316     54.62556     77.31122         6     1.031     0.679  52.70   0
       132    297.2083    817.3598 307.7800560  +6.3468353     3118.314      5000.81     5060.485     77.06658     154.8131     309.6262      1.662     4.60     840.8187     54.62556      447.274        24     1.551     0.869  31.88   0
       133    762.7249    813.1775 307.5868698  +6.3640953     51618.45     83522.52      88026.3     77.31399     154.8748      309.842      1.721     4.32     840.2063     54.62556     6895.869        69     1.796     1.064  39.81   0
       134    701.3478    814.7914 307.6123062  +6.3613851     710.7855     985.8945     811.3826     77.19038     154.8748     309.6262      1.525     5.94     840.3614     54.62556     98.46814        10     1.453     0.684  32.47   0
       135    220.0440    810.9161 307.8123161  +6.3469131     4747.059     8264.118     10829.36     77.68362      154.998     309.9037      2.185     4.39     839.1635     54.62556     654.5941        39     1.807     1.321  46.71   0
       136    405.6362    811.6502 307.7352185  +6.3528165     887.4891     1165.894     1207.327     77.56061     154.9364     309.8112      1.392     3.39      840.645     54.62556      166.136         7     1.149     0.468  39.35   0
       137    887.9499    808.4030 307.5350214  +6.3702323     7601.768     12910.78     14031.65     77.06658     154.6897     309.5028      1.792     4.44     838.2973     54.62556     996.2795        40     1.779     1.019  40.01   0
       138    690.9304    807.7644 307.6168665  +6.3639386     20677.58     33619.49     36603.11      77.5606     155.0596     309.9961      1.731     4.45     840.1263     54.62556     2879.295        40     1.703     0.939  36.99   3
       139    684.5510    804.2319 307.6196335  +6.3651841     85794.98     134571.7     142895.3     77.43739      154.998      309.842      1.702     4.21      839.992     54.62556     11868.11        92     1.878     1.132  39.91   3
       140    329.5107    805.2061 307.7670476  +6.3529320      20209.9      31837.8     33025.75     77.19038     154.6897     309.6879      1.697     4.17      840.264     54.62556      2841.84        45     1.696     0.973  37.20   0
       141    391.3985    803.0491 307.7414185  +6.3558908     21239.07     33245.85     34865.53     77.06658      154.628     309.5028      1.670     4.14     840.2256     54.62556     2935.329        46     1.698     0.963  36.43   0
       142    378.8175    805.4977 307.7465615  +6.3544598     1223.445     2119.209     1654.923     77.56061     154.8131     309.6879      1.741     6.39     840.2775     54.62556     165.0599        15     1.574     0.729  30.40   0
       143    617.7486    804.4184 307.6473706  +6.3628807     536.8384     917.4967     1728.336     77.19038     155.0596     309.6571      1.961     3.88     840.5153     54.62556      98.3681         6     1.329     0.324  41.70   0
       144    928.6200    801.9727 307.5183442  +6.3742385     1840.513     3329.004      3761.21     77.31399     154.8131     309.8112      1.983     5.57     837.0043     54.62556     237.3443        24     1.744     0.951  32.11   0
       145    884.8959    799.7842 307.5365762  +6.3736883     6249.012     10215.03     10441.95     77.43739     154.8131     309.7496      1.726     4.37      838.265     54.62556     840.1039        34     1.664     0.978  39.67   0
       146    219.6034    789.6310 307.8132111  +6.3556837     749605.9      1743875      1939405     77.19038     154.8131     309.7188      2.345     8.17     838.3446     54.62556     62733.29       604     2.530     2.087  26.80   4
       147    625.4619    798.8927 307.6443514  +6.3654186     6282.081      9712.99     10315.61     77.68362      154.998     309.9653      1.629     4.18     840.2784     54.62556     880.1505        27     1.566     0.846  35.36   0
       148    413.9818    796.7316 307.7322508  +6.3592530     1569.163      2587.19     2723.793     77.31399     154.8748      309.842      1.698     4.31     840.0317     54.62556     255.1315        16     1.485     0.690  46.53   0
       149    138.7327    796.2698 307.8465728  +6.3502356     828.9323     1312.936     1576.879     77.68362     155.1212     309.9037      1.916     5.14     836.5732     54.62556     110.4788         9     1.135     0.657  59.40   0
       150    578.3593    790.8182 307.6641823  +6.3671807     826.6375     1413.624     1195.792     77.31399     154.8131     309.6879      1.803     5.20     839.7866     54.62556      148.291        10     1.464     0.522  49.70   0
       151   1007.6772    790.4973 307.4858912  +6.3816017     709.6498     1067.663     1322.649     77.31399     155.1828     309.9653      1.631     5.40     835.3804     54.62556     87.33575         8     1.278     0.643  40.77   0
       152    129.6297    789.7881 307.8505701  +6.3526059     865.8755     1524.911     2023.753     77.19038     154.7514     309.7804      1.985     5.26     836.4774     54.62556     111.1368        13     1.405     0.695  38.69   0
       153    853.2151    790.2457 307.5500508  +6.3765718     763.6791     1160.461     966.1475     77.06658     154.8131     309.6571      1.629     4.56     838.7449     54.62556     129.5382         7     1.131     0.522  37.60   0
       154    660.4358    789.0099 307.6301557  +6.3706635     2353.406     3689.661     3490.699     77.19038     154.7514     309.6879      1.624     4.62     839.7509     54.62556     313.6047        20     1.509     0.828  37.52   0
       155    104.6104    789.3826 307.8609736  +6.3519350     979.6751     1392.658     1001.048     77.43739     154.6897     309.7804      1.449     4.73     836.3669     54.62556     144.7384        10     1.265     0.607  34.46   0
       156    394.3403    785.7323 307.7407751  +6.3631366     52644.16     82422.48     86840.19     77.80644     154.9364     309.9037      1.688     4.41      839.641     54.62556     7104.625        68     1.748     1.058  34.68   0
       157    937.2554    786.6202 307.5152677  +6.3808624     655.7122     1125.573     1703.515     77.19038      154.998     309.7188      2.026     5.03     836.7151     54.62556     84.87933         7     1.023     0.869  25.34   0
       158    512.0989    784.7344 307.6919034  +6.3674811     7020.018     10955.53     10816.37     77.68362     155.1212     309.9037      1.649     4.30     839.6182     54.62556     968.5912        29     1.601     0.873  34.69   0
       159    428.8542    783.3805 307.7265201  +6.3652604     4312.646     6945.674     7732.713     77.19038      154.998     309.7188      1.716     4.47     839.6786     54.62556     550.7944        28     1.632     0.884  38.73   2
       160    425.2703    776.5375 307.7282369  +6.3679651     2392.923     3413.152      3799.88     77.68362      154.998     309.9653      1.575     4.20     839.4857     54.62556     325.8786        17     1.408     0.756  37.07   2
       161    757.2979    781.2502 307.5901860  +6.3770928     10843.53     17573.71     18474.68     77.56061     154.9364     310.0577      1.725     4.35     839.3934     54.62556     1532.232        41     1.688     1.014  36.34   0
       162    651.0591    780.0485 307.6343484  +6.3740499     546.4484     873.9075     1161.789     77.68362      154.998     309.9653      1.815     5.24     839.6203     54.62556     78.34076         5     0.907     0.853  45.35   0
       163    123.1381    773.7501 307.8538029  +6.3590079     2852.023     4806.502     5274.346     77.68362     154.9364     309.9653      1.797     4.29     836.2943     54.62556     399.9641        28     1.601     0.974  39.69   2
       164    115.0034    773.3939 307.8571930  +6.3588824     11061.04     17774.54      19682.6     77.06658     154.6897     309.7804      1.726     4.22     836.2543     54.62556     1394.212        43     1.768     0.993  36.93   3
       165    107.1777    770.7571 307.8605312  +6.3597085      2887.86     4616.206     5566.461     77.19038     154.8748     309.7188      1.838     5.31     836.2051     54.62556     366.8396        25     1.657     0.865  32.87   3
       166    778.8322    775.2854 307.5814408  +6.3802718     1342.628     2094.368     2354.906     77.68362     154.8131      309.842      1.666     4.74     839.2375     54.62556     194.3214        16     1.483     0.708  37.24   0
       167    902.7957    769.8319 307.5301373  +6.3866466     5873.826     9769.044     10352.31     77.06658     154.8748     309.6879      1.752     4.38      837.223     54.62556     787.2001        35     1.727     0.961  37.07   0
       168    951.7757    769.5873 307.5098027  +6.3883755     1435.933     2317.417     2622.151     77.43739     154.8131      309.842      1.789     4.96     836.2944     54.62556     199.6554        18     1.343     0.965  44.55   0
       169    658.3697    767.5192 307.6317295  +6.3794651     1519.421     2511.606     2976.031     77.56061     154.8748     309.8729      1.742     4.63     839.3099     54.62556     256.6614        15     1.464     0.668  37.62   0
       170    545.1496    766.8127 307.6787749  +6.3759812     2231.124     3440.584      3518.92     77.06658     154.9364     309.5954      1.666     4.54     839.0067     54.62556     348.6548        20     1.650     0.687  38.42   0
       171    393.3320    766.0801 307.7418501  +6.3712144     1004.339     1811.414     2274.689     77.80643     155.2443     309.9037      2.112     5.33     838.9545     54.62556     157.6328        13     1.389     1.088  35.61   0
       172    107.2504    764.3483 307.8607156  +6.3623561     1826.975     3100.661     3204.951     77.80644     154.8748     309.8729      1.729     4.72      836.139     54.62556     268.3142        19     1.550     0.819  39.71   0
       173    926.3837    761.2331 307.5206262  +6.3909800     3019.856     4780.921     5147.857     77.31399     154.7514     309.7804      1.699     4.23     836.6855     54.62556     402.2526        25     1.565     0.901  36.49   0
       174    897.0675    761.8343 307.5327821  +6.3897573     2805.621     4600.311     5147.576      77.5606     155.0596     309.9961      1.818     4.63     837.1865     54.62556     355.7862        21     1.486     0.902  40.12   0
       175    957.3513    761.2855 307.5077627  +6.3919875     1751.466     2787.233     2479.416     77.68362     154.9364     309.9345      1.728     4.80     836.1331     54.62556      261.267        23     1.651     0.904  29.17   0
       176    649.3478    760.9746 307.6356945  +6.3818657     1488.888     2206.923     2496.217     77.31399      154.998     309.8112      1.590     4.68     839.2042     54.62556     207.6954        15     1.414     0.749  40.86   0
       177    796.7189    759.3122 307.5745435  +6.3874602     942.2352     1377.598     1121.396     77.43739     155.2443     309.9961      1.560     5.29     838.8533     54.62556     141.9257        11     1.385     0.571  32.46   0
       178    871.5732    757.0248 307.5435305  +6.3908947     732.5424     1431.757     1291.147     77.19038     154.8131     309.7804      1.950     5.76     837.4739     54.62556      109.817         9     1.195     0.781  66.94   0
       179    221.8315    756.1224 307.8134067  +6.3695887     1643.226     2715.571     3778.115      77.5606      154.998     309.8729      1.795     4.78     837.0146     54.62556     243.1721        18     1.637     0.713  40.34   0
       180    241.9746    751.7966 307.8051861  +6.3720483      685.986     1180.167     1694.275     77.19038     154.6897     309.7496      1.764     5.40     837.0086     54.62556     123.3845         9     1.427     0.638  43.35   0
       181    914.5994    751.3063 307.5258504  +6.3946857     945.1777     1386.718     909.3461     77.19038     154.5662     309.5954      1.705     5.54     836.7342     54.62556      136.043        11     1.472     0.588  52.64   0
       182    888.8325    750.4723 307.5365799  +6.3941732     1034.956     1760.181     1500.537     77.56061      154.998     309.9345      1.720     6.15      837.061     54.62556     145.0049        15     1.629     0.652  42.83   0
       183    136.6190    750.9132 307.8489691  +6.3688853     709.9951     1070.244     913.4551     77.43739     154.7514     309.7804      1.511     4.76     836.1202     54.62556     96.08783         9     1.114     0.578  26.97   0
       184    941.1890    749.0963 307.5148803  +6.3964817     2274.391     3600.106     4133.083     77.43739      154.628     309.7188      1.660     4.43     836.3193     54.62556      282.076        20     1.474     0.816  41.52   0
       185    660.9702    748.0563 307.6312978  +6.3875852     895.2087     1525.678     2002.749      77.5606     155.0596     309.8112      1.767     6.06     838.8631     54.62556     126.1011        10     1.277     0.810  40.28   0
       186   1015.3271    743.0956 307.4842872  +6.4014214      6546.72     11269.97     12055.56      77.5606     155.1212     309.9037      1.833     4.52     834.9965     54.62556     789.2841        40     1.740     1.090  37.64  16
       187    983.3184    742.6059 307.4975979  +6.4005604     1590.908     2641.596      2721.65     77.31399     154.5662     309.6879      1.752     5.19     835.5468     54.62556     212.7413        20     1.596     0.824  37.67   0
       188    451.9632    743.5632 307.7182519  +6.3824668     543.7974     908.6663     1175.946     77.43739     154.8748     309.7188      2.024     5.03     838.5765     54.62556     116.3276         6     1.448     0.495  47.29   0
       189    784.7069    741.1123 307.5801378  +6.3945726     1203.696     1773.914     1538.904     77.68362     155.4287     309.9961      1.580     5.84     838.4327     54.62556     175.4047        13     1.431     0.670  33.96   0
       190    609.6851    742.0979 307.6527962  +6.3883349     828.2836     982.7755     558.9611     77.68362     155.3672     309.9653      1.421     5.44     838.9028     54.62556      120.001        11     1.268     0.659  23.82   0
       191    870.6105    738.3964 307.5445495  +6.3985517     1413.281     2303.881     3033.908     77.31399     154.6897     309.8112      2.028     4.62     836.9662     54.62556     229.3387        16     1.442     0.775  34.20   0
       192    845.0533    733.2917 307.5553340  +6.3998087     796.9432     1203.353     1232.245      77.5606     154.8131     310.0577      1.546     4.76     837.3527     54.62556     126.1945         9     1.104     0.609  45.25   0
       193    630.9705    732.8204 307.6442650  +6.3928739     481.8139      886.338     860.5771     77.19038     154.8131     309.8112      1.488     3.07     838.6099     54.62556     102.8521         5     0.805     0.483  54.71   0
       194    827.5989    729.6493 307.5627045  +6.4007315     1458.395     2397.117     2476.491     77.06658      154.628      309.472      1.732     4.79     837.6265     54.62556     215.6995        17     1.451     0.742  40.15   0
       195     26.5728    728.6644 307.8954155  +6.3743795     2329.894     3918.935     4032.735     77.31399      154.998     309.8112      1.800     4.92     834.8682     54.62556      322.942        24     1.637     0.875  40.37   0
       196     90.5377    727.7374 307.8688825  +6.3769067     1033.598     1865.845     1838.468     77.68362      154.998     309.9345      1.959     6.55     835.5123     54.62556     121.0023        16     1.460     0.825  67.22   0
       197    439.1699    727.8179 307.7240908  +6.3885385     460.9399     524.8591     129.2222     77.31399     154.8131      309.842      1.439     3.53     838.0177     54.62556     79.63458         5     1.066     0.338  45.02   0
       198    544.3671    723.8856 307.6805314  +6.3936734     625.3566     989.0384     1004.227     77.68362     154.8131     309.8729      1.602     4.78     838.1514     54.62556     82.07336         7     1.325     0.490  43.63   0
       199    639.4045    717.1879 307.6412829  +6.3996075     6325.683      9549.87     10166.01     77.31399     154.7514     309.7804      1.597     4.18     838.1508     54.62556     969.3293        30     1.617     0.879  39.03   0
       200    586.2178    716.5032 307.6633958  +6.3981166     1341.669     1965.964     1492.059     77.56061     154.8131     309.6879      1.451     5.10      838.193     54.62556     202.5803        17     1.625     0.704  38.48   0
       201    507.4631    716.6769 307.6960990  +6.3954172     596.2679     783.2717     701.7586     77.92907      154.998     309.8729      1.537     5.26     837.9273     54.62556     106.1316         9     1.375     0.567  53.16   0
       202    496.3078    716.9094 307.7007242  +6.3949489     755.5925     1157.625     704.7982     77.68362     155.4901     309.9345      1.530     4.81      837.931     54.62556     112.5424         9     1.366     0.480  27.54   0
       203    102.2621    713.1642 307.8645015  +6.3833146     3681.157     5905.811     5778.962     77.68362      154.998     309.8729      1.667     3.95     835.1054     54.62556     462.8861        30     1.523     0.990  44.17   0
       204    976.5248    712.3737 307.5014234  +6.4128135     2385.459     3950.132      3963.29     77.31399     154.9364     309.8729      1.771     4.78      835.272     54.62556      325.821        25     1.638     0.895  35.36   0
       205    613.1047    712.8546 307.6523504  +6.4005193     2133.748      3190.49     3334.374      77.5606     154.9364     310.1193      1.637     4.12     838.2349     54.62556     276.4319        19     1.484     0.800  32.95   0
       206    288.5237    713.2670 307.7871425  +6.3895087     702.9993     1100.211     972.3058     77.80644     155.0596     309.8729      1.651     5.17     835.5606     54.62556     112.8654         8     1.436     0.526  45.99   0
       207    756.2603    709.2283 307.5930135  +6.4067860     19526.43     30659.82     32350.34     77.31399     155.0596     309.8112      1.671     4.20     837.6182     54.62556     2855.479        50     1.748     0.982  37.98   0
       208    886.2352    708.9916 307.5390372  +6.4112085     3579.687     5859.341     6416.865     77.19038     154.8131     309.7188      1.737     4.31     836.4787     54.62556     510.4294        28     1.614     0.963  37.95   0
       209    438.3667    710.3113 307.7250088  +6.3957375     605.6537     877.5084     712.2375     77.80644     154.9364     309.9037      1.594     6.45     837.3698     54.62556     83.53815         9     1.225     0.953  53.56   0
       210    257.7973    709.3098 307.8000359  +6.3901140     606.2648     938.7251     734.7901     77.06658     154.6897     309.6571      1.636     5.93      835.269     54.62556     102.5295         8     1.614     0.613  56.33   0
       211    483.8544    709.0929 307.7061573  +6.3977594     956.6321     1212.396      1287.62      77.5606     154.9364     310.0577      1.343     4.79     837.7392     54.62556     150.8448         9     1.197     0.543  46.73   0
       212    455.1741    709.5987 307.7180520  +6.3965930     1256.306     1861.909     1717.221     77.31399     154.6897     309.6879      1.531     5.16     837.5272     54.62556     165.8812        13     1.352     0.704  40.39   0
       213    301.1769    709.1487 307.7820251  +6.3916318     721.6731      972.112     1145.888     77.19038      154.998     309.7804      1.487     4.59     835.6348     54.62556      108.567         8     1.265     0.472  47.25   0
       214    229.7360    703.0061 307.8119009  +6.3917767     5948.549     9538.052     10320.72     77.06658     154.7514     309.6879      1.659     4.24     834.9075     54.62556     790.5505        32     1.653     0.919  37.15   0
       215    636.8314    702.0406 307.6428563  +6.4057738      6576.22     10737.74     11638.92     77.31399     154.8748     309.7804      1.732     4.37     837.7662     54.62556     890.1281        35     1.681     0.953  38.28   0
       216    618.8369    702.8959 307.6503015  +6.4048209     799.3603     1177.086     1458.863     77.80643     154.8748     310.0269      1.503     5.63     837.9596     54.62556     107.0406        10     1.287     0.700  34.92   0
       217    332.0994    702.0492 307.7694198  +6.3955962     620.5042     1026.372     733.0444     77.68362     154.9364     310.0885      1.665     5.51     836.0117     54.62556     99.94623        10     1.608     0.532  38.40   0
       218    896.6152    694.6161 307.5352037  +6.4174873     1145.679     1866.895     1955.128     77.43739     154.6897      309.842      1.694     4.36     836.1483     54.62556     156.0076        14     1.294     0.791  40.78   0
       219    708.4324    690.5851 307.6134991  +6.4128882     3447.265     5730.593     6560.164     77.31399     154.7514     309.8112      1.822     4.51     837.1503     54.62556     508.2308        26     1.638     0.836  41.16   0
       220    663.7342    690.9396 307.6320523  +6.4112526      1047.11     1613.922     2261.526     77.80643     154.9364     309.9037      1.685     5.21     837.1625     54.62556     149.5541        11     1.488     0.593  44.22   0
       221    974.8524    687.0618 307.5029586  +6.4232057     8181.532     13476.74     13892.82     77.68362     154.9364     309.8729      1.727     4.36     834.9597     54.62556     1034.991        37     1.719     0.987  39.10   0
       222    913.2332    687.6831 307.5285318  +6.4209015     2415.865      3718.23      3986.95     77.68362     154.8131     309.8729      1.705     4.36     835.7952     54.62556     316.1729        20     1.443     0.825  42.22   0
       223    963.0551    686.7948 307.5078675  +6.4229240     410.0377     621.6796     370.4921     77.06658     154.8131     309.5954      1.491     4.83     835.1052     54.62556      95.5968         5     1.527     0.433  23.86   0
       224     52.0933    682.0450 307.8863794  +6.3944769     24721.14     39754.71     41525.44      77.5606     154.9364     310.0269      1.702     4.21     834.3882     54.62556     3245.931        59     1.751     1.067  36.26   0
       225    513.4536    682.9713 307.6947354  +6.4095293     1945.844     2837.923     2583.303     77.43739     155.0596     309.8112      1.475     4.38     836.9403     54.62556     316.2686        15     1.443     0.648  38.98   0
       226    482.0972    680.2214 307.7078505  +6.4096175     1342.037      2174.44     2375.381      77.5606     154.8131     309.7188      1.865     5.30     837.0417     54.62556     197.1948        15     1.477     0.689  46.20   0
       227    903.2658    678.6219 307.5329728  +6.4243102     908.8746     1578.994     1472.065     77.31399      154.998      309.842      1.853     6.33       835.83     54.62556     139.2205        10     1.373     0.820  33.25   0
       228    522.2988    676.6776 307.6912715  +6.4124222     981.5851     1385.498     1399.713     77.31399     155.2443     309.9345      1.523     4.43     836.7077     54.62556      164.581        12     1.253     0.706  38.36   0
       229    698.1471    674.2654 307.6183144  +6.4192817     3419.687     5238.309     5358.036     77.68362     154.9364     309.8729      1.626     4.26     836.6179     54.62556     496.1356        24     1.580     0.827  36.99   0
       230    720.2717    672.4664 307.6091849  +6.4207612     3977.781      6138.91     6019.448     77.68362     155.0596     309.9653      1.668     4.32     836.6791     54.62556     582.7151        25     1.621     0.796  36.68   0
       231    212.1748    669.9831 307.8202992  +6.4048189     1596.862     2676.222     2539.109     77.43739     154.8748      309.842      1.657     5.00     833.5955     54.62556     250.0497        19     1.653     0.801  36.46   0
       232    551.5479    670.2576 307.6793373  +6.4160482     3205.337     5007.029      4840.27     77.68362      154.998     309.9037      1.614     4.39     836.4465     54.62556     451.5311        23     1.604     0.790  34.41   0
       233    387.6877    670.7734 307.7473775  +6.4103635     1237.975     1933.332     1997.811     77.80644     154.7514     309.8112      1.618     4.39     835.5612     54.62556     187.9953        13     1.307     0.646  39.33   0
       234    993.0734    668.4486 307.4960083  +6.4314939      4685.38     7486.165     7698.183     77.68362     155.0596     309.9345      1.697     4.22     834.3484     54.62556     564.2303        30     1.614     0.946  37.63   0
       235    958.4551    667.3665 307.5104234  +6.4307904     7625.123     12040.75     12338.51     77.56061      154.998     309.9037      1.742     4.38     834.6856     54.62556     1048.137        37     1.718     0.964  39.37   0
       236    295.7905    669.5523 307.7855860  +6.4077949     1399.519     2469.974     2849.893     77.19038     154.8748     309.5645      1.845     6.15     834.0699     54.62556     181.3712        16     1.410     0.755  36.11   0
       237    678.0940    665.7231 307.6269279  +6.4221394     1004.509     1426.407     2078.001     77.43739     155.1828     309.9345      1.696     5.18     836.3431     54.62556     132.5695        10     1.356     0.560  53.37   0
       238   1007.2365    665.5510 307.4902217  +6.4331603     678.5579     1153.196     851.0155     77.43739     154.9364     309.7804      1.606     4.62     834.1044     54.62556     103.9586         8     1.348     0.450  48.74   0
       239     69.9998    664.7313 307.8795229  +6.4022233     839.1224     1273.738     1292.078     77.19038     154.5044     309.6879      1.670     5.35     834.0129     54.62556     119.7569        10     1.252     0.645  38.88   0
       240    116.8572    660.9500 307.8601889  +6.4053546     23353.19     36807.21     38925.58     77.68362      154.998     309.9037      1.661     4.25     833.6015     54.62556     3176.872        53     1.728     1.002  36.48   0
       241    403.7573    661.8344 307.7410018  +6.4145901     2683.724     4246.364     4566.205     77.43739      154.998     309.7188      1.668     4.20     835.2948     54.62556     399.1043        23     1.522     0.906  47.14   0
       242    784.8784    661.0021 307.5827318  +6.4276445     1122.673     1582.322     1362.854     77.06658     154.5044     309.6879      1.470     4.43     836.2891     54.62556     188.2927        13     1.393     0.604  45.25   0
       243    335.8456    655.4850 307.7694201  +6.4149407     562.4527      999.795     786.7181     77.68362     154.9364     309.9037      1.697     3.40     834.2936     54.62556     84.29797         5     1.238     0.271  54.76   0
       244    953.4244    650.3597 307.5130778  +6.4376430     6528.371     10822.62     11797.69     77.31399     154.8748     309.6879      1.849     4.55      833.989     54.62556     887.4819        38     1.861     0.979  36.94   0
       245   1008.7279    645.4614 307.4902691  +6.4415021     85585.05     139341.1       147796     77.80644      154.998     309.9653      1.791     4.29     833.1224     54.62556     11057.42        95     1.859     1.167  39.54   0
       246    911.1052    647.2941 307.5307577  +6.4375017     652.7053     976.3089     1050.527     77.68362     155.6129      309.842      1.487     4.46     834.6119     54.62556     91.93872         8     1.056     0.536  53.06   0
       247    546.9176    645.6801 307.6820802  +6.4260381     47538.01     72770.34     76039.31     77.68362     155.2443     309.9961      1.599     4.22     835.7306     54.62556     7046.999        63     1.709     0.986  38.04   0
       248    190.1952    646.9233 307.8301996  +6.4136007     712.6214     975.2216     1565.552     77.31399     154.5044     309.7804      1.354     4.08     833.3392     54.62556      111.571         7     1.143     0.416  34.85   0
       249    506.4748    645.9008 307.6988707  +6.4245972     623.2245     811.2124     873.6315     77.19038     155.1212     309.8112      1.644     5.48     835.6976     54.62556     121.0418         8     1.485     0.570  22.06   0
       250    776.0357    645.6375 307.5869159  +6.4336920     2636.495     2651.773     2299.638     77.43739     154.8748     309.6879      0.581     0.96     836.0009     54.62556     1486.124         5     0.483     0.304 -82.09   0
       251    770.9890    644.6549 307.5890448  +6.4339296     446.5868     738.1418     117.0295     77.06658     154.9364     309.5954      1.361     4.98     835.9937     54.62556     73.86658         6     1.386     0.505  37.74   0
       252    154.3584    642.4919 307.8452319  +6.4142295     2681.001     4028.758      3709.28     77.68362      154.998     309.9961      1.683     4.71     833.2689     54.62556      388.684        21     1.620     0.768  34.07   0
       253    477.2188    642.5468 307.7111340  +6.4250049     691.5626     923.4225      1243.72     77.19038      154.998     309.7188      1.402     3.35     835.5145     54.62556      122.872         7     0.942     0.491   5.72   0
       254    783.6411    638.8067 307.5839842  +6.4367647     4794.711      4875.98     4419.321     77.06658     154.6897     309.6262      0.874     3.23      835.829     54.62556     1295.238        10     0.847     0.462 -57.77   0
       255    207.0061    639.1885 307.8234764  +6.4173561     1865.652     1978.968     1615.513     77.31399     154.8131     309.8112      0.825     1.81     833.3185     54.62556     691.4808         7     0.796     0.419  54.99   0
       256     46.8081    636.3843 307.8901048  +6.4131456     1442.434     2365.931     2254.475     77.31399     154.7514     309.7496      1.681     4.25     833.9498     54.62556     203.0262        17     1.428     0.792  33.29   0
       257    444.1738    629.4987 307.7252948  +6.4292869      62515.2     96074.03     100805.8     77.80644     154.7514      309.842      1.660     4.45     834.7138     54.62556     8483.557        69     1.733     1.011  37.91   0
       258   1022.3372    628.5850 307.4851764  +6.4489201     3234.318     4873.648     5080.293     77.19038     140.9297     253.4249      1.642     4.11     832.2353     54.62556     432.2332        24     1.505     0.917  50.84  24
       259    782.9258    631.1514 307.5845360  +6.4399006     1896.019     1687.238     1483.608     77.68362     155.0596     309.9345      0.497     2.04      835.662     54.62556     1361.161         5     0.389     0.331 -42.29   0
       260    630.1413    626.4279 307.6481545  +6.4367604     792.9353     1215.352     706.7181     77.31399     155.0596     309.8112      1.723     6.29     835.4778     54.62556     123.5471        14     1.585     0.700  33.55   0
       261    118.6434    624.5656 307.8606657  +6.4204317     1758.775      2759.85     2361.276     77.43739      154.998     309.7496      1.650     4.55      833.248     54.62556     262.1765        16     1.333     0.767  34.72   0
       262    397.6604    622.0466 307.7448630  +6.4308087     878.5655     1329.005      1306.87      77.5606      154.998     309.9961      1.599     4.66     833.8812     54.62556     124.0425         9     1.077     0.572  37.37   0
       263    590.0787    620.9003 307.6649792  +6.4377059     796.1366     1175.875      1265.86     77.43739     155.2443     309.9345      1.470     4.87     835.1874     54.62556     140.7561         9     1.124     0.660  29.88   0
       264    938.7031    620.3176 307.5201906  +6.4495540     397.7805     671.2284      482.305     77.56061     155.3672     309.9653      1.363     4.50      832.834     54.62556     65.72943         6     1.041     0.554 -34.57   0
       265    289.6289    618.8306 307.7898410  +6.4285239     2023.698     3314.013     3808.529     77.19038     154.7514     309.6571      1.747     4.35     832.3181     54.62556       285.35        21     1.494     0.901  38.08   0
       266    441.7373    617.3468 307.7267125  +6.4342212     826.9894     1442.373     2354.728     77.68362     154.9364     309.8729      2.198     5.37     834.3137     54.62556     134.1695        11     1.618     0.503  34.63   0
       267    716.2241    612.9490 307.6128477  +6.4451927     5289.805     7899.024     8559.967     77.31399      154.998     309.8112      1.564     4.12     835.2889     54.62556     753.2749        25     1.570     0.809  38.81   0
       268    769.7699    608.2589 307.5907624  +6.4489117     13791.17     21085.41     22244.69     77.43739      154.998      309.842      1.624     4.28     835.1594     54.62556     1925.978        40     1.686     0.894  38.21   0
       269    986.9987    609.1002 307.5005022  +6.4557889     890.0972     1466.289     1552.709     77.19038     154.7514     309.6262      1.781     5.44     831.7516     54.62556     136.1528        10     1.150     0.727  40.11   0
       270   1009.4141    607.1248 307.4912568  +6.4573488     1896.671     3149.607     2705.656     77.19038     154.7514     309.7496      1.716     4.96     831.3982     54.62556     248.2173        20     1.614     0.822  44.30   0
       271    512.0287    608.4962 307.6978119  +6.4402214     1147.539     1746.424     2023.338     77.80643     154.7514     309.9037      1.703     5.38     834.3467     54.62556     175.0339        11     1.345     0.608  38.00   0
       272    593.5050    606.3012 307.6640428  +6.4438460      2674.94     3917.972     3756.048     77.68362     155.4901     309.7496      1.545     4.38     834.6025     54.62556     378.3743        21     1.541     0.755  41.33   0
       273     14.6625    607.7549 307.9044154  +6.4238837     701.0424     1053.171     952.6067     77.56061     154.9364     309.9653      1.739     5.85     834.0759     54.62556     97.98694        10     1.027     0.937  34.28   0
       274    911.1429    602.7656 307.5322218  +6.4558826     962.8837     1918.372     2289.791      77.5606      154.998     309.9037      2.680     6.45     833.0701     54.62556     142.5894        16     1.708     0.684  42.60   0
       275    206.1425    599.9560 307.8251481  +6.4335201     1151.963      1912.88     1890.454      77.5606      154.998     309.9653      1.723     4.88     832.8027     54.62556     193.1641        14     1.463     0.642  49.81   0
       276    169.5401    600.2270 307.8403415  +6.4321824      620.883     966.9291     1374.552     77.31399     155.0596     309.7804      1.802     5.50     832.9149     54.62556     96.67706         9     1.189     0.716  68.48   0
       277    351.8343    599.8809 307.7646376  +6.4384257     1057.065     1518.452     1238.564      77.5606      154.998     309.9345      1.543     3.96     831.7965     54.62556     163.3514         9     0.955     0.686  71.55   0
       278    845.9001    591.3835 307.5597009  +6.4584109     2602.623     4187.032     4296.157     77.68362     154.7514     309.7188      1.662     4.92     834.3375     54.62556     370.5405        22     1.652     0.766  35.80   0
       279    804.5141    588.8740 307.5769754  +6.4580696     2415.876     3630.073     3972.303     77.80643     155.3058     309.9037      1.660     4.37     834.4443     54.62556     341.9077        21     1.622     0.711  40.11   0
       280    140.5232    590.8475 307.8527076  +6.4350817     596.0279     852.7148     384.1222      77.5606     155.0596     309.8729      1.359     3.41     832.8699     54.62556      102.565         5     0.779     0.431  67.12   0
       281    785.1430    580.0674 307.5853148  +6.4610598     154794.1     238296.7     250385.6     77.80643     154.9364     309.8729      1.630     4.18     834.1318     54.62556     22845.54       114     1.794     1.080  37.69   0
       282    775.3868    584.9118 307.5892062  +6.4587354     2349.399     3678.831     4491.779     77.43739     154.8131     309.7804      1.712     4.25     834.3153     54.62556     362.4189        20     1.454     0.829  38.80   0
       283    232.5029    583.9474 307.8147350  +6.4410100     7551.623     11908.05     12686.71      77.5606      154.998     310.1501      1.677     4.43     832.0944     54.62556     953.5451        33     1.634     0.931  34.95   0
       284    717.2881    584.3536 307.6133579  +6.4570310     652.6819     1389.119     2208.514     77.68362     154.8748     309.9653      3.048     4.06     834.2159     54.62556     114.4302         6     1.013     0.507  33.54   0
       285    166.7741    578.5310 307.8422168  +6.4410446     56416.82     89395.32     94477.48     77.31399     154.8748      309.842      1.709     4.39     832.5295     54.62556     7735.543        82     1.784     1.109  36.78   0
       286    836.9656    582.3123 307.5637138  +6.4618579     521.0869     912.8117     1129.693     77.68362     154.8748     309.9037      2.059     6.02      834.037     54.62556     83.64673         7     1.381     0.739  40.51   0
       287     90.7605    574.7531 307.8739153  +6.4400567     5887.208     9495.244     10210.03     77.56061      154.998     309.7188      1.697     4.27     833.0433     54.62556      859.062        32     1.633     0.946  35.45   0
       288    956.2051    571.8626 307.5145303  +6.4701360     1290.061     2166.601       2688.3     77.06658     154.7514     309.6879      1.931     4.67     831.4402     54.62556     194.8284        15     1.401     0.706  44.52   0
       289    976.8323    570.4303 307.5060094  +6.4714126     728.1177     1229.771     1497.029     77.19038     154.7514     309.6262      1.844     6.86     830.8279     54.62556     111.8207        11     1.612     0.818  36.45   0
       290    205.2094    570.2386 307.8265302  +6.4457545     772.3179     1273.468     1930.831     77.06658     154.8131     309.6262      1.786     4.55     831.9131     54.62556     132.6041         8     1.160     0.508  51.95   0
       291    821.7260    567.4413 307.5705388  +6.4674889     4400.468     7024.507     7580.388     77.56061     155.0596     309.9345      1.686     4.62     833.5472     54.62556     603.9681        30     1.670     0.894  36.77   0
       292    340.1513    565.6428 307.7706345  +6.4521668     16691.66     26070.44     27271.34     77.68362     154.9364      309.842      1.662     4.55     831.1807     54.62556     2338.621        46     1.735     0.948  37.11   0
       293    430.4830    565.7938 307.7331086  +6.4551237     761.0322     1097.432     1027.174     77.31399     154.6897     309.6879      1.627     5.02     832.4993     54.62556     102.3842        10     1.208     0.591  41.33   0
       294    141.8872    564.6755 307.8530175  +6.4459296     1940.859     2888.928     2477.495     77.68362     155.3058     309.9653      1.612     4.77     832.5327     54.62556     256.1446        18     1.478     0.744  41.12   0
       295    217.6381    562.4276 307.8216293  +6.4493945     774.1927     1433.372     1853.547     77.31399     154.7514     309.7496      2.746     6.69     831.4921     54.62556     139.1699        14     2.085     0.602  25.02   0
       296    775.6451    560.6569 307.5899061  +6.4687555     5763.629     8778.969     9242.724     77.68362      154.998     309.9345      1.619     4.30     833.4346     54.62556     902.2719        26     1.620     0.770  41.11   0
       297    506.4235    560.4835 307.7017422  +6.4598517     6383.168     9835.917     10122.81     77.56061     154.7514      309.842      1.692     4.43     832.3777     54.62556     980.7527        28     1.584     0.859  39.47   0
       298     78.9320    561.5536 307.8792705  +6.4451081     879.8846     1448.553     1682.828     77.68362     154.9364     309.9037      1.751     5.40     833.0499     54.62556     116.2541         9     1.315     0.627  43.29   0
       299    146.8767    561.2277 307.8510605  +6.4475198     656.1354     801.8205     1059.316      77.5606      154.998     309.8729      1.466     4.61     832.4277     54.62556      112.751         7     1.007     0.600  16.17   0
       300    364.7972    557.2532 307.7606778  +6.4564536     1469.113     2288.964     2926.378     77.06658     154.8131     309.5028      1.713     4.23      831.231     54.62556     221.1759        15     1.409     0.670  39.63   0
       301    153.4842    553.7094 307.8485679  +6.4508443     6443.096        10272     9971.289     77.43739     155.3058     310.0269      1.704     4.56     832.2563     54.62556     908.5463        29     1.657     0.864  38.65   0
       302    792.4521    552.9640 307.5831806  +6.4724903     1347.819     2111.076     2772.998      77.5606      154.998     309.8729      1.900     5.67     833.1411     54.62556     231.6602        15     1.718     0.606  39.28   0
       303    551.0401    553.3319 307.6834479  +6.4642926     2291.068     3953.221     3893.243      77.5606     154.9364     309.9961      1.802     4.66      832.154     54.62556     288.8009        27     1.551     1.062  19.50   0
       304    248.7122    550.1465 307.8091332  +6.4555037     84762.77     132722.3     138679.5     77.68362     154.8748     310.0269      1.672     4.37     830.9363     54.62556     10925.22        86     1.763     1.060  36.80   0
       305     25.0077    552.4542 307.9019729  +6.4470553     4972.772     7812.636     7938.523     77.19038     154.8131     309.6262      1.658     4.45     833.1534     54.62556     621.7607        30     1.608     0.904  39.66   0
       306    833.3172    552.1559 307.5662323  +6.4741838      473.725     854.6228     1005.326     77.68362      154.998     309.8729      1.714     4.83     832.9259     54.62556     87.93823         6     1.524     0.434  63.88   0
       307    538.1815    547.6127 307.6889800  +6.4662241      1062.22     1494.038      1617.28     77.43739     154.6897     309.8112      1.587     5.68     831.9191     54.62556     129.6315        12     1.423     0.638  34.73   0
       308    232.4241    545.2335 307.8160631  +6.4569863     1443.919     2437.866     2478.771     77.19038     154.8131     309.6879      1.720     5.08     830.7897     54.62556     193.1865        16     1.463     0.783  39.15   0
       309    948.4813    543.8412 307.5186696  +6.4814455       1505.6      2305.74     2748.118     77.68362      154.998      309.842      1.668     4.90     831.1885     54.62556     210.2419        15     1.518     0.658  34.07   0
       310    771.8647    542.4686 307.5920818  +6.4761370     15907.07      24485.9     25790.83     77.68362     155.0596     309.9345      1.629     4.74     832.7866     54.62556     2341.086        40     1.658     0.913  35.66   0
       311    475.4961    540.9067 307.7152421  +6.4668994     40206.27      65021.8     69994.28     77.68362     155.4901      309.842      1.734     4.48     831.6389     54.62556     5486.154        73     1.874     1.129  33.29   0
       312    626.0570    539.4422 307.6527501  +6.4725279     929.5406     1560.086     1751.524      77.5606     154.9364     309.9345      1.647     5.39     831.7303     54.62556     158.1149        11     1.486     0.552  32.67   0
       313    187.7621    537.3794 307.8348770  +6.4587325     1608.796     2742.682     2565.531     77.31399     154.7514     309.6571      1.799     5.48     831.2346     54.62556     232.4082        18     1.563     0.769  46.02   0
       314     23.3935    537.5768 307.9031422  +6.4531416     1322.861      1910.89     1407.791     77.19038     154.8131     309.7804      1.614     5.80      832.925     54.62556     199.7539        14     1.335     0.736  43.78   0
       315    697.6772    534.8621 307.6231522  +6.4768056     1330.105     2226.917     2507.166     77.92906     155.0596     309.9037      1.752     4.88      832.237     54.62556      217.343        14     1.509     0.626  50.65   0
       316    645.7022    535.8759 307.6447085  +6.4746549     1423.979     2128.872     2419.226     77.31399     155.2443     309.9037      1.555     4.48     831.8099     54.62556     218.3283        16     1.435     0.739  44.71   0
       317    635.3157    535.8326 307.6490245  +6.4743265     2941.482     4551.738     5065.233     77.68362     154.8131      309.842      1.570     4.07     831.7111     54.62556     416.1497        21     1.543     0.751  38.79   0
       318     74.0640    537.5901 307.8820955  +6.4548355     557.2634     800.7995     700.5275     77.19038     154.8131     309.7188      1.664     3.99       832.81     54.62556     105.8058         6     1.020     0.446  13.05   0
       319    373.2040    531.6630 307.7580409  +6.4672969     1565.672     2379.583     2398.527     77.06658     154.7514     309.6571      1.550     4.39     830.7257     54.62556     248.5695        16     1.517     0.642  38.36   0
       320     52.7700    532.9316 307.8910962  +6.4560442     626.8785     1314.034      1584.26     77.43739      154.998     309.8729      2.178     5.04     832.7543     54.62556     127.6129         9     2.000     0.360  19.99   0
       321    304.6500    529.9406 307.7865742  +6.4657153     3853.499     5898.567     5355.043     77.68362      154.998     309.9345      1.589     4.37     830.4333     54.62556     552.3559        26     1.614     0.804  35.03   0
       322    119.7945    528.4951 307.8634057  +6.4601223     25247.04     39396.38     41360.27     77.43739     154.6897     309.6879      1.696     4.42     832.1425     54.62556     3456.243        53     1.705     1.024  36.64   0
       323   1022.6815    528.7822 307.4883465  +6.4901264     1287.876     1762.949     1718.771     76.69398     136.3846     248.5553      1.467     3.53     827.8905     54.62556     211.3156        14     1.227     0.715  50.45  24
       324    484.7172    529.1676 307.7118037  +6.4720526     1907.926     3164.442     3160.552     77.68362     154.8131      309.842      1.709     5.05     831.2334     54.62556     298.0308        17     1.534     0.710  41.00   0
       325    847.7213    528.3622 307.5610403  +6.4844841     1473.458     2280.927     2746.311     77.56061     155.0596     309.9037      1.742     4.25     832.4029     54.62556     230.6058        16     1.398     0.787  52.03   0
       326     85.0105    526.8456 307.8779089  +6.4596372     2543.385     4077.273     4036.656     77.19038     154.8748     309.5954      1.610     4.74     832.5371     54.62556     360.5372        21     1.534     0.796  39.03   0
       327    321.8926    524.9036 307.7795805  +6.4683710     925.4105      1375.22     1751.118     77.68362     155.4901     309.8729      1.565     5.46     830.3152     54.62556     157.6907        11     1.461     0.576  36.49   0
       328    945.3566    522.8608 307.5206647  +6.4900015      4886.42     7355.655     7548.607     77.68362      154.998     310.0269      1.598     4.29     830.5294     54.62556     643.9435        26     1.524     0.868  38.43   0
       329    518.3442    515.4403 307.6982935  +6.4788412     1471.914     2304.175     1944.908     77.68362     155.0596     309.9345      1.702     4.76     830.7099     54.62556     242.2666        14     1.508     0.620  37.51   0
       330    416.8231    509.6004 307.7406594  +6.4778610      41403.2     64312.32     67081.64     77.31399     154.6897     309.6879      1.656     4.54     830.4489     54.62556     6005.524        60     1.726     0.976  39.21   0
       331    624.8920    509.2500 307.6542404  +6.4849510     11978.21     18371.99     18780.81      77.5606     154.8748     310.0885      1.606     4.36     830.7195     54.62556     1662.521        36     1.639     0.894  36.62   0
       332    264.5215    509.3033 307.8039329  +6.4728905     885.3783     1387.994     893.3956     77.43739     155.2443     309.9653      1.648     5.51     829.8161     54.62556     146.0396        10     1.439     0.596  53.79   0
       333    181.9603    507.2146 307.8382967  +6.4709885     18605.26     29992.94     31561.52     77.31399     154.8131     309.6879      1.698     4.52     830.3848     54.62556     2593.922        48     1.815     0.960  37.33   0
       334    147.6368    508.3073 307.8525172  +6.4693876     1567.781      2567.87     2531.786     77.80644     154.8748     309.9653      1.831     5.33     831.0714     54.62556     211.9846        19     1.656     0.763  40.28   0
       335    958.6885    507.4831 307.5156374  +6.4967919     1062.836     1972.653     2328.344     77.43739     155.1828     309.9345      1.797     5.61     829.4341     54.62556     150.0651        13     1.553     0.571  36.04   0
       336    798.9626    506.9492 307.5820073  +6.4916999     857.9092      1048.11     976.0103     77.43739     154.9364      309.842      1.323     4.07     832.2848     54.62556     147.5131        10     1.129     0.734  34.07   0
       337    887.2421    506.6766 307.5453440  +6.4947496     625.4122     778.2981     765.8932     77.56061      154.998     309.9345      1.744     4.08      831.591     54.62556     106.7401         7     1.365     0.349  46.41   0
       338    546.5301    505.8698 307.6869046  +6.4837322     2683.069     4015.306     3939.989     77.68362     155.1212     309.8729      1.582     4.50     830.3441     54.62556      383.093        22     1.575     0.838  41.62   0
       339    920.3892    503.0507 307.5316948  +6.4973484     4675.078     7315.631     7228.693     77.06658     154.8748     309.6262      1.635     4.30     830.6214     54.62556     640.0071        26     1.607     0.849  35.58   0
       340     81.4394    502.6849 307.8802019  +6.4694894     1266.225     1789.802      1834.71     77.68362     154.9364     309.8729      1.592     4.59     832.0134     54.62556     189.9529        15     1.348     0.789  39.40   0
       341    593.6807    501.6422 307.6674593  +6.4870502       6277.7     9708.446     10425.14     77.68362      154.998     309.8729      1.669     4.21     830.2887     54.62556     939.7217        30     1.580     0.875  39.94   0
       342    193.2194    501.5119 307.8338109  +6.4737193     547.6628     715.8423     -123.216     77.43739     154.7514     309.8112      1.399     4.97      830.013     54.62556     88.80902         7     1.608     0.434  37.59   0
       343    943.0747    495.2953 307.5225285  +6.5013036     3245.169     5046.977     5432.323     77.43739     155.1828     309.9037      1.624     4.20     829.5755     54.62556      447.346        23     1.552     0.808  40.32   0
       344    505.8263    492.8593 307.7042470  +6.4877436      7175.27     11120.92     11830.25     77.31399      154.998     309.7496      1.629     4.22     829.9515     54.62556     1050.557        32     1.634     0.900  38.90   0
       345    381.4160    494.3068 307.7558780  +6.4829900     734.0732     1121.482     1272.505     77.43739     154.8131     309.7188      1.969     4.67     829.7009     54.62556     116.7667         9     1.287     0.480  39.87   0
       346    351.9519    493.0941 307.7681577  +6.4825055     2517.369     3926.326     3573.479      77.5606     154.8748     310.0269      1.581     4.77     829.5502     54.62556     345.8061        19     1.539     0.753  37.77   0
       347     74.7852    492.2334 307.8833161  +6.4735800     475.9204     610.7547     669.2083     77.31399     154.7514     309.7804      1.504     3.40     831.7982     54.62556      99.1264         5     0.957     0.350  47.26   0
       348    862.1381    488.5825 307.5563743  +6.5013831     3125.607     4847.613     5486.663     77.31399     154.9364     309.7496      1.673     4.37     831.9968     54.62556     464.9266        23     1.720     0.787  37.50   0
       349    515.3395    489.3788 307.7004113  +6.4894978     656.9396     1276.057     1702.765     77.31399     154.9364      309.842      2.131     5.37     829.7877     54.62556     90.43823         9     1.355     0.602  55.88   0
       350    210.3037    488.1370 307.8271621  +6.4798118     741.3852     1009.938     959.3024      77.5606     155.1212     309.9653      1.543     5.59     829.2349     54.62556     102.7137        10     1.243     0.710  56.49   0
       351    869.6848    482.9276 307.5534273  +6.5039683     2042.219     3167.301     3398.165     77.80643     155.3058     309.9345      1.674     4.21      831.763     54.62556     314.9423        22     1.626     0.796  37.94   0
       352    909.2654    482.4412 307.5370008  +6.5054853     1170.755     1866.578     2009.644     77.68362     154.9364     309.9961      1.775     5.30     830.3312     54.62556     183.4966        15     1.584     0.690  32.64   0
       353     88.5344    482.5605 307.8779293  +6.4780334     581.4583     986.0983     981.9216     77.68362     154.9364     309.9961      1.928     5.01     831.5227     54.62556     86.77985         6     1.024     0.694  62.02   0
       354    247.4877    480.7809 307.8119626  +6.4840928     548.5446      838.095     518.6964     77.43739     154.7514     309.8112      1.471     4.13     828.9061     54.62556     93.07452         6     1.047     0.466  29.16   0
       355    693.6152    479.0057 307.6267001  +6.4997253     2937.272     4594.934     4449.583     77.31399     154.6897     309.7496      1.552     4.17     830.4871     54.62556     409.7264        21     1.492     0.766  35.05   0
       356    364.5243    477.3105 307.7634627  +6.4894405     3750.577      5730.11     5545.652     77.68362     155.3058     309.9961      1.635     4.93     829.0817     54.62556     482.8857        23     1.548     0.831  39.07   0
       357     55.5770    478.2592 307.8917631  +6.4787035     1874.559     2978.334     2885.865     77.31399      154.998     309.7804      1.711     4.93     831.6299     54.62556     289.2332        17     1.473     0.725  44.17   0
       358    404.9644    477.7100 307.7466507  +6.4906274     950.1164     1254.534     1849.627     77.80643     154.9364     309.9037      1.400     5.15     829.2092     54.62556     168.0713        11     1.342     0.565  43.19   0
       359    592.3171    473.8050 307.6689539  +6.4984946     9763.998     15173.32     16265.66     77.19038      154.628     309.6571      1.629     4.35     829.2934     54.62556     1325.165        34     1.675     0.860  37.24   0
       360    755.0080    470.3769 307.6014839  +6.5053320     15732.74     24058.99     25357.53     77.31399     154.8131     309.7188      1.607     4.57     830.7654     54.62556     2223.501        40     1.663     0.877  38.95   0
       361    274.5943    470.6870 307.8010406  +6.4891663     2478.003     3756.526     3858.132     77.19038     154.6897     309.6262      1.635     5.04     828.6985     54.62556     366.0768        22     1.566     0.763  40.85   0
       362    398.1962    469.6580 307.7497312  +6.4937246     619.4303     994.2451     1095.524     77.06658     154.8748     309.6571      1.706     4.77     828.7825     54.62556     112.3628         6     1.157     0.557  60.97   0
       363    783.8931    467.2764 307.5895876  +6.5075735     1359.926     1960.244     2141.662     77.43739     155.2443     309.9037      1.624     4.37     831.0236     54.62556     208.2544        15     1.424     0.685  45.24   0
       364    357.6578    467.1326 307.7666552  +6.4934118     1632.231     2560.292     3059.398     77.80643     154.9364     309.8729      1.713     5.26     828.5589     54.62556     246.3682        18     1.582     0.734  36.68   0
       365    940.4189    465.2987 307.5246286  +6.5135967     1707.942     2639.489     2589.339     77.68362     154.8748     309.6571      1.651     4.89     828.6591     54.62556     272.3691        18     1.537     0.769  36.30   0
       366    883.9498    467.4135 307.5480171  +6.5108463     377.5741     767.7407     594.2028     77.06658     154.9364     309.6262      2.404     4.98     830.5229     54.62556        65.19         5     1.428     0.492  -0.87   0
       367    759.0071    465.5276 307.5999840  +6.5074667     1216.142     2191.616      2601.59     77.31399     154.5662     309.8112      1.558     4.36     830.6174     54.62556     231.4036        13     1.507     0.570  41.29   0
       368    688.1566    464.1412 307.6294629  +6.5056788     679.5058     1125.979      1147.01      77.5606     154.9364     309.9961      1.518     3.56     829.7122     54.62556     123.3541         5     1.263     0.289  33.99   0
       369     92.3326    462.3177 307.8770300  +6.4865157     4238.838      6471.05     7104.853     77.80644     155.2443     309.9653      1.658     4.24     831.0423     54.62556     644.0353        27     1.666     0.813  33.72   0
       370    730.4424    461.1890 307.6119949  +6.5083062     2286.596     3627.315     3508.177     77.06658     154.8131     309.6262      1.647     4.57     829.9716     54.62556     319.6354        21     1.601     0.764  46.19   0
       371    994.1110    459.9177 307.5025020  +6.5176020     4100.501      7040.89      7261.85     77.43739     155.1828     309.9653      1.813     4.84     826.9747     54.62556      572.604        33     1.873     0.907  35.38   0
       372    250.3308    459.5127 307.8114933  +6.4929663      1572.01      2294.59     2532.409     77.68362     155.2443     309.9345      1.583     4.60     828.2351     54.62556     220.2487        15     1.452     0.674  36.87   0
       373    328.3747    457.0880 307.7791552  +6.4965784     3094.765     4805.977     4664.109     77.80643     154.8131     309.7804      1.586     4.22     828.0417     54.62556     457.3083        22     1.613     0.750  39.82   0
       374    684.3391    454.8621 307.6313579  +6.5093816       1618.7     2441.312     3200.395     77.68362      154.998     309.9345      1.758     4.45     829.2542     54.62556       230.03        17     1.504     0.672  37.84   0
       375    958.2961    453.6658 307.5175883  +6.5189925     598.0107     1014.591     1399.429     77.68362     155.1212     309.9345      1.787     5.53     827.8395     54.62556      115.111         9     1.877     0.459  45.09   0
       376    216.3555    453.1770 307.8258184  +6.4944438     711.2118     1013.373     776.0889     77.19038     154.9364     309.7496      1.542     4.95     828.2424     54.62556      114.837         7     1.318     0.526  32.12   0
       377    525.7189    447.6421 307.6974924  +6.5070711     1011.493     1642.616     1796.275     77.68362      154.998     309.8729      1.644     4.10     827.8983     54.62556     193.0324        11     1.361     0.504  42.05   0
       378    674.2096    446.5085 307.6358443  +6.5124919     538.6982     678.7151     1013.669     77.31399     154.6897     309.6571      1.651     4.48     828.8038     54.62556     83.16559         5     1.191     0.480  54.68   0
       379    447.8738    445.9463 307.7298869  +6.5051715     1121.506     1705.981     1247.178      77.5606      154.998     309.8729      1.677     5.29     827.6738     54.62556     189.2666        14     1.588     0.579  42.12   0
       380    810.2723    444.6974 307.5793804  +6.5177713     1450.532     2074.441     1847.966     77.43739     155.1212     309.8729      1.588     4.65     830.1819     54.62556      208.589        12     1.228     0.599  44.24   0
       381    796.1383    443.9231 307.5852779  +6.5176204     1942.822     2754.214     2441.282     77.92906     155.0596     309.9037      1.496     4.18     830.0988     54.62556      307.605        17     1.458     0.669  40.26   0
       382    595.7153    444.1135 307.6685323  +6.5108632     798.4155     1081.255     1395.159     77.43739     155.1828     309.9653      1.725     5.07      828.223     54.62556     120.4339        10     1.215     0.597  44.55   0
       383    693.4817    442.0988 307.6279851  +6.5149543     14596.86     22198.19     23358.68     77.68362     155.4287     309.9961      1.624     4.24     828.7149     54.62556     2100.969        40     1.640     0.910  38.94   0
       384    614.0598    437.9600 307.6611168  +6.5140149     2430.793     3915.991     4498.684     77.68362      154.998     309.9961      1.846     6.99     828.1678     54.62556     365.4104        26     2.267     0.837  20.99   0
       385    586.9594    433.2517 307.6725320  +6.5150544     13312.14     25837.38     30816.19     77.68362     155.0596     309.8729      2.214     7.70     827.7166     54.62556     2066.201        55     2.601     0.868  34.92   0
       386    918.6751    431.9275 307.5347708  +6.5266482     3807.407     5925.947      6205.13     77.92906     155.2443     309.9345      1.671     4.37     828.0172     54.62556     519.8212        24     1.517     0.817  40.52   0
       387    357.8733    428.0081 307.7678735  +6.5095674     28149.62     44093.25     45997.22     77.31399     154.5662     309.7496      1.627     4.20     826.5717     54.62556     4140.821        52     1.701     0.974  37.29   0
       388    394.8143    429.4589 307.7524792  +6.5102036       605.27     901.4934     1208.134     77.06658     154.9364     309.6571      1.960     3.80     826.6606     54.62556     110.8947         5     1.295     0.320  50.00   0
       389    103.8693    427.5006 307.8734045  +6.5012727     2122.025     3427.306     3792.585     77.68362     155.1212     309.9037      1.805     4.49     829.9792     54.62556     293.4371        23     1.625     0.853  34.23   0
       390    873.4551    426.3724 307.5537416  +6.5274373     1211.705     2594.575     3014.081     77.31399     155.0596     309.7496      2.504     8.06     828.6814     54.62556     209.3936        23     2.568     0.706  42.70   0
       391    887.5825    422.2788 307.5480087  +6.5295969     4915.607     7677.777     7672.018     77.31399     154.6897      309.842      1.659     4.16     828.1926     54.62556     764.0703        32     1.666     0.891  36.64   0
       392    569.5496    423.7187 307.6800824  +6.5184083     656.2781     912.2637     1146.255     77.68362     155.0596     309.9037      1.596     5.00     827.1427     54.62556     110.1392         6     0.981     0.722  27.06   0
       393     37.2155    422.9917 307.9012431  +6.5008985     1446.038     2622.821     2942.529     77.31399     154.7514     309.7496      2.003     5.59     831.4131     54.62556     201.2482        19     1.746     0.743  28.75   0
       394    215.3834    418.5851 307.8273801  +6.5086888     13589.11     21145.71     21891.23     77.43739     154.6897      309.842      1.710     4.61     827.4617     54.62556      1889.62        40     1.733     0.905  38.34   0
       395    943.1484    420.0797 307.5249973  +6.5323520     752.7604     1079.285     1438.713     77.68362      154.998     309.9037      1.355     4.41     827.1821     54.62556     111.5945         8     1.097     0.505  36.03   0
       396    709.7953    412.2837 307.6222011  +6.5278042     768.8587     1095.326     1449.242     77.19038      154.628     309.5954      1.625     4.64     827.4673     54.62556     116.5894         8     1.153     0.552  32.70   0
       397     50.4644    412.5431 307.8960900  +6.5056554     791.6555     1444.437     1664.447     77.80644     154.9364     309.9345      2.067     5.15     830.9589     54.62556     125.8466        10     1.385     0.540  39.34   0
       398    678.4038    411.2928 307.6352752  +6.5271671     632.5649     836.9105     1143.197     77.31399     154.6897     309.6262      1.712     5.13       827.29     54.62556     91.40063         8     1.544     0.481  36.74   0
       399   1020.2940    409.1270 307.4933112  +6.5394361     8257.808      13230.1     13615.19      77.5606     155.1212     280.3989      1.678     4.30     825.6821     54.62556     1178.673        38     1.717     0.944  36.69  24
       400    938.6693    410.3692 307.5271809  +6.5362113     886.6914     1349.735     1395.977     77.56061      154.998     309.8729      1.823     4.92      826.921     54.62556     142.0306        13     1.427     0.645  38.72   0
       401    328.1527    408.2931 307.7808789  +6.5167108     1494.969      2399.71     2376.174      77.5606     154.9364     310.0269      1.674     4.79     825.7184     54.62556     211.5374        16     1.451     0.741  40.28   0
       402    115.6486    407.2592 307.8691897  +6.5100219     4878.771     7671.404     7793.111     77.68362      154.998     309.9653      1.685     4.32     829.0847     54.62556     675.5764        29     1.650     0.883  38.79   0
       403    160.8203    408.0608 307.8503983  +6.5112049     718.6696     1076.912     1264.707     77.31399      154.998      309.842      1.780     5.70     827.8339     54.62556     99.18628        10     1.264     0.723  34.79   0
       404    355.3525    407.2476 307.7696146  +6.5180520       550.56     730.8641     657.4098     77.68362     154.8748     309.9653      1.553     3.39     825.6111     54.62556     85.43213         5     0.745     0.446  73.32   0
       405    220.4844    406.0742 307.8256800  +6.5140233     1235.727     1866.126     1851.996     77.80643     155.3058     309.9653      1.687     5.85     827.0849     54.62556      161.825        16     1.606     0.638  45.15   0
       406    607.9376    405.4027 307.6647457  +6.5272488     449.4655     545.1493     563.7341     77.06658     154.8748     309.6571      1.365     4.65     826.7001     54.62556     82.67926         7     1.000     0.614  54.96   0
       407    413.3670    405.6014 307.7455692  +6.5206708     701.0298     1087.048     1164.027     76.94258     154.8131     309.6571      1.711     4.72     825.6103     54.62556     106.3451         8     1.149     0.549  47.04   0
       408    137.7238    403.0999 307.8601589  +6.5124785     2267.237     4263.605     4746.372     77.19038     155.1212     309.9037      1.954     4.65     828.4024     54.62556     308.7492        27     1.500     1.192  49.13   0
       409    801.4698    403.4492 307.5844099  +6.5345037     792.2528     925.2577     901.9915     77.68362     154.9364     309.9345      1.402     4.54     828.3131     54.62556     125.8203        10     1.243     0.550  43.83   0
       410    533.3490    401.8502 307.6958507  +6.5262264     1048.497     1706.638     1605.962     77.68362     154.8748      309.842      1.708     5.11     825.6774     54.62556     149.5465        11     1.463     0.578  41.29   0
       411    361.3326    397.7289 307.7674485  +6.5221807     2117.652      3049.33     2898.796     77.68362     155.1212     309.8729      1.569     4.43     825.2568     54.62556      322.415        19     1.449     0.771  40.80   0
       412    249.1596    398.3603 307.8140261  +6.5181672     714.2249     1119.896     478.9605     77.43739     155.1212     309.7804      1.448     4.44     826.3618     54.62556     106.1752         7     1.099     0.511  44.81   0
       413    949.5157    396.8156 307.5231251  +6.5421661     859.8146     1353.607     1587.726     77.31399     154.7514     309.8112      1.650     4.66     826.3102     54.62556      133.886        11     1.115     0.712  42.66   0
       414    295.5247    395.8217 307.7948502  +6.5207667     664.7751     1088.077     1127.987     77.31399     154.8748      309.842      1.702     5.84     825.5392     54.62556     86.92871        12     1.523     0.630  32.06   0
       415    414.9886    391.3776 307.7453707  +6.5265958     7126.507     11361.58     11934.47     77.31399     154.8131     309.8112      1.684     4.56     825.0039     54.62556     1014.696        35     1.644     0.974  39.86   0
       416     11.3009    392.2416 307.9130392  +6.5127206     2795.635     5090.007     5155.193     77.68362     154.8748     310.1193      1.927     4.96      831.465     54.62556     366.0966        34     1.615     1.326  47.28   0
       417    755.6662    388.6972 307.6039299  +6.5390677     12587.79     19356.59     20278.79     77.68362     155.0596     309.9653      1.641     4.33     827.2471     54.62556     1944.271        40     1.662     0.931  37.09   0
       418    747.6020    390.2766 307.6072275  +6.5381472     1764.596     2841.911     3695.216     77.06658     154.5044     309.7496      1.744     5.09     827.1899     54.62556     260.8926        18     1.620     0.678  39.59   0
       419    318.8433    386.7729 307.7854658  +6.5252817     1157.945     1626.626      2020.83     77.31399     155.0596     309.8112      1.643     4.48     825.1274     54.62556     180.1377        10     1.098     0.662  43.67   0
       420    269.6357    386.8047 307.8059066  +6.5236220     530.1537      774.799     124.8257     76.81838     154.7514     309.6879      1.575     4.19     825.7297     54.62556     109.1946         5     1.042     0.583  28.42   0
       421    999.4642    383.6273 307.5028119  +6.5492694     3483.971     5166.959     5578.656     77.31399      154.998     309.8112      1.668     4.24     824.7437     54.62556     472.8442        26     1.636     0.903  43.35   0
       422    930.0695    379.9049 307.5317662  +6.5484998      589.315     892.7512     934.6726      77.5606     155.0596     309.9345      1.542     3.93     826.2021     54.62556     84.10065         6     0.960     0.460  38.21   0
       423    881.2426    379.1835 307.5520756  +6.5471739     539.9183     722.1002     386.8886     77.19038     154.8131     309.6879      1.428     6.84     826.8552     54.62556     110.5652         8     1.651     0.795  26.40   0
       424    163.9431    379.4741 307.8500585  +6.5231084     788.6046     1396.646     1898.547      77.5606     154.8748     309.8729      1.843     5.10      827.532     54.62556     104.5034        10     1.461     0.504  25.85   0
       425    891.9904    374.8676 307.5477539  +6.5493128     839.3658     1386.439     1223.274     77.19038     154.8131     309.7804      1.800     5.92     826.5807     54.62556     123.2611        10     1.348     0.731  47.58   0
       426    463.1474    374.9088 307.7259141  +6.5350023     2992.708      4723.49     4910.278      77.5606     154.8131     310.0577      1.636     4.43     824.4155     54.62556     411.1547        20     1.571     0.720  38.42   0
       427    435.2305    375.4805 307.7374927  +6.5338337     2193.919     3444.501     3380.365     77.56061     154.9364     309.8729      1.687     4.26     824.3795     54.62556     312.1259        20     1.533     0.749  29.60   0
       428    821.0330    371.5735 307.5773432  +6.5483118     31047.39     50268.52     52792.98     77.19038     154.7514     309.6879      1.734     4.20     826.9503     54.62556     4145.874        56     1.749     1.072  44.19   0
       429    965.8131    371.2515 307.5172037  +6.5532596     439.1241     543.2894     667.4633     77.06658     154.9364     309.6571      1.523     3.45     824.9796     54.62556      78.8255         5     0.982     0.351  45.67   0
       430   1014.3909    369.0083 307.4970960  +6.5557994     590.2235     862.5422     461.0585     77.06658     154.8131     309.7804      1.567     5.16     823.5801     54.62556     86.13623         6     0.950     0.793 -20.45   0
       431    312.8842    367.0528 307.7886008  +6.5332217     834.2148       1179.2     1242.089     77.68362     154.9364     310.0577      1.533     4.54     824.6328     54.62556     160.9703         8     1.296     0.453  42.86   0
       432     38.6082    367.9679 307.9025097  +6.5236554      785.546     1129.693     588.4133     77.19038     154.8748     309.7188      1.727     4.14     830.1143     54.62556     109.8066         8     0.929     0.754  12.51   0
       433    592.6534    364.0055 307.6724758  +6.5438258     2670.866     4288.734     4501.438     77.19038     154.7514     309.5954      1.725     4.81     824.0974     54.62556     392.6293        23     1.698     0.765  40.28   0
       434      1.2531    364.7098 307.9181366  +6.5237467     699.4478     908.2092     814.7759     66.41893     121.8138     232.0654      1.152     3.28     831.1879     54.62556     160.2107         5     0.900     0.425  83.26  24
       435    124.1799    362.4219 307.8671480  +6.5288139     615.9955     976.0467     1304.121     77.43739     154.9364      309.842      1.603     4.66     827.8806     54.62556     106.9827         8     1.237     0.664  42.25   0
       436    677.4590    357.5963 307.6374570  +6.5492990     78786.12     119257.2     125151.2     77.06658     154.8748     309.6571      1.648     4.24     825.7606     54.62556     12152.16        81     1.757     1.007  37.36   0
       437    835.3721    358.9170 307.5718070  +6.5540130     1227.431     1926.919      1894.19      77.5606     154.8131      309.842      1.619     4.40      826.429     54.62556     165.5884        15     1.378     0.701  45.62   0
       438     56.9299    357.1998 307.8952598  +6.5287143     1254.107     1914.605     2597.213     77.19038     154.5044     309.6879      1.715     6.25     829.2812     54.62556     200.3894        18     1.767     0.790  30.93   0
       439    918.7926    354.6456 307.5372909  +6.5585508     907.9135     1549.344     1524.416     77.19038     154.8131     309.5645      1.900     5.10     825.6432     54.62556     135.4248         9     1.480     0.498  44.63   0
       440    539.8611    354.2790 307.6947327  +6.5460787     2670.218     4256.773     4828.088     77.80643     155.0596     309.9037      1.698     4.84     823.1888     54.62556     411.2603        22     1.663     0.727  33.95   0
       441     77.1325    353.2050 307.8870013  +6.5310407     5852.144     9187.219     10245.15     77.19038     154.6897     309.7188      1.657     4.31     828.5411     54.62556       789.47        31     1.651     0.889  36.10   0
       442    366.9860    354.3286 307.7665507  +6.5402829     649.6176     896.2292     880.5175     77.19038     154.8748     309.8112      1.477     4.27     823.5043     54.62556      80.6355         7     0.744     0.699   5.74   0
       443    738.2980    352.6919 307.6123445  +6.5533505     578.2695      856.272     1056.342     77.68362     155.4901     309.8729      1.540     3.44     826.1942     54.62556     92.63281         5     1.212     0.282  35.26   0
       444    523.1697    350.5299 307.7017922  +6.5470690     7037.242     10637.02     10792.64     77.56061      154.998     309.8729      1.602     4.42     823.1652     54.62556      970.575        32     1.669     0.831  37.68   0
       445    252.1684    348.2987 307.8144515  +6.5389304     2654.423     4085.491     4037.402     77.68362     154.8748     310.0269      1.623     4.58     825.1071     54.62556     375.9417        20     1.600     0.754  40.93   0
       446    386.0617    345.6960 307.7589144  +6.5444838      25017.6     39173.75     40459.77     77.43739     155.0596     309.9653      1.636     4.26     823.2071     54.62556      3453.47        49     1.695     0.957  38.05   0
       447    653.2365    344.3737 307.6479611  +6.5539492     511.7593     500.8373     608.4335     77.31399     154.8131     309.7188      1.338     4.22     824.5708     54.62556     100.4153         6     1.179     0.431  52.64   0
       448    565.0164    344.9582 307.6845930  +6.5507654     692.0001     1101.952     1071.723     77.19038     154.8131     309.6879      1.629     4.98     822.9731     54.62556     116.1819         9     1.325     0.530  39.77   0
       449    493.9777    344.5254 307.7141204  +6.5485727     1376.475     2069.491     1753.821     77.31399     154.8748      309.842      1.580     4.54     823.1492     54.62556     176.6831        15     1.399     0.707  31.38   0
       450    365.9173    343.5361 307.7673554  +6.5447018     1102.348     1714.414     2072.401     77.80643     155.1212     309.9345      1.744     4.84     823.1917     54.62556     154.2983        12     1.417     0.595  52.63   2
       451    362.6066    337.7464 307.7689243  +6.5469807     802.3618     1185.602     1457.697     77.19038     154.7514     309.6262      1.430     5.05     823.0245     54.62556     129.6748        10     1.524     0.473  47.03   2
       452    465.3102    340.9366 307.7261501  +6.5490964      1142.07     1628.795     1608.672     77.68362     155.1212     309.9653      1.566     5.02     823.0618     54.62556     160.3721        12     1.454     0.566  35.38   0
       453    780.9884    338.1926 307.5950911  +6.5607569     875.1091     1376.498     1595.353     77.31399     154.8131     309.8112      1.617     5.07     825.7168     54.62556     109.2838        10     1.378     0.528  44.00   0
       454    616.8483    337.9273 307.6632937  +6.5553966     530.5274     793.5587     791.8099     77.68362     155.0596     309.9345      1.835     4.46     823.3203     54.62556     94.00714         6     1.506     0.376  56.25   0
       455    475.1779    336.1197 307.7222114  +6.5514143     8291.801     12762.84     13352.62     77.31399     154.6897     309.8729      1.594     4.28     822.9377     54.62556     1226.008        31     1.646     0.833  37.71   0
       456    744.2579    334.8846 307.6104614  +6.5608991     3069.498      4831.97     5403.692     77.68362      154.998     309.9653      1.725     4.63      825.537     54.62556     426.9533        22     1.713     0.756  37.18   0
       457    691.9565    334.3906 307.6322072  +6.5593604     729.3584     1142.911     945.8641     77.19038     154.8131     309.6571      1.728     5.62     824.9212     54.62556      128.722        11     1.548     0.576  44.12   0
       458    899.6466    334.1257 307.5459277  +6.5663839      922.551     1439.198     1841.726      77.5606     155.0596     309.9037      1.768     5.61     825.1223     54.62556     129.3618        11     1.249     0.711  26.26   0
       459    188.4472    333.4636 307.8414199  +6.5429195     441.8668     631.2652     28.26984     77.56061     154.8748     309.9653      1.520     4.54      826.504     54.62556     79.07404         5     1.362     0.430  44.46   0
       460    301.6627    332.6326 307.7944139  +6.5470529      1059.55     1524.318     1346.097     77.43739     155.0596     309.8729      1.409     4.02     823.8472     54.62556     158.4116        11     1.301     0.550  40.16   0
       461    237.4734    326.6728 307.8212801  +6.5473643     852.3989     1304.659     1463.908     77.92907     155.1212     309.9653      1.774     6.00     824.9753     54.62556     99.88269        11     1.122     0.904  29.38   0
       462    413.4718    326.5211 307.7481678  +6.5533143     646.5699     848.0751     781.9935     77.92907     155.2443     309.8729      1.427     3.80     822.2819     54.62556      115.637         5     0.924     0.547  48.44   0
       463    137.3283    326.7067 307.8628826  +6.5439955     1098.652      1747.81     1641.644     77.56061     155.0596     309.9345      1.641     6.01     827.5629     54.62556     135.9775        14     1.400     0.725  31.44   0
       464    365.0376    320.3543 307.7684958  +6.5542405     7255.279     11448.19     11897.87     77.43739     154.9364     309.8112      1.678     4.47     822.4753     54.62556     988.9163        34     1.673     0.911  38.74   0
       465    220.6202    320.6976 307.8284815  +6.5492661     2143.186     3265.775     3774.835     77.56061     154.8131     309.6571      1.759     4.25     825.2859     54.62556     315.7762        20     1.508     0.756  38.60   0
       466    718.3123    319.8955 307.6217402  +6.5662215     911.1493     1430.526     1466.547     77.68362     155.3672     309.9653      1.553     5.33     824.6823     54.62556     141.0885        10     1.476     0.544  35.37   0
       467    732.9481    316.1395 307.6157846  +6.5682594        52624     80486.84     84097.23     77.68362     154.9364     309.9037      1.604     4.29     824.7495     54.62556     7758.968        66     1.738     0.951  37.53   0
       468    404.5066    315.6786 307.7522547  +6.5574899      2452.63     3686.391     4101.508     77.43739     155.1828     309.9345      1.661     4.33     821.8773     54.62556     386.9973        22     1.591     0.795  35.78   0
       469    967.9649    313.2258 307.5182378  +6.5772817     1510.989      2470.03     2436.071     77.06658     154.8131     309.6879      1.679     4.61     823.2106     54.62556     233.6732        17     1.470     0.786  35.14   0
       470    550.4319    312.9741 307.6917193  +6.5634801     1262.594     1934.285     1969.113     77.19038     154.7514     309.7496      1.611     4.48     821.7003     54.62556     195.6551        15     1.492     0.653  45.03   0
       471    908.7393    312.3390 307.5428743  +6.5756789     2100.873       3173.2     2816.721     77.68362      154.998     309.9345      1.644     4.86     824.2432     54.62556     340.6267        19     1.554     0.701  37.46   0
       472    441.7115    312.2477 307.7369124  +6.5601493     1031.266     1466.179     1746.521     77.68362     154.8748     309.9961      1.564     5.28     821.8212     54.62556     155.2678        11     1.398     0.563  31.92   0
       473    391.1341    311.3567 307.7579548  +6.5588267     1993.089     3201.909     3322.683     77.68362     154.9364     309.9345      1.711     4.32     821.8528     54.62556     270.1074        17     1.504     0.700  36.84   0
       474    270.5422    310.5261 307.8080823  +6.5551357     751.0054     1016.966     1330.648     77.68362      154.998     309.8729      1.591     4.69     823.8344     54.62556     113.8508         7     1.186     0.527  52.41   0
       475    812.2162    305.4535 307.5832066  +6.5753097     1213.123     1887.221     1459.857     77.19038     155.0596     309.6262      1.671     5.17      824.722     54.62556     176.5648        16     1.397     0.967  47.98   0
       476    441.0449    306.0784 307.7373954  +6.5626734      732.189     1093.795     965.5954      77.5606      154.998     309.9037      1.550     4.21     821.5676     54.62556     133.1346         7     1.026     0.493  43.83   0
       477    421.4948    302.7353 307.7456294  +6.5633999     1350.356      2111.28      2439.52     77.56061     155.1212     309.9345      1.641     5.03     821.1793     54.62556      188.448        17     1.527     0.737  39.58   0
       478    731.4148    300.7936 307.6169328  +6.5745424      6085.22     9388.845     9570.355     77.31399     154.7514     309.7496      1.653     4.46     824.1445     54.62556     887.8362        30     1.607     0.862  40.91   0
       479    167.5225    302.5057 307.8511496  +6.5549960      2385.14     3721.259     3826.892     77.43739     155.1828     309.9653      1.664     4.52     827.1072     54.62556     334.9239        18     1.441     0.732  34.34   0
       480    321.7309    300.4355 307.7871536  +6.5610134     736.5367     1149.553     715.6618     77.56061     155.0596     309.9961      1.716     5.37     822.5365     54.62556      98.4527         9     1.477     0.552  41.31   0
       481    203.4805    301.0306 307.8362605  +6.5568094     756.1873     916.9235     996.0362      77.5606     154.9364     309.8729      1.523     5.15     825.7378     54.62556     116.0393         8     1.531     0.489  32.22   0
       482     64.0701    299.9659 307.8942126  +6.5525761      921.978     1592.954     1677.497      77.5606      154.998     309.9961      1.958     5.72     828.4456     54.62556     142.6377        11     1.473     0.626  37.77   0
       483    747.7591    298.6393 307.6102139  +6.5759761     2535.564     4134.229     4655.602     77.43739     155.0596     309.7804      1.753     4.36     824.2498     54.62556     382.8226        22     1.554     0.795  36.05   0
       484    449.3824    297.4611 307.7342194  +6.5665087     567.7286     650.1436     514.6076     77.31399     154.9364     309.7188      1.157     4.33     821.3234     54.62556     93.75012         7     0.867     0.694  21.00   0
       485    337.1344    293.3805 307.7809901  +6.5644405     1733.348      3115.62     3483.865     77.31399      154.998     309.7804      2.075     6.93     822.1232     54.62556     222.3403        22     1.833     0.798  20.35   0
       486     50.6078    293.7536 307.9000136  +6.5546886     1297.201     2110.139     2316.925     77.19038     154.8131     309.5337      1.789     5.23     828.6099     54.62556     209.3932        14     1.358     0.734  32.60   0
       487    986.0151    289.5490 307.5115249  +6.5876542      5713.33     9048.465     9661.758     77.06658      154.998     309.6571      1.686     4.23     822.3427     54.62556     751.8502        31     1.609     0.906  38.03   0
       488    463.8752    289.3320 307.7284697  +6.5703481     2147.362      3160.43      3062.86     77.80643     155.1212     309.9037      1.577     4.46     821.2728     54.62556      303.061        18     1.593     0.678  37.14   0
       489    226.6552    285.1372 307.8271647  +6.5641454     5797.538      8840.55     9558.189     77.80643     154.9364     309.9037      1.602     4.27     824.6539     54.62556     779.8962        27     1.598     0.814  36.91   0
       490    235.2769    286.1342 307.8235495  +6.5640226     543.6161     923.7979     1627.691     77.80643      154.998     309.8729      2.736     4.48     824.3967     54.62556     85.57416         6     1.229     0.465  43.49   0
       491    894.1786    283.7050 307.5498762  +6.5870135     527.8748     649.5759     854.1422      77.5606     154.8131     309.7496      1.491     3.42     823.3217     54.62556     106.3505         5     0.964     0.351  47.22   0
       492    745.9137    278.2433 307.6116599  +6.5843331      684.125     1015.112      602.962     77.68362     154.8748     309.9037      1.422     4.32     823.4833     54.62556     104.3917         7     1.193     0.446  56.49   0
       493    203.4405    278.2068 307.8370414  +6.5662283     769.5032     1289.355     1110.728     77.06658     154.6897     309.5954      1.795     4.73     825.5167     54.62556      113.248         9     1.315     0.482  40.97   0
       494    360.8227    275.8954 307.7717332  +6.5724496     1651.576     2897.698     3103.231     77.68362     154.8131     309.7496      1.833     4.56     821.5604     54.62556     275.1911        19     1.593     0.767  38.83   0
       495    947.7277    274.3784 307.5279371  +6.5926436     874.8007     1022.379     1283.881     77.31399     154.8131     309.8729      1.348     5.75     822.2128     54.62556     156.4633        11     1.499     0.620  56.56   0
       496    130.4753    271.6968 307.8675728  +6.5664703     1875.814      2797.36     2272.221     77.31399     155.1212     309.9345      1.631     5.28     827.2661     54.62556     228.2611        17     1.483     0.701  40.94   0
       497    283.0174    271.7964 307.8041954  +6.5715385     1159.729     1720.494     1944.571     77.31399     154.5662     309.7496      1.614     5.68      822.815     54.62556     176.8906        13     1.231     0.738  45.60   0
       498    883.8167    266.3625 307.5547583  +6.5938271     1683.549     2882.943      3184.44     77.31399     154.8748     309.6571      1.994     6.17     822.5784     54.62556     227.8269        22     1.939     0.722  37.83   0
       499    540.1531    267.3208 307.6975134  +6.5819803      2192.08     3379.876     3915.725     77.68362     155.0596     309.8729      1.680     4.35     819.9669     54.62556     339.3083        20     1.539     0.733  37.29   0
       500    942.0104    264.8311 307.5306300  +6.5963943     712.5558     1197.732     570.6755     77.19038     154.7514     309.7496      1.744     6.35     821.8864     54.62556     116.3212        13     1.697     0.668  47.94   0
       501    703.8084    264.8358 307.6296006  +6.5884642     4827.593     7589.773     7687.498     77.19038     154.8131     309.6879      1.610     4.41     822.3788     54.62556     778.9924        27     1.621     0.811  38.19   0
       502    644.5341    264.7580 307.6542307  +6.5865205     2175.227     3232.212     3442.861     77.68362     154.9364     309.9653      1.604     4.20     821.4324     54.62556     347.7395        18     1.520     0.671  38.17   0
       503    359.4798    259.0134 307.7728556  +6.5793726     725.6609     945.7354     818.4361     77.31399     154.7514     309.7188      1.385     4.64     821.5142     54.62556     130.9515         8     1.060     0.576  41.85   0
       504    899.5469    256.7502 307.5485421  +6.5983178     1000.577     1365.885     1440.138     77.80644     154.8748     309.9345      1.625     5.62     822.0182     54.62556     145.3384        12     1.450     0.615  36.99   0
       505    203.1143    250.1418 307.8381167  +6.5778008     2339.046     3696.022     3679.422     77.68362      154.998     310.0269      1.596     4.12     825.2221     54.62556       361.99        21     1.527     0.867  35.51   0
       506    846.0677    249.1140 307.5710166  +6.5996907     1692.197      2528.11     2591.147     77.80643     155.2443     309.9345      1.577     4.31     822.1636     54.62556     239.2122        17     1.412     0.716  44.79   0
       507    736.5984    248.5107 307.6165206  +6.5962950     1576.709     2293.875     1639.364     76.94258      154.628     309.6879      1.569     4.99     822.4272     54.62556     228.0934        14     1.590     0.565  38.16   0
       508    556.8737    244.3242 307.6913337  +6.5920302     528.6539     905.8721     697.7543     77.92906     155.2443     309.9345      1.615     4.20      819.295     54.62556     98.51215         6     1.474     0.341  48.39   0
       509    437.1995    240.0665 307.7411984  +6.5897909     22625.38     35415.96     36692.12     76.94258     154.5044     309.6571      1.627     4.12     819.7928     54.62556     3330.385        45     1.669     0.944  37.46   0
       510    298.1815    242.1518 307.7988870  +6.5842815      777.074     1255.511      609.762     77.19038     155.0596     309.7188      1.790     6.13     822.3924     54.62556     100.5838        10     1.451     0.728  34.19   0
       511    763.2598    239.0808 307.6057570  +6.6010752     13009.27     20325.96     21973.31     77.80643      154.998     309.9037      1.654     4.37     822.1299     54.62556     1942.094        47     1.661     1.136  31.23   0
       512    701.8220    234.9217 307.6314227  +6.6007451     724.1314     1165.649     1016.265     77.31399     154.7514     309.9037      1.608     5.31     821.3646     54.62556     133.4743         8     1.472     0.542  48.83   0
       513    442.8938    234.5747 307.7390160  +6.5922479     1403.825     2117.177     2223.527     77.80643     154.7514     309.7496      1.582     4.97     819.5703     54.62556      191.678        13     1.399     0.600  37.62   0
       514    125.3755    233.4097 307.8709746  +6.5821017     2421.243     3600.613     3304.689     77.31399     154.8131     309.7804      1.582     4.33     826.6588     54.62556     364.7919        19     1.465     0.736  34.16   0
       515    100.1124    232.4947 307.8815010  +6.5816324     1071.972     1528.019     1611.015     77.68362     155.3672     309.9653      1.530     4.83     827.3417     54.62556     173.3108        13     1.424     0.648  45.69   0
       516    755.5611    231.7936 307.6091985  +6.6038266     686.7577     1100.226     2112.401     76.81838     154.6897     309.6262      1.749     4.92     821.8604     54.62556     116.3096         8     1.294     0.530  14.61   0
       517    151.9516    231.1463 307.8600091  +6.5839267     584.3845      1016.95     901.3253     77.68362      154.998     309.9345      1.618     4.46     825.8579     54.62556     77.80792         6     1.511     0.375  33.20   0
       518    899.4265    229.2764 307.5495058  +6.6096538     1514.087     1999.873     2288.679     77.56061     154.9364     309.8729      1.475     4.19     820.7296     54.62556     259.8983        13     1.373     0.621  40.67   0
       519    597.6304    227.5558 307.6749592  +6.6003113     516.8046     738.8955     683.5779     77.31399      154.998     309.7804      1.722     4.16     819.7073     54.62556     102.5813         6     1.070     0.461  11.07   0
       520    561.2326    225.8099 307.6901405  +6.5998174     4791.644     7432.132     7970.844     77.19038     154.7514     309.7496      1.640     4.23      818.743     54.62556     667.5741        27     1.564     0.843  38.32   0
       521    523.8970    225.7758 307.7056542  +6.5985852      2119.92     3243.925     3471.779     77.80643     154.7514     309.8112      1.645     5.03     818.3544     54.62556     332.5826        20     1.514     0.866  39.11   0
       522    365.6194    224.9927 307.7714422  +6.5936197      1428.48     2182.175     2248.766     77.31399     154.7514     309.7188      1.660     4.61     821.1775     54.62556     231.8912        15     1.418     0.734  50.66   0
       523    281.2568    226.5629 307.8064404  +6.5901492     972.1888     1494.181     1301.381     77.68362     155.0596     309.9037      1.646     3.65     822.7632     54.62556     190.9271        10     1.099     0.632  39.70   0
       524    922.2483    222.8647 307.5402363  +6.6130591     2653.498     4128.886     4223.834      77.5606     154.8748     309.9345      1.632     4.48     820.2322     54.62556     367.8972        22     1.564     0.792  35.81   0
       525    868.3292    222.2774 307.5626597  +6.6115082      11143.8     17084.62     17741.29     77.92907     155.2443     309.9037      1.632     4.07      820.683     54.62556     1709.391        37     1.663     0.890  38.23   0
       526    187.2215    222.4952 307.8456454  +6.5886792     713.6797     1296.787     1186.693     77.56061     154.8131     309.7496      1.824     6.33     825.1254     54.62556      96.3269        13     1.693     0.665  50.09   0
       527    543.3619    222.2176 307.6976854  +6.6007036     827.8141     1264.147      1600.23     77.31399     154.8748     309.6571      1.800     5.60     818.2482     54.62556     117.5549        12     1.435     0.615  50.01   0
       528    295.6435    222.2122 307.8006086  +6.5924264     805.8612     1467.912     1977.277     77.19038     154.8748     309.6262      1.911     4.24     822.3827     54.62556     157.1014        10     1.229     0.637  52.77   0
       529    954.9272    220.0933 307.5267501  +6.6152894     9289.053      14631.7     15343.07      77.5606     155.1212     309.9653      1.624     4.19     819.5069     54.62556     1263.238        38     1.686     0.915  38.71   0
       530    666.4409    220.1738 307.6466150  +6.6056530     2795.516     4526.324     5055.784     77.31399     154.8131     309.7188      1.777     4.49     820.4114     54.62556     402.6985        22     1.609     0.795  41.53   0
       531    240.6633    219.9827 307.8235261  +6.5915061     947.5789     1598.032     1898.778     77.19038     154.9364     309.7496      1.639     5.43     824.1597     54.62556     159.3177        11     1.345     0.618  46.31   0
       532    475.0719    215.2044 307.7262934  +6.6013179     1978.991     3126.101     3697.909     77.31399     154.5662     309.7496      1.610     4.32     818.2541     54.62556     289.3604        19     1.497     0.721  43.28   0
       533    806.7176    211.6281 307.5886142  +6.6138534      1940.49     3030.075     3065.377     77.56061     154.8131      309.842      1.688     4.30     820.9166     54.62556     311.6172        19     1.479     0.762  42.11   0
       534    859.1241    210.7427 307.5668682  +6.6159630      1854.44       2753.4      3033.01     77.68362     154.9364      309.842      1.469     4.24     820.1965     54.62556     293.0255        16     1.468     0.639  38.87   0
       535    487.0023    210.9911 307.7214772  +6.6034554      2575.86     4120.346     4106.033     77.06658     154.6897     309.7188      1.653     4.09     818.0148     54.62556     386.6368        22     1.558     0.812  37.33   0
       536    718.4683    208.2612 307.6253945  +6.6123039     39751.15     60282.05     62987.35     77.80644     154.9364     309.9037      1.641     4.29      820.838     54.62556     6044.639        58     1.710     0.944  37.21   0
       537    321.5190    207.7017 307.7903433  +6.5992812     5457.855     11860.99     12988.56     77.56061     155.4287     309.9653      2.190     6.54     822.0051     54.62556     621.7534        47     1.960     1.330  76.19   0
       538    952.1548    206.9646 307.5283384  +6.6206162     2643.895     4352.567      4238.39     77.43739     154.9364     309.8112      1.734     4.75     819.1333     54.62556     403.3204        23     1.676     0.781  35.40   0
       539    990.5009    205.6376 307.5124491  +6.6224382     1708.372     2524.788     2381.788     77.68362     154.8748     310.1193      1.540     4.81     818.5634     54.62556     273.1677        17     1.542     0.735  39.55   0
       540    886.4374    205.3692 307.5556980  +6.6190895     7488.646     11425.21     12138.97     77.31399     154.7514     309.7496      1.635     4.30     819.6571     54.62556     1138.721        31     1.629     0.834  38.39   0
       541    429.8524    204.4456 307.7454411  +6.6042477     5032.198     7835.859     8385.403     77.68362     154.9364     309.9653      1.680     4.51     819.1317     54.62556     669.2198        27     1.577     0.844  38.28   0
       542    204.3336    201.4543 307.8392405  +6.5979368     680.2285     926.8924     1208.543     77.68362     154.9364     309.8729      1.414     4.10     824.8943     54.62556     127.6727         7     1.150     0.418  39.47   0
       543     87.2094    195.8556 307.8880901  +6.5963218     4637.455     7215.591     7388.839     77.06658     154.9364     309.6262      1.645     4.27     826.7681     54.62556     664.4644        27     1.643     0.855  42.33   0
       544    232.8103    193.6377 307.8276708  +6.6021167     6433.814     10223.73     10864.58     77.06658     154.8131     309.5954      1.676     4.40     824.4216     54.62556     938.0024        34     1.590     0.982  36.91   0
       545    906.6398    194.8408 307.5476538  +6.6241071      804.449      1340.91     2275.853     77.43739     155.1212     309.7804      2.045     4.45     819.0433     54.62556     134.6756         8     1.099     0.513  35.73   0
       546    584.0321    194.7964 307.6817021  +6.6133789     633.3917     1092.029     860.1727     76.94258     154.8748     309.6879      1.603     4.58     818.5024     54.62556      116.524         8     1.163     0.553  11.54   0
       547    257.5410    192.5305 307.8174327  +6.6034017     34121.25     52603.25        55332     77.80644      154.998     309.8729      1.696     4.41     823.6309     54.62556     4797.266        55     1.733     0.972  36.20   0
       548    686.8785    191.5994 307.6390755  +6.6181283      888.415     1364.193     1544.413     76.94258     154.3808     309.6879      1.687     5.18      820.164     54.62556     155.8166        12     1.467     0.663  28.65   0
       549    381.6241    187.9841 307.7660297  +6.6094298      50136.7     77947.58     81586.75     77.43739     154.8748      309.842      1.645     4.27     820.3665     54.62556     6851.176        67     1.729     1.011  37.53   0
       550    137.6021    189.3752 307.8673705  +6.6006861     3949.093     6256.268     6322.246     77.31399     154.6897     309.7188      1.667     4.78     825.6941     54.62556     548.5796        29     1.605     0.898  38.28   0
       551    398.9790    188.5699 307.7587993  +6.6097683     1509.041     2277.944     2785.882     77.19038     154.8131     309.7804      1.702     4.95      819.736     54.62556     209.8265        16     1.350     0.792  35.67   0
       552    285.5748    185.7097 307.8060133  +6.6071554     18291.82     28481.58     29576.07     77.80644     154.8131     309.7496      1.702     4.43     822.7816     54.62556     2652.433        48     1.709     0.975  36.47   2
       553    292.8146    185.0451 307.8030275  +6.6076720     1795.915     3416.768     4209.131     77.06658     154.8131     309.6879      2.229     6.33     822.6182     54.62556     270.5272        25     1.801     1.251  78.56   2
       554    720.9215    184.1666 307.6251779  +6.6223307     32609.42      50058.5     52118.69      77.5606      154.998     309.9037      1.596     4.32     820.2078     54.62556     4672.692        52     1.696     0.924  36.32   0
       555    669.1360    186.1206 307.6466303  +6.6197982     895.5333     1375.433     1425.029     77.92906     155.0596     309.8729      1.523     4.75     819.8866     54.62556     142.8272         9     1.284     0.499  48.77   0
       556    769.4060    184.7551 307.6050123  +6.6237029     1072.062     1531.205     1511.303     77.06658     154.8131     309.5645      1.524     4.90     820.0298     54.62556       161.47        10     1.277     0.533  38.33   0
       557      9.0147    185.2418 307.9209335  +6.5980789     513.3539     1102.835     1711.176     77.19038     154.8131     309.6571      2.741     3.39     827.9272     54.62556      91.7276         5     0.797     0.497 -60.21   0
       558     37.6601    181.4754 307.9091586  +6.6005947     9047.449     14252.51     14830.27     77.92907      154.998     309.8729      1.734     4.54     827.3756     54.62556     1212.823        37     1.725     0.931  35.80   0
       559     71.6654    179.6362 307.8950920  +6.6024947     1562.088     2504.363     2537.685     77.56061      154.998     309.9653      1.768     5.97     826.6992     54.62556     201.1411        17     1.635     0.713  38.61   0
       560    979.4882    178.7450 307.5179188  +6.6331724     1084.255     1587.701     1476.911     77.68362     154.8748     310.0577      1.609     4.44     818.1663     54.62556     146.6003        13     1.296     0.668  39.97   0
       561    946.6101    177.4157 307.5316246  +6.6326283     540.0815     666.4976     884.9039     77.43739     154.7514     309.7804      1.245     3.52     818.1319     54.62556     80.12811         5     1.062     0.336  69.45   0
       562    704.8466    171.9083 307.6322658  +6.6268547     581.1681     962.9251     719.0302     77.68362     154.9364     310.0269      1.419     4.54     819.8305     54.62556     101.6823         7     1.173     0.500  38.51   0
       563    554.5938    168.5661 307.6948093  +6.6232229     774.8479     1167.256     1367.781     77.06658     154.8131     309.6879      1.628     4.81     817.3052     54.62556     153.6536        10     1.301     0.504  45.50   0
       564    980.1874    164.4957 307.5181018  +6.6390771     2034.118     3224.792     3684.394     77.43739     154.7514     309.7188      1.710     4.35     817.8599     54.62556     295.0519        19     1.516     0.771  43.72   0
       565    563.0102    162.2855 307.6915217  +6.6260961     1032.991     1661.584     2196.625     77.31399     154.6897     309.7496      2.051     5.57     817.2872     54.62556     168.4064        13     1.654     0.529  36.37   0
       566    316.0856    160.7930 307.7941700  +6.6184605     887.9423     1208.744     887.0718     77.31399     154.6897     309.7188      1.428     5.31     822.2549     54.62556     177.8414         9     1.503     0.529  40.77   0
       567    571.5549    160.4357 307.6880330  +6.6271448     2075.923      3084.11       3141.9     77.43739     154.9364      309.842      1.591     4.69     817.3926     54.62556     324.7982        18     1.416     0.750  38.96   0
       568    256.4508    158.7794 307.8190154  +6.6172955      30310.4     47643.34     50382.74     77.19038     155.0596     309.7804      1.693     4.45     823.7352     54.62556     4089.946        54     1.749     0.982  36.30   0
       569      2.2218    157.5042 307.9246865  +6.6092990     4154.299     5691.391     5612.623     76.56937     135.5419     247.2457      1.493     4.37     828.1692     54.62556     571.3975        22     1.385     0.882  52.20  24
       570    688.0992    155.3275 307.6397772  +6.6331402     8072.585     12404.04     13223.13     77.43739     155.1212     309.9037      1.622     4.29     819.1824     54.62556     1204.311        30     1.592     0.836  36.50   0
       571    165.4661    156.5894 307.8568921  +6.6151518      785.754     1360.129     1223.301     77.19038     154.8131     309.7496      1.574     4.71     824.9673     54.62556     128.6887         9     1.316     0.478  41.44   0
       572    241.9629    153.8087 307.8252015  +6.6188620     755.9724     1097.214       1046.4     76.94258     154.7514     309.6571      1.426     4.69     824.0368     54.62556     121.8123         9     1.313     0.548  43.98   0
       573     98.9249    152.5857 307.8846733  +6.6145735     4750.187         7771     8295.111     77.19038     154.7514     309.7804      1.699     4.97     825.2945     54.62556     678.2743        28     1.683     0.833  38.01   0
       574    626.7568    149.6453 307.6654557  +6.6334401     745.3226      1304.09     1680.367     77.68362      154.998      309.842      2.304     5.94     817.9962     54.62556     125.0784         9     1.537     0.646  44.17   0
       575    560.5355    150.3586 307.6929481  +6.6309363     744.4295     1310.697     1462.927     77.68362     154.9364     309.9653      1.903     4.73     816.9741     54.62556     140.3596         9     1.326     0.550  34.17   0
       576    437.8450    149.5455 307.7439546  +6.6271743     1358.275     2090.387     1887.396     77.68362      154.998     309.9345      1.683     4.16     817.7806     54.62556     218.4243        13     1.307     0.633  42.13   0
       577    369.4107    148.5566 307.7724226  +6.6252947     3904.974     6298.627     6291.719     77.19038     154.8131     309.6262      1.749     4.62     820.6854     54.62556     578.4365        28     1.693     0.843  43.55   0
       578    334.0081    147.1969 307.7871780  +6.6246718     3175.758     4958.793     5002.682     77.06658     154.6897     309.7496      1.613     4.34     821.9167     54.62556     462.4651        23     1.563     0.802  41.71   0
       579     88.2798    147.2977 307.8892735  +6.6163990     1636.463     2783.033       2524.6     77.43739     155.3058     309.9345      1.803     4.49      825.307     54.62556      234.549        18     1.508     0.823  39.11   0
       580    725.0178    145.6266 307.6247600  +6.6383745     511.6844     873.1625     689.4553     77.31399     154.8131     309.8112      1.878     3.88     818.6013     54.62556     100.7181         5     1.251     0.345  45.73   0
       581    650.0570    145.0019 307.6559288  +6.6361337     765.1536     1166.314     890.1451     77.06658     154.6897     309.6571      1.472     5.05     818.1561     54.62556     138.3601        10     1.338     0.539  27.92   0
       582    980.7472    141.2704 307.5186410  +6.6486820     1420.708     2093.528      1633.03     77.56061     154.9364      309.842      1.499     4.08     816.8597     54.62556     213.3508        14     1.357     0.653  37.10   0
       583    185.7969    136.2315 307.8491268  +6.6242354     5451.591     8690.034     9145.111     77.06658     154.8131     309.6879      1.660     4.53     824.0869     54.62556     726.7827        29     1.638     0.859  39.86   0
       584    647.6010    135.0597 307.6572809  +6.6401555     6369.747     9746.116     10027.69     77.06658     154.7514     309.5954      1.596     4.15     817.5885     54.62556     904.0034        32     1.587     0.894  38.42   0
       585     68.4738    136.2739 307.8978723  +6.6202845     2214.909     3468.431     3832.889     77.92907     155.2443     309.9961      1.655     4.72     825.5891     54.62556     297.3131        18     1.511     0.724  37.70   0
       586    824.4301    135.7788 307.5837791  +6.6457499     366.2534     532.7398     751.2223     77.19038     154.8131     309.7804      1.426     3.51     817.1735     54.62556     81.93817         5     1.242     0.287  36.60   0
       587    795.7911    134.7825 307.5957127  +6.6452077      1070.82     1655.148     1759.656     77.43739     154.7514     309.7496      1.582     5.47      817.423     54.62556      161.299        12     1.391     0.607  40.71   0
       588    599.8587    132.3620 307.6772090  +6.6396765     9106.491     14480.04     15728.11     77.68362     155.0596     309.9345      1.685     4.65     816.9234     54.62556     1266.741        36     1.675     0.899  38.01   0
       589    234.5181    132.5979 307.8290049  +6.6273671     850.2695     1220.881     1196.833     77.06658      154.628     309.6262      1.670     4.68     823.8081     54.62556     124.6439         8     1.079     0.577  44.99   0
       590    537.1508    131.1971 307.7033044  +6.6380645     602.8172     1041.361     1663.806     77.06658     154.6897     309.5028      1.855     4.88     816.4175     54.62556     110.5862         7     1.236     0.546  41.82   0
       591     74.2954    131.3824 307.8956175  +6.6224987      383.015     589.0097      489.182     77.56061     154.8131     309.7496      1.534     4.07     825.1635     54.62556     80.56042         5     0.986     0.480   4.94   0
       592    326.7563    128.2573 307.7908247  +6.6322462     3622.685     6389.318      6974.52     77.56061     154.9364     309.9345      1.858     4.77     822.1287     54.62556     498.1981        32     1.540     1.177  48.97   0
       593   1022.6606    129.0727 307.5016295  +6.6551091     704.3872     946.2179     1067.224     77.19038     137.0829     248.8624      1.505     4.91      816.161     54.62556     117.8279         5     1.147     0.594  18.33  24
       594    508.9055    127.5297 307.7151633  +6.6386351      1798.09     2728.012     2750.072      77.5606     155.0596     309.9037      1.610     4.36     816.4825     54.62556     270.2533        16     1.456     0.680  44.43   0
       595    973.0181    127.1949 307.5223206  +6.6542348     805.8223     1390.036     1842.183     77.31399      154.628     309.7496      2.062     5.68     816.2274     54.62556     119.0092        11     1.517     0.874  36.77   0
       596    603.3660    123.8633 307.6760351  +6.6433013     52900.82     81218.39     85253.76      77.5606     155.0596     309.8729      1.627     4.26     816.6756     54.62556     7242.759        64     1.729     0.952  38.27   0
       597    282.4361    117.6473 307.8095952  +6.6351421       3524.2     5624.215     6067.417     77.31399     155.0596      309.842      1.713     4.16     823.0842     54.62556     532.2429        25     1.573     0.825  41.90   0
       598    681.9622    111.6733 307.6437824  +6.6509537     982.7057     1383.316     856.5027      77.5606     155.0596     309.9653      1.569     4.09     816.4061     54.62556       160.58         9     1.075     0.544  57.79   0
       599    653.8139    111.0875 307.6554986  +6.6502571     1433.353     2248.134     2029.631     77.31399     154.8131     309.8112      1.630     5.31     816.3143     54.62556     209.8613        15     1.527     0.620  40.54   0
       600    667.7744    107.7486 307.6498088  +6.6521007     3176.647      4850.66     4700.062     77.31399     155.0596     309.8112      1.597     4.11     816.1473     54.62556     503.8868        25     1.601     0.828  34.31   0
       601    409.5217     98.8202 307.7574187  +6.6471640     3996.211     6293.465     6064.944     77.31399     154.6897     309.8729      1.666     4.46     818.3213     54.62556     569.3345        26     1.660     0.810  37.47   0
       602    480.8109     99.6429 307.7277687  +6.6492068     1500.704     1655.132     1461.992     77.19038     154.8131     309.6262      0.729     1.03     816.3015     54.62556     680.7129         5     0.537     0.445  36.07   0
       603    882.1348     94.2505 307.5611823  +6.6648108     3713.428     5833.752     5904.207      77.5606     154.9364     309.9037      1.642     4.61     815.4917     54.62556     527.5492        24     1.696     0.738  41.18   0
       604    864.0200     94.9950 307.5686852  +6.6639009     2221.732     3413.435     3502.972     77.31399     154.6897     309.7188      1.514     4.12     815.5658     54.62556     312.3334        19     1.405     0.783  33.08   0
       605    562.2343     94.5923 307.6941033  +6.6540102      679.272     938.8013     1172.258     77.19038     154.8131     309.6879      1.472     4.56      815.704     54.62556     99.66846         7     1.259     0.469  41.21   0
       606    574.0543     92.7052 307.6892547  +6.6551836     1783.205     2818.181     2642.812      77.5606      154.998     310.1193      1.541     5.08     815.6611     54.62556     259.3666        15     1.577     0.606  41.96   0
       607    219.8487     92.3074 307.8364494  +6.6435051     701.0845     1116.226     1077.611      77.5606     154.8748     310.0269      1.741     5.08     822.9506     54.62556     110.4137         8     1.368     0.534  38.06   0
       608    372.8474     90.7553 307.7729274  +6.6492664     1827.423     2878.067     2914.617     77.68362     154.9364     309.8729      1.683     4.62     820.5593     54.62556     279.1755        22     1.645     0.771  37.47   0
       609    120.7119     87.6676 307.8777972  +6.6420977     3231.506     5089.949     5182.954     77.80644     155.1828     309.9345      1.652     4.27     822.3068     54.62556     484.5187        24     1.590     0.799  36.21   0
       610      2.8069     85.5375 307.9268587  +6.6390211     12219.92     19093.93     20651.38     77.06658     142.6135     255.6383      1.686     4.83     827.1456     54.62556      1654.48        42     1.640     1.042  49.45  24
       611    268.8159     86.1071 307.8163103  +6.6477039     1269.626     2032.734     2522.618     77.43739     154.8131     309.7496      1.827     4.03     823.0408     54.62556     219.4448        14     1.318     0.690  41.99   0
       612    542.3369     85.0683 307.7026893  +6.6572769     615.2969     808.2034     1012.429     77.68362     154.9364     309.9653      1.406     3.77     815.5472     54.62556     126.8657         7     1.047     0.483  42.70   0
       613    529.4207     84.7012 307.7080687  +6.6569972     689.2109      906.825     677.0518     77.68362     154.8131     309.6879      1.501     4.45     815.6752     54.62556     144.6406         7     1.245     0.452  47.73   0
       614    804.3856     79.9316 307.5939677  +6.6681335     6003.095     9242.031     9938.487     77.19038     154.8748     309.8112      1.614     4.23     815.0179     54.62556     878.7436        28     1.621     0.800  41.73   0
       615    394.4142     80.9173 307.7642948  +6.6540481     1044.388     1760.896     1350.374     77.31399     154.7514     309.7188      1.681     6.09     819.3787     54.62556      174.207        14     1.793     0.581  27.11   0
       616    871.6064     81.1693 307.5659927  +6.6698599     721.4592     974.0865     1463.728     77.06658     154.7514     309.6879      1.397     5.00     815.2468     54.62556      136.425         8     1.287     0.550  33.66   0
       617    749.3862     80.3544 307.6168086  +6.6661273     3300.573     4945.672     5028.508     77.06658     154.8131     309.6879      1.631     4.56     814.9335     54.62556     500.6623        24     1.565     0.901  31.26   0
       618    736.3356     79.8241 307.6222495  +6.6659114     595.1275     1136.578     1745.562     77.31399      154.998     309.8112      3.170     5.54     814.9171     54.62556     103.3546         9     1.373     0.630  39.52   0
       619    511.6833     78.2408 307.7156550  +6.6590714     1094.921     1541.633     1972.169     77.68362     155.0596      309.842      1.487     4.76     815.7422     54.62556      200.458        10     1.412     0.487  40.10   0
       620     27.4508     78.3248 307.9168611  +6.6428252     924.5979     1326.042     992.3873     77.68362     155.0596     309.9037      1.601     5.22     825.3287     54.62556     121.6648        10     1.195     0.645  35.55   0
       621    631.8725     77.7874 307.6657266  +6.6632698     563.0023     660.6566     875.3734     77.19038      154.628     309.7188      1.546     3.81     815.1455     54.62556     125.3843         6     1.126     0.459  46.78   0
       622    404.0083     76.5945 307.7604526  +6.6561531     996.6816     1603.606     1436.076     77.06658     154.8131     309.7496      1.674     5.23     818.7571     54.62556     175.7704        11     1.534     0.517  47.42   0
       623     42.9227     77.1930 307.9104704  +6.6438115     3051.782     4983.905     4740.974     77.31399     154.5044     309.7188      1.654     4.97     824.5322     54.62556     394.0356        24     1.639     0.825  36.00   0
       624    566.7277     73.8933 307.6929270  +6.6627035     1270.824     2080.487     1819.382      77.5606     155.1212     309.9653      1.636     5.49     815.2779     54.62556      203.457        15     1.650     0.576  41.50   0
       625    744.2321     67.9970 307.6193621  +6.6710561     2058.363     3311.427      3680.84     76.94258     154.8131     309.6879      1.691     4.54     814.5533     54.62556      308.399        20     1.559     0.781  40.94   0
       626    384.6709     67.9810 307.7687759  +6.6590616     1100.163     1688.525     1477.553     77.31399     154.8748      309.842      1.545     5.03     820.1128     54.62556      179.741        11     1.400     0.511  41.40   0
       627     57.5532     68.3397 307.9046884  +6.6479564     753.0529     1169.589     1111.346     77.56061      154.998     309.9653      1.767     4.73     823.4141     54.62556     111.1885         8     1.185     0.535  67.30   0
       628     81.6109     66.9187 307.8947398  +6.6493500      815.321     1646.022     1873.704     77.31399     154.7514     309.7496      2.221     5.23     822.4534     54.62556     117.3691        10     1.467     0.527  32.23   0
       629     70.7119     61.6739 307.8994443  +6.6511490     9122.905     14658.33     15225.84     77.68362     155.3058     309.9653      1.714     4.63     822.6754     54.62556     1232.385        37     1.690     0.948  38.30   0
       630    399.7957     61.3552 307.7627126  +6.6623021     2661.006     4209.048      4222.24     77.06658     154.6897     309.5954      1.669     4.45     819.1223     54.62556     389.8772        23     1.587     0.818  40.20   0
       631    220.6484     60.6280 307.8371780  +6.6566069     679.5687     982.9655     763.5433     77.31399     155.0596      309.842      1.752     4.64     822.2448     54.62556     104.2309         7     1.250     0.489  41.49   0
       632    237.2547     55.5167 307.8304488  +6.6592727     1572.485     2363.985     3562.035     77.68362      154.998     310.0269      1.783     4.60     822.3458     54.62556     216.8234        16     1.430     0.722  44.93   0
       633    613.5012     53.5767 307.6741684  +6.6726498     18534.21     28332.99     29515.97     77.80644     154.7514     309.7188      1.673     4.56     814.7075     54.62556     2762.467        43     1.691     0.909  38.52   0
       634    410.4472     52.6616 307.7585771  +6.6662463     1609.412     1807.235      2028.22     77.56061     154.9364     309.9653      0.819     1.74     818.4266     54.62556     691.8107         5     0.674     0.337  34.74   0
       635    513.2904     49.6640 307.7159415  +6.6709199     5130.939     7972.583     8201.527     77.56061     155.1828     309.9345      1.673     4.27     815.3257     54.62556     716.8958        30     1.611     0.865  37.56   0
       636    599.7593     44.0902 307.6801954  +6.6761068     2916.979     5490.671     7073.242     77.68362      154.998     309.9345      2.281     6.66     814.5582     54.62556     500.6467        37     2.295     0.979  59.35   0
       637    239.3754     45.6472 307.8298981  +6.6634172     9218.176     14449.56     15441.61     77.31399      154.998     309.7804      1.695     4.62     822.1966     54.62556     1271.052        37     1.713     0.902  40.20   0
       638    418.8118     45.2674 307.7553485  +6.6695778     22266.28     35005.86     36743.84     77.19038     154.8748     309.8112      1.663     4.41     817.8363     54.62556     3091.394        47     1.719     0.929  39.97   0
       639    298.6396     45.8563 307.8052649  +6.6653151     981.9748     1719.428     2368.549     77.68362     155.0596     309.8729      2.470     5.89     823.1091     54.62556     157.0263        11     1.621     0.602  49.70   0
       640      4.7800     45.4255 307.9273851  +6.6556425     2240.801     3411.712     3650.976     77.31399     154.8131     281.1811      1.677     4.49     823.4542     54.62556     300.7847        21     1.518     0.854  40.25  16
       641    896.7397     45.2687 307.5567427  +6.6855139      1810.49     2846.455     2874.034     77.80644     154.9364     309.9037      1.734     4.85     813.8301     54.62556     246.4283        17     1.543     0.693  35.96   0
       642    231.5265     49.9051 307.8330170  +6.6613970     1781.238     2891.273     3537.147      77.5606     155.1828     309.9037      1.885     4.73     822.1448     54.62556     239.7649        19     1.536     0.788  35.98   1
       643    531.7599     44.8789 307.7084263  +6.6735116     686.3635      968.367     1048.189      77.5606      154.998     309.8729      1.422     3.81     814.9624     54.62556      141.677         6     0.967     0.430  53.55   0
       644    227.3472     42.3658 307.8350061  +6.6643687     2856.431     4700.673     5314.114     77.56061      154.998     309.8112      1.794     4.47     821.8762     54.62556     410.5699        24     1.661     0.772  43.58   0
       645    280.0531     40.1207 307.8131802  +6.6670602     1061.193      1743.32     2354.039     77.68362      154.998     309.9037      1.943     5.64     822.9683     54.62556     162.4531        12     1.455     0.616  52.76   0
       646    917.1919     35.3785 307.5485724  +6.6902763     922.8618     1389.914      659.634     77.31399     154.8131     309.6879      1.690     6.07     812.8918     54.62556     127.8815        14     1.571     0.659  30.42   0
       647    668.6171     34.7642 307.6518921  +6.6822527     1794.582     2704.672     2465.753     77.19038     154.8131     309.6879      1.613     4.95     813.5883     54.62556     278.0519        16     1.534     0.656  37.97   0
       648    179.8280     30.5758 307.8551467  +6.6676428     718.8066     1147.451     1231.506     77.19038     154.8748     309.7496      1.863     5.03     821.2827     54.62556     118.3965         8     1.536     0.467  44.39   0
       649    234.0953     29.8286 307.8326219  +6.6697692     669.7574     1100.601      1170.98     77.80643     154.7514      309.842      1.600     5.69     821.7825     54.62556     130.0704         9     1.543     0.592  19.65   0
       650    156.8463     27.6993 307.8647927  +6.6680597     10436.03     16277.42     16889.14     77.68362     154.8748     310.1193      1.665     4.49     821.0971     54.62556     1460.286        35     1.697     0.867  38.27   0
       651    902.5461     25.3738 307.5549915  +6.6939186      3986.56     6197.309      6171.62     77.31399     155.1212     309.7804      1.730     4.30     812.9619     54.62556     608.4592        28     1.674     0.839  42.97   0
       652    501.0283     25.7809 307.7218346  +6.6803678     2836.487     4440.321     4260.292     77.31399     154.8131      309.842      1.572     4.39     815.1929     54.62556     437.6295        22     1.529     0.854  45.26   0
       653    703.4456     23.9440 307.6377794  +6.6878797     1973.802     3080.989      3116.43     77.68362      154.998     309.9037      1.578     4.86     813.2026     54.62556     302.4727        19     1.629     0.729  35.87   0
       654    439.2805     24.2594 307.7475449  +6.6789328     1899.871     2860.208     2488.839     77.80644      154.998     309.9037      1.549     4.26     817.0881     54.62556     320.6897        15     1.283     0.744  44.43   0
       655    967.1555     21.4468 307.5282720  +6.6976877     1884.624     3416.765     4014.474     77.68362     154.9364     309.8729      2.000     4.88      810.001     54.62556     248.3909        26     1.656     1.071  37.97   0
       656    762.2983     20.9793 307.6134209  +6.6910643     680.8127      1039.38     942.9015      77.5606     154.8131     309.6879      1.643     4.16     813.0392     54.62556      106.627         7     1.176     0.420  32.12   0
       657    710.3348   1021.0745 307.6017083  +6.2765397     874.5095     1418.123     1205.166     77.80643     152.4513      270.837      1.912     5.65     842.9666     54.62556     115.1954        11     1.400     0.642  38.11  16
       658    341.5797   1019.7679 307.7548680  +6.2647757     1530.953     2637.177     2563.404     77.19038     154.8131     286.1962      1.850     5.46     846.8724     54.62556     202.9121        15     1.436     0.746  42.82  16
       659    308.7719     16.9312 307.8020225  +6.6775926      940.748     1427.653     1648.263     77.43739      154.998      309.842      1.672     4.73     823.2969     54.62556     160.1245        10     1.356     0.557  34.51   0
       660    523.8018   1009.8142 307.6795377  +6.2749694     3914.219     6976.909     7466.354     77.31399     154.6897     309.6879      1.846     4.45     846.6984     54.62556     471.0986        34     1.646     1.076  40.74   3
       661    362.5291     15.6248 307.7797276  +6.6799304     624.5161     751.0098     361.5984     77.31399     154.8748      309.842      1.506     4.00     822.6912     54.62556     124.0653         6     0.986     0.464  35.23   0
       662    521.0893   1001.9427 307.6809264  +6.2781278     7720.148     12908.44     13878.41      77.5606     154.9364     310.0269      1.797     4.27     846.5501     54.62556     944.4115        43     1.805     1.045  37.44   2
       663    494.4141   1011.0312 307.6916997  +6.2734864     884.1299     1453.805     1600.426     77.31399     154.7514      309.842      1.617     5.73     846.6355     54.62556     135.4878        11     1.412     0.655  49.63   0
       664    728.4707   1009.1209 307.5945753  +6.2820775     6938.518     11904.63     13290.71     77.92906     155.2443     309.8729      1.872     4.43     842.5707     54.62556     841.8315        37     1.765     1.036  33.97   0
       665    274.0648   1008.5012 307.7832776  +6.2671685     13380.71     22783.03     24975.64     77.68362     155.0596     309.9345      1.863     4.32     846.0484     54.62556     1653.956        60     1.746     1.424  26.78   0
       666    789.5908   1008.5446 307.5692150  +6.2843500     1000.922     1664.584     1964.351     77.06658     154.9364     309.6262      1.784     6.76     842.2471     54.62556     127.7689        15     1.327     0.967  44.51   0
       667    398.4962   1008.8195 307.7316009  +6.2711965      935.254     1259.617      1015.34     77.56061     154.8131     309.6879      1.464     4.19     846.5197     54.62556     146.2653         9     0.987     0.701  40.42   0
       668    245.5069   1006.0868 307.7952160  +6.2672098     858.8183     1307.757     1388.287     77.68362     155.4287     309.9961      1.856     5.56     844.8068     54.62556     152.6035        12     1.402     0.930  45.85   0
       669    889.7441   1002.5375 307.5278265  +6.2901608     7275.416      13257.5     14153.45     77.80644      154.998     309.9037      1.962     4.73     841.6627     54.62556     836.5264        47     1.864     1.223  40.10   0
       670    863.4471    998.8029 307.5388703  +6.2908279     10090.81     19346.92     21569.38     77.06658     154.6897     309.5337      2.069     4.96     841.8518     54.62556     1243.935        63     1.946     1.404  29.99   0
       671    985.1304    998.0780 307.4883653  +6.2951712     3795.212     7350.808     7783.158     77.92906     155.2443     309.8729      2.082     4.99     839.3262     54.62556     414.8327        44     1.824     1.351  36.62   0
       672    575.8839    999.0144 307.6582715  +6.2811643       1102.6     2145.454     2469.657     77.31399     154.7514     309.7496      2.126     6.51     845.8532     54.62556     153.9061        15     1.600     0.826  43.24   0
       673    507.6938    997.8450 307.6866253  +6.2793722     3662.282     6539.453     7137.766      77.5606     154.9364     310.0269      1.984     5.23     846.4701     54.62556      458.562        35     2.020     0.963  27.07   0
       674    617.0099    996.9164 307.6412644  +6.2834015     1246.685     1955.778      1958.81     77.31399     154.6897     309.7496      1.565     5.63     844.9315     54.62556     183.6539        16     1.640     0.730  37.59   0
       675     42.0153    996.2775 307.8800354  +6.2644436     894.7609     1377.815     950.3051     77.31399     154.6897     309.7496      1.640     5.53     841.9164     54.62556     138.6125        11     1.342     0.643  29.06   0
       676    460.7441    994.3902 307.7062354  +6.2792310      1971.74     3007.593     3166.254     77.06658     154.9364     309.5954      1.676     4.40     846.3094     54.62556     289.1515        21     1.547     0.877  29.17   0
       677    895.1185    986.2869 307.5261346  +6.2970471     36063.98      66613.8     72044.07     77.43739     155.2443     310.0269      1.983     4.71     841.3419     54.62556     4266.836        80     1.969     1.309  37.65   0
