#   1 NUMBER                 Running object number                                     
#   2 X_IMAGE                Object position along x                                    [pixel]
#   3 Y_IMAGE                Object position along y                                    [pixel]
#   4 ALPHA_J2000            Right ascension of barycenter (J2000)                      [deg]
#   5 DELTA_J2000            Declination of barycenter (J2000)                          [deg]
#   6 FLUX_APER              Flux vector within fixed circular aperture(s)              [count]
#   9 FLUXERR_APER           RMS error vector for aperture flux(es)                     [count]
#  12 FLUX_RADIUS            Fraction-of-light radii                                    [pixel]
#  13 FWHM_IMAGE             FWHM assuming a gaussian core                              [pixel]
#  14 BACKGROUND             Background at centroid position                            [count]
#  15 THRESHOLD              Detection threshold above background                       [count]
#  16 FLUX_MAX               Peak flux above background                                 [count]
#  17 ISOAREA_IMAGE          Isophotal area above Analysis threshold                    [pixel**2]
#  18 A_IMAGE                Profile RMS along major axis                               [pixel]
#  19 B_IMAGE                Profile RMS along minor axis                               [pixel]
#  20 THETA_IMAGE            Position angle (CCW/x)                                     [deg]
#  21 FLAGS                  Extraction flags                                          
         1      2.8423     76.7512 307.9331275  +6.6324401     7279.427     19592.53      30675.9     78.07063       143.66     257.5492      4.261     9.15     844.9899      54.8977     1505.435       177     5.113     2.150 -87.01  24
         2    434.7076     21.1897 307.7555818  +6.6698154     24866.55     35239.84     36117.99     77.82318     155.3983     311.2617      1.481     3.65     831.7618      54.8977     4187.828        42     1.500     0.899 -38.55   0
         3    243.1275     18.3462 307.8352682  +6.6645945     3351.525      4998.18      5203.05     77.94701     155.6464     311.3857      1.518     3.66     839.2232      54.8977     496.5045        22     1.452     0.781 -40.57   0
         4     58.7556     12.5690 307.9120566  +6.6608135     427.6577     653.7391     146.9888     77.69916     155.8321     311.3237      1.728     5.50      839.604      54.8977     86.24817         7     1.367     0.625  76.37   0
         5    933.2874     11.1783 307.5487734  +6.6905323        986.1      1424.96     1992.026     78.07063     155.5844     311.3237      1.492     3.68      824.091      54.8977     146.0986        10     1.037     0.664 -53.31   0
         6    684.5065     10.7638 307.6521489  +6.6824397      2078.85     2737.333     3013.029     78.19406     155.6464     311.5405      1.494     3.93     827.1552      54.8977     290.4984        16     1.322     0.743 -44.55   0
         7     89.0737     11.4996 307.8994974  +6.6622698     610.6727     779.1649     454.3008     77.57494      155.894     311.3857      1.470     4.94     838.3096      54.8977     97.30725         7     1.186     0.582 -39.66   0
         8    195.4389      6.7693 307.8554682  +6.6677808     984.8398     1248.435     1249.665     77.69916     155.5224     302.0152      1.431     5.28     838.7155      54.8977     131.9764        11     1.247     0.632 -45.53  16
         9    250.4310      5.6700 307.8326590  +6.6700726     847.4265     1064.815     761.0457     77.94701     155.7702     292.2126      1.239     3.31     839.1083      54.8977     162.5757         7     0.980     0.509 -42.89  16
        10    172.7449      3.6929 307.8649994  +6.6682923     11679.69     16768.05     16859.53     77.94701     151.5017     269.3727      1.502     3.58     838.4927      54.8977      1876.64        32     1.506     0.891 -38.62  24
        11    918.1250      1.7616 307.5553867  +6.6939177     3517.011     4499.084     4720.119     72.83003     130.0601     241.1503      1.298     3.55     824.0343      54.8977     637.7766        17     1.287     0.693 -17.83  24
        12    516.9139      1.9392 307.7220726  +6.6805044     3228.539      4076.53     4076.396     74.78993     132.7026     244.0522      1.314     3.34     828.9802      54.8977     626.1946        15     1.171     0.694 -24.17  24
        13    718.4189      1.2275 307.6383776  +6.6875052     1000.699     1000.888     1097.713     66.46024     122.1841      232.476      1.072     2.89     827.1671      54.8977     250.1745         7     1.070     0.416  -3.22  24
        14    454.2078      1.1851 307.7481497  +6.6787258     1024.202     1215.793     1375.826     65.14116     121.1536     231.6449      1.166     3.51     830.7604      54.8977     287.3829         7     1.115     0.366  -7.07  24
        15    433.6692    998.9988 307.7233170  +6.2660213      942.175     1225.367     1178.568     77.57494     155.3362     311.2927      1.677     5.45     861.6196      54.8977     127.2178        11     1.154     0.783 -44.38   0
        16    752.7791   1023.0574 307.5900428  +6.2667030     854.1722     1305.434     1243.913     74.14239     132.4116     243.9732      1.601     5.64     859.5437      54.8977     120.1019        12     1.224     0.731  -9.69  24
        17    576.9001   1021.0665 307.6631215  +6.2616781       148085     240925.9     250764.3     78.07063     153.3995     272.2926      1.729     3.73     861.2178      54.8977     18632.11        90     1.747     1.222 -33.63  27
        18    578.6088   1013.8836 307.6626518  +6.2647010     69258.37     113519.9     121236.4     77.69916     155.4604     311.2927      1.761     3.74     861.1444      54.8977     8398.469        75     1.741     1.197 -37.21  19
        19    211.2316   1023.2721 307.8148422  +6.2485786     2814.419      3724.44     3813.557     72.43169       129.54     240.6298      1.371     4.32     860.3965      54.8977     441.6217        16     1.374     0.707 -18.21  24
        20    726.5319    996.9307 307.6018092  +6.2766196     977.5479     1456.357     1106.511     78.07063      155.894     311.4166      1.649     4.85     859.5074      54.8977     140.4152        13     1.252     0.897 -53.50   0
        21    357.5973    995.5114 307.7550128  +6.2649256     1931.488     2932.928     3158.449     77.45052     155.4604     311.1688      1.610     3.99     860.9292      54.8977     240.1142        19     1.360     0.866 -23.57   0
        22    695.5129    991.9074 307.6148538  +6.2776632     568.4444     878.2952     1153.752     78.07063      156.203     311.5405      2.052     4.18     859.8432      54.8977     99.38934         6     1.301     0.382 -75.00   0
        23    540.0171    985.7063 307.6796127  +6.2750519     4145.671     6712.978      7230.01     77.82318     155.5844     311.3237      1.698     3.63     861.1579      54.8977     513.9119        31     1.570     1.023 -44.08   0
        24    744.4524    985.0515 307.5947653  +6.2821203     7525.714     12315.09     13278.29     78.19406     155.6464     311.4785      1.782     3.83     858.7252      54.8977      894.401        40     1.609     1.149 -36.23   0
        25    510.0830    987.1467 307.6919913  +6.2734605     1092.085     1660.361     959.9986     78.07063     155.7702     311.5714      1.569     4.30     861.7492      54.8977     157.4266        10     1.085     0.652 -20.22   0
        26    290.1712    984.3987 307.7833745  +6.2672651     14686.78     23256.93     25350.78     77.57494     155.5844     311.2617      1.721     3.76     860.5039      54.8977     1933.074        54     1.939     1.048 -35.80   0
        27    115.9579    985.1724 307.8556673  +6.2611276     465.4276     583.7307     421.4588     77.69916     155.7702     311.3237      1.447     4.64     857.3922      54.8977     85.79779         7     1.621     0.376 -36.41   0
        28    805.6279    984.0358 307.5694024  +6.2845713     1004.679     1583.978     1317.644     77.69916     155.5224     311.2617      1.797     6.34     857.0325      54.8977     135.3804        13     1.322     0.854 -35.26   0
        29    414.3043    984.9354 307.7318258  +6.2711831      928.395         1236     1396.759     78.07063      155.894     311.4785      1.560     5.02     860.8724      54.8977     120.3802        11     1.177     0.655 -15.22   0
        30    261.7944    981.8320 307.7952402  +6.2673779     889.3585     1326.389     1045.106     77.45052     155.5844     311.2307      1.500     4.87     859.9884      54.8977     135.3824         9     1.251     0.537 -28.82   0
        31    905.8411    978.4398 307.5279851  +6.2902075     7388.144     13825.35     14456.79     77.82318     155.8321     311.3237      1.988     4.34     855.3783      54.8977     841.8579        47     1.729     1.319 -40.57   0
        32    537.0624    977.8791 307.6811006  +6.2781856     8257.445     13099.03     14406.09     78.19406     155.8321     311.4476      1.690     3.54     861.1544      54.8977     1077.796        40     1.581     1.103 -38.40   0
        33    879.3250    974.6073 307.5391208  +6.2909105     10837.55     19613.39     21554.77     77.69916     155.2741     311.3237      1.948     4.16     855.9595      54.8977      1254.82        53     1.775     1.332 -38.39   0
        34   1001.0688    973.9775 307.4885992  +6.2952069     3970.578     7802.106     8262.722     77.69916     155.7083     311.4166      2.048     4.48     853.1777      54.8977     455.9042        37     1.645     1.283 -40.73   0
        35    592.1497    975.0349 307.6583266  +6.2811932     1364.532     2321.212     2103.684     77.94701     155.7702     311.3547      1.790     5.36     860.6403      54.8977     188.7885        16     1.391     0.848 -42.75   0
        36    523.7064    973.7838 307.6867818  +6.2794320     4060.918     6608.894     7453.896     77.82318     155.5844     311.2927      1.821     3.83     861.3213      54.8977     511.8617        33     1.688     1.137 -22.95   0
        37    632.8025    972.9212 307.6415204  +6.2834183      1398.87     2536.595     1828.368     77.45052     155.2741     311.2307      1.860     4.76     860.1862      54.8977     168.1041        20     1.414     1.002 -35.88   0
        38     58.2160    972.4186 307.8800642  +6.2644632     833.2437     1161.591     1228.954     77.82318     155.5224     311.3857      1.497     4.60     856.3038      54.8977     128.6536         8     1.179     0.510 -21.75   0
        39    476.5976    970.1815 307.7064587  +6.2793507     2234.992     3418.438     3224.532     77.69916     155.3362     311.1997      1.618     3.92     861.7836      54.8977     329.0257        21     1.440     0.857 -34.91   0
        40    911.1152    962.1583 307.5263370  +6.2971056     37912.68     68125.87      72949.6     78.07063     155.6464     311.4166      1.925     4.11       854.94      54.8977     4330.594        76     1.800     1.360 -41.41   0
        41    218.3379    960.7328 307.8139864  +6.2746394     1640.958      2546.82     2195.446     78.07063     155.7083     311.4476      1.628     4.22     858.7854      54.8977     222.1953        17     1.321     0.898 -42.50   0
        42    617.4064    958.6404 307.6483882  +6.2888032      977.288      1392.95     1070.311     77.45052     155.4604     311.1378      1.605     4.34     860.1485      54.8977     153.4646        11     1.143     0.784 -73.70   0
        43    106.5662    959.7869 307.8604169  +6.2712957     677.2005      1012.37      820.281     77.57494     155.5224     311.3547      1.532     3.99     856.4016      54.8977     108.8556         6     1.019     0.455 -30.71   0
        44    809.1737    955.9005 307.5688669  +6.2963070     2217.842     3729.902     4596.672     78.07063     155.5224     311.3547      1.811     3.75     856.7368      54.8977     277.8433        23     1.394     0.974 -48.23   0
        45    757.2800    953.8196 307.5904802  +6.2954430     6316.741     10583.53     11417.81     77.69916     155.4604     311.4166      1.789     3.95     857.5256      54.8977     772.7358        37     1.608     1.133 -36.53   0
        46    544.2121    953.5308 307.6789451  +6.2884776      772.151       1184.3     862.6249     77.57494     155.5844     311.2927      1.663     5.21     860.9113      54.8977     116.3221        10     1.202     0.661 -37.84   0
        47    226.6096    953.0460 307.8108099  +6.2780897     1505.048      2355.55     1887.612     77.57494     155.6464     311.1378      1.620     3.93     858.7428      54.8977     218.9429        14     1.181     0.844 -48.84   0
        48    190.9842    952.7628 307.8256085  +6.2770169     849.5402     1296.011     1313.032     77.69916     155.5844     311.1997      1.528     4.78     858.0505      54.8977     113.5148         8     1.016     0.639   5.00   0
        49     51.5955    951.3018 307.8835207  +6.2729612     2823.107     4229.803     4459.686     77.82318     155.4604     311.1378      1.666     3.70     855.6417      54.8977      390.946        23     1.388     0.961 -25.71   0
        50    945.4758    948.9217 307.5125119  +6.3037108     5956.947     10771.94     11805.62      78.3173     156.0177     311.5405      1.940     4.16     854.0527      54.8977     640.0605        41     1.603     1.318 -33.65   0
        51    201.8183    944.7471 307.8213794  +6.2806885     709.7228     991.0482      940.366     77.57494     155.8321     311.2307      1.394     4.57     858.0178      54.8977     100.7967         8     1.069     0.554 -57.76   0
        52    627.7349    943.2039 307.6446152  +6.2955208     789.4111     1200.031     759.4249      77.3259     155.5224     311.2307      1.636     6.05     859.6868      54.8977     107.8802        10     1.370     0.752 -62.67   0
        53    919.2710    940.5018 307.5236712  +6.3063188     1892.174      3175.22     3176.316     77.94701     155.9559     311.4476      1.764     4.66     854.3597      54.8977     241.9058        22     1.458     1.099 -36.54   0
        54    639.8403    936.6035 307.6398097  +6.2986489     4416.605     6994.529     7088.653      77.3259     155.5224     311.1688      1.671     3.79     859.3465      54.8977     560.3826        29     1.530     1.013 -38.19   0
        55    252.1385    936.9799 307.8007500  +6.2855759     4507.771      6637.69     6518.646     77.69916     155.7702     311.3547      1.558     3.59     858.5651      54.8977     627.2513        27     1.462     0.938 -32.58   0
        56    778.7281    936.9601 307.5821373  +6.3031172     1233.838     1914.194     1767.997     77.94701     155.7702     311.5095      1.617     4.17     856.8987      54.8977     153.1639        13     1.073     0.880  -2.80   0
        57    462.2202    934.9853 307.7136031  +6.2934052     1195.861     1930.641     1825.181     77.82318     155.5224     311.3547      1.666     3.96     860.5438      54.8977     181.8214        14     1.281     0.842 -43.71   0
        58     20.7034    934.5435 307.8969068  +6.2788475     2157.397     3350.912     3300.696     77.94701     155.7083     311.6642      1.621     4.05     854.8752      54.8977     298.8589        20     1.408     0.869 -32.74   0
        59    871.4114    933.2769 307.5437812  +6.3077147     803.4758     1346.572     957.5161     77.69916     155.3983     311.2927      1.776     3.45     855.1475      54.8977     134.6627         8     0.953     0.779 -30.17   0
        60    288.2202    930.5891 307.7859850  +6.2894191     953.6188     1408.507     1490.981     77.69916     155.4604     311.3237      1.555     4.00     858.6313      54.8977      193.574        11     1.094     0.914 -31.76   0
        61    943.1133    929.8689 307.5141261  +6.3115001     630.0223     1217.423     1470.939     78.19406     156.0177     311.4785      2.059     2.95     853.8083      54.8977     130.6802         6     0.810     0.617 -87.75   0
        62    564.8422    929.1320 307.6711948  +6.2992392     1593.625     2221.061     1950.295     78.07063     155.7083     311.5095      1.510     3.97     860.4775      54.8977     198.9318        16     1.242     0.823 -32.45   0
        63    996.5654    926.1769 307.4920571  +6.3147964     1387.145     2222.265     1892.171     77.57494     155.5224     311.2307      1.427     4.35      853.103      54.8977      964.037         9     1.969     0.274 -72.48   0
        64     53.8850    926.1497 307.8834139  +6.2834234     761.9725     1005.617     1146.351     78.07063     155.7083     311.5095      1.480     5.51     854.8914      54.8977     126.8849         8     1.111     0.771  87.60   0
        65    603.5964    925.4436 307.6552288  +6.3020517     1237.842      1859.43     2002.223     77.45052     155.3983     311.1068      1.600     4.76     859.8034      54.8977     174.9832        12     1.213     0.771 -46.82   0
        66    283.6584    923.3641 307.7881206  +6.2922502     1619.166     2475.304     3009.559     78.07063     155.7702     311.4476      1.699     5.15     858.4115      54.8977     214.8848        19     1.559     0.876 -28.10   0
        67    551.8752    921.5283 307.6768319  +6.3019474      736.899     1219.457     1098.765      78.3173     156.0177     311.4476      1.985     4.69     860.4339      54.8977     121.0353         8     1.004     0.795 -16.10   0
        68    750.5560    919.1743 307.5944257  +6.3095258     818.2995     1215.986     1024.804     77.69916     155.8321     311.3237      1.542     5.99     856.8009      54.8977     107.6299        12     1.144     1.051 -52.46   0
        69    888.1796    915.7703 307.5374019  +6.3155000     6278.599     10792.02     11645.76     77.57494     155.5844     311.3547      1.832     4.03     854.6251      54.8977     780.3165        38     1.664     1.177 -36.17   0
        70    125.9953    917.3787 307.8537729  +6.2894561     615.8004     982.4082     394.9411     77.69916     155.5224     311.2617      1.658     4.58     855.5507      54.8977      109.139         7     1.115     0.534 -29.25   0
        71    424.1085    913.2063 307.7301528  +6.3011285     2067.135     3085.715     3302.991     77.69916     155.4604     311.2617      1.569     3.90     859.2065      54.8977      320.385        15     1.286     0.777 -27.97   0
        72    325.6382    911.5405 307.7710885  +6.2985331     10266.09     15146.75     15830.53     78.07063     155.8321     311.4785      1.596     3.51     858.3779      54.8977     1439.703        34     1.542     0.936 -37.85   0
        73    245.6863    910.4959 307.8043152  +6.2962963     7150.542     10514.67     10901.91     78.07063     156.1413     311.5095      1.585     3.43     857.8134      54.8977     1014.808        28     1.453     0.922 -38.07   0
        74    758.4305    904.1321 307.5916575  +6.3159988      707.769      1337.52      1583.64     77.94701     155.7702     311.4166      2.206     6.46      856.589      54.8977     106.5652        12     1.314     0.892 -33.99   0
        75    574.1702    904.6483 307.6681393  +6.3096596     1155.197     1628.228     1507.116     77.69916     155.8321     311.3547      1.539     3.49     859.6464      54.8977     180.0707        14     1.106     0.839 -32.30   0
        76    136.6427    901.3751 307.8498892  +6.2964200     604.6971     794.1211      1053.42     77.69916     155.7083     311.2617      1.389     5.26     855.4122      54.8977     110.1154         7     1.134     0.690 -54.78   0
        77    903.4766    900.7589 307.5315503  +6.3222062     897.6914     1378.113     1661.213     77.94701     155.7702     311.4785      1.750     3.16     854.1942      54.8977     148.6464        10     1.050     0.622 -47.75   0
        78    402.1985    899.6211 307.7397030  +6.3060079     633.0015     1015.651     1294.798     77.69916     155.4604     311.1688      1.810     4.55     858.6791      54.8977     103.6573         7     0.983     0.598 -51.65   0
        79    860.4376    899.4971 307.5494611  +6.3212994     879.7429     1365.034     904.9639     78.07063     155.6464     311.6024      1.546     4.14     855.0559      54.8977     122.1252         8     1.043     0.500   0.84   0
        80    971.2949    897.0889 307.5035155  +6.3259703      705.705      1232.76      1273.63     78.07063      156.203     311.5095      1.988     5.50     852.5149      54.8977     109.1381         7     1.083     0.789 -15.64   0
        81    740.0866    894.0602 307.5996089  +6.3195484      1679.92     2582.149     2824.907     78.19406      155.894     311.5714      1.606     4.17     856.7489      54.8977     238.2586        20     1.404     0.924 -35.26   0
        82    563.6454    894.7393 307.6728395  +6.3134011     724.4121     940.9277     724.3035     77.94701     155.7083     311.5095      1.481     3.56      859.427      54.8977     125.6639         7     0.846     0.678 -19.92   0
        83    604.0764    890.7642 307.6561865  +6.3163878     805.6268     1226.025     977.3181       77.947     155.8321     311.4785      1.551     4.24     859.0573      54.8977     131.2711         9     1.134     0.576 -27.12   0
        84    971.2211    889.7090 307.5037914  +6.3290153     1089.398     2074.897     2303.943     77.94701     155.5844     311.2927      1.968     6.44     852.2986      54.8977     143.7769        15     1.540     0.755 -26.37   0
        85    525.3569    889.9765 307.6888946  +6.3140932      1198.49     1705.072     1488.153     77.57494     155.6464     311.2617      1.395     3.70      859.316      54.8977     192.0699        11     1.102     0.668 -21.56   0
        86    658.7574    887.4070 307.6335964  +6.3195927     2554.743     3796.922     4037.103     77.57494     155.5224     311.1688      1.612     3.60     858.0317      54.8977     386.7103        20     1.325     0.890 -37.54   0
        87    949.6094    885.0068 307.5129205  +6.3302406     611.4437     1019.183     896.3788     77.57494     155.5844     311.2927      1.873     5.50     852.8134      54.8977       81.328         9     1.357     0.628 -54.41   0
        88     55.3552    883.7051 307.8842273  +6.3009985     2831.904     4595.844     5019.026     78.07063     155.7083     311.5714      1.799     4.04      853.548      54.8977     365.2645        23     1.461     0.961 -37.37   0
        89    819.3751    883.7088 307.5670349  +6.3264560     782.9859      1217.65     1356.997     78.19406     155.5224     311.2927      1.799     5.53     855.4072      54.8977     111.7196         8     1.075     0.803 -49.46   0
        90    198.8209    882.6359 307.8247041  +6.3062352     2355.012     3621.985     3814.542     77.57494     155.5844     311.1997      1.651     3.86     856.3788      54.8977     344.4973        21     1.417     0.863 -33.58   0
        91     72.9341    883.0446 307.8769518  +6.3018591      1936.46     2712.061     2436.939     78.07063     155.7083     311.4785      1.494     3.97     853.7125      54.8977     282.1925        18     1.360     0.807 -39.06   0
        92    937.0533    882.5574 307.5182151  +6.3308357     795.0335     1357.012     1286.206     78.07063     155.7702     311.4476      1.904     5.45     853.1992      54.8977     115.1875         8     1.179     0.711  -4.32   0
        93    232.7616    879.5129 307.8107182  +6.3086582     859.9183     1046.493     641.8016     78.07063     155.7083     311.4476      1.364     4.03     856.8749      54.8977     148.6095         9     1.114     0.575 -34.11   0
        94    653.3555    876.5031 307.6362028  +6.3239156     7361.467     10753.85     11332.05     78.07063     155.7083     311.6024      1.598     3.46     857.9577      54.8977     955.8077        30     1.462     0.941 -39.52   0
        95    337.5164    878.7384 307.7672545  +6.3124740     953.2448     1538.875     2029.239     78.19406     155.7702     311.4785      1.884     6.28     857.6162      54.8977     113.7611        14     1.484     0.745 -31.34   0
        96    790.8574    877.2188 307.5790909  +6.3281892     697.4597     1120.916      1297.56     77.69916     155.7083     311.2617      1.563     5.03     855.6462      54.8977     129.0063         8     1.144     0.626 -43.05   0
        97    891.0280    872.9498 307.5376437  +6.3332766     2580.163     4278.761     4334.106     77.69916      155.894     311.3856      1.745     4.29     854.2238      54.8977     309.7635        29     1.594     1.091 -50.82   0
        98     13.3786    875.0199 307.9019448  +6.3031804     1251.478     1877.135      1330.81     77.82318     155.7083     311.3857      1.539     3.64     852.7911      54.8977     191.7676        13     1.116     0.769 -17.40   0
        99    442.8649    874.1588 307.7236708  +6.3178772      623.175     799.6404     249.9917     78.07063     155.7083     311.5405      1.480     3.99     858.3887      54.8977     93.23169         6     0.782     0.582 -60.79   0
       100     26.1597    873.4825 307.8966905  +6.3042428     1189.156     2113.605     2049.857     78.07063     155.8321     311.3857      1.896     4.40     852.8698      54.8977     192.4958        13     1.358     0.724 -43.09   0
       101    766.1926    873.4114 307.5894581  +6.3289422     486.6442     668.2622     465.7252     77.69916     155.5844     311.3547      1.448     3.46     856.0901      54.8977     72.20874         5     0.759     0.455  17.96   0
       102     71.1032    871.1071 307.8781122  +6.3067271     1334.538     2218.308     2459.135     78.07063     156.2647     311.3856      1.642     4.61     853.3085      54.8977     191.9679        18     1.446     0.905 -53.67   0
       103    336.3337    869.7828 307.7680451  +6.3161325     16840.04     25159.31     26910.83     77.57494     155.7083     311.3237      1.579     3.59     857.3939      54.8977     2429.559        42     1.556     0.979 -36.72   0
       104    206.9904    869.1696 307.8217636  +6.3120686     1256.563     1944.569     1902.419     77.57494     155.5844     311.2617      1.666     3.64     856.1818      54.8977     205.2878        16     1.194     0.907 -34.46   0
       105    386.8161    868.8467 307.7471179  +6.3182025     623.3275     739.0519     189.8138     77.57494     155.6464     311.2307      1.265     3.37     857.8184      54.8977     113.3578         5     0.982     0.334 -45.82   0
       106     99.5841    860.6855 307.8666379  +6.3119826     1921.733     2901.854     3269.489     77.69916     155.5224     311.3547      1.729     3.75     853.4571      54.8977      267.976        18     1.370     0.824 -41.42   0
       107    414.0003    860.4763 307.7361118  +6.3225651     1206.296     1725.292     1506.008      77.3259     155.1499     311.2307      1.510     4.04     857.9004      54.8977     147.7031        12     1.217     0.769 -30.55   0
       108    667.6406    856.9673 307.6309232  +6.3324575     918.3906     1391.521      1822.33     77.82318     155.6464     311.2927      1.810     5.66      857.387      54.8977     123.9381        12     1.420     0.636 -39.32   0
       109    494.4654    857.3289 307.7028100  +6.3265457     736.7236     979.5924     941.7087     78.07063     155.8321     311.4476      1.311     4.15     857.9453      54.8977     128.9195         7     0.998     0.493 -29.64   0
       110    881.4903    854.3502 307.5422224  +6.3406406     1853.581     2939.331     2871.549     78.07063     155.5844     311.6333      1.735     4.35     854.1133      54.8977     206.4283        20     1.391     0.940 -33.45   0
       111    852.2318    853.8741 307.5543862  +6.3398663     2053.057     3112.008     3267.265       77.947     155.7702     311.4476      1.635     3.77     854.6199      54.8977       319.48        22     1.449     0.935 -36.53   0
       112    815.4950    853.4324 307.5696537  +6.3388294     3119.714     5078.711     5351.632     78.19406     155.6464     311.5405      1.770     3.90     854.9341      54.8977     416.0272        30     1.658     0.997 -37.61   0
       113     83.2255    853.9943 307.8736536  +6.3141985     2407.144     3775.462     4404.714     77.57494     155.5844     311.2927      1.749     4.10     853.1069      54.8977     339.9655        21     1.429     0.871 -37.64   0
       114    551.4666    844.9046 307.6795592  +6.3335738     353864.5       515921     537926.4     78.07063     155.9559     311.4785      1.553     3.66     857.8235      54.8977     49927.43       163     1.680     1.183 -37.27   4
       115    446.6211    851.0396 307.7228839  +6.3275488      556.283     723.5652     663.8772     77.69916     155.5844     311.2307      1.659     3.77     857.6436      54.8977      94.0968         5     1.274     0.320 -40.49   0
       116    451.8681    848.5989 307.7207870  +6.3287315     455.1819     722.6537      233.198     77.45052     155.3362     311.2617      1.804     4.12     857.5821      54.8977     87.51318         6     0.751     0.645 -55.94   0
       117    395.6516    847.5595 307.7441614  +6.3272871     8223.155      11812.5     12041.08     78.07063     155.7702     311.4166      1.571     3.45     857.2011      54.8977     1175.638        30     1.494     0.900 -37.63   0
       118    639.2743    847.6855 307.6430100  +6.3353470      1226.95     1782.966     1441.875     78.19406     156.0795     311.4785      1.524     4.93      857.731      54.8977     167.0908        10     1.207     0.614 -34.38   0
       119    338.8398    845.9510 307.7678019  +6.3260568     13267.99     19800.59     20536.93     78.07063     155.7702     311.3856      1.568     3.42     856.6009      54.8977     2089.071        43     1.573     1.017 -36.69   0
       120    889.5275    840.9452 307.5393314  +6.3464427     5066.083      8387.53     9653.505       77.947     155.6464     311.3857      1.898     4.04      853.549      54.8977     627.0397        37     1.821     1.145 -21.74   0
       121    657.4407    842.0948 307.6356540  +6.3382597     3842.494     5686.938     5969.179     78.07063     155.7083     311.5405      1.556     3.56      857.374      54.8977     531.4487        25     1.475     0.859 -35.23   0
       122    728.9856    838.6719 307.6060634  +6.3420512     868.4493     1281.109     1323.836     77.57494     155.6464     311.3237      1.695     4.85      856.392      54.8977     138.9371        10     1.065     0.908 -40.09   0
       123   1022.7657    835.2283 307.4842008  +6.3532205     3809.443     5685.279     5698.098     76.57393     136.2879     248.4386      1.613     4.23     849.2669      54.8977     455.4344        24     1.397     1.003 -66.15  24
       124    632.1541    836.1782 307.6463501  +6.3398619     3470.754     5324.267     5802.515     77.69916     155.7702     311.2927      1.618     3.72     857.6595      54.8977     482.3971        27     1.428     1.044 -27.77   0
       125    820.7884    835.1639 307.5680641  +6.3465488      1623.43     2693.719      2694.27     77.57494     155.5844     311.1378      1.827     4.46      854.637      54.8977     215.3589        18     1.403     0.832 -21.22   0
       126    622.5056    835.1097 307.6503916  +6.3399822     992.5632     1526.836     2038.283     78.07063     156.2647     311.4476      1.541     3.42     857.7742      54.8977     177.1732         8     1.036     0.513 -37.81   3
       127    624.9800    830.8848 307.6495052  +6.3418091     2119.243     3603.406     4322.331     77.69916     155.4604     311.3856      1.851     4.27     857.6828      54.8977     348.9789        20     1.536     0.927 -35.23   2
       128    947.7980    833.7385 307.5153772  +6.3513511     850.0368     1420.228     1299.051     77.45052     155.5844     311.1688      1.739     5.58     851.7045      54.8977      101.591        10     1.052     0.835 -44.45   0
       129    908.6294    828.7091 307.5318073  +6.3521290     2931.196     4745.226     4814.654     78.19406     155.5224     311.3857      1.711     3.95     852.7141      54.8977     388.3109        26     1.521     0.950 -41.14   0
       130    318.8391    829.6035 307.7766525  +6.3321398     998.8432     1373.077      1234.05     77.20108     155.5224     311.1997      1.419     3.61     856.2158      54.8977     167.1721         9     1.071     0.586 -35.39   0
       131    366.8235    824.8625 307.7568891  +6.3356980     2797.592     3957.033     4258.947     77.69916     155.7702     311.3547      1.486     3.55     855.9145      54.8977     468.4396        17     1.282     0.730 -39.91   0
       132    847.6562    813.8453 307.5576182  +6.3562438     1060.315     1672.388      2015.53     78.07063     155.7702     311.4476      1.751     4.65     853.8651      54.8977     175.1125        13     1.418     0.770 -38.50   0
       133    502.9717    814.5235 307.7007080  +6.3445044     3205.144     4778.884     4697.412       77.947     155.7702     311.4476      1.519     3.47     856.6249      54.8977     512.2735        21     1.368     0.885 -35.89   0
       134    568.3624    812.5749 307.6736233  +6.3474861     892.1494     1366.708     1420.992     77.69916     155.5844     311.2307      1.601     4.37     857.0081      54.8977     133.8582        10     1.145     0.751 -43.50   0
       135    549.8140    810.6993 307.6813871  +6.3476432     6391.712     9316.636     9515.809     77.94701     155.5224     311.1688      1.548     3.64     856.6808      54.8977     936.4589        26     1.437     0.871 -40.34   0
       136    556.7272    810.4592 307.6785249  +6.3479724      1298.38     2020.101      2509.84     78.19406     155.7702     311.4476      1.913     4.76     856.7545      54.8977     191.7256        16     1.470     0.750 -26.44   1
       137    261.7145    810.6833 307.8010025  +6.3380459     652.4274     1003.275      1044.38     77.82318     155.9559     311.5405      1.590     4.33     855.7216      54.8977     91.49713         5     0.934     0.572 -52.92   0
       138    885.5844    808.8464 307.5420365  +6.3595665     1391.497     2242.171     2384.022     77.57494     155.5844     311.1998      1.663     4.27     852.8206      54.8977     185.4209        17     1.324     0.855 -30.35   0
       139    467.7852    809.6406 307.7154802  +6.3453487         1595     2182.917     1929.755     77.57494     155.5844     311.2307      1.465     4.01     856.3354      54.8977     231.9158        13     1.226     0.684 -38.05   0
       140    109.2658    809.0705 307.8643491  +6.3336189     1407.518     2322.695     2346.691     78.07063     155.8321     311.4476      1.575     4.24     852.9429      54.8977     232.3419        13     1.287     0.658 -36.24   0
       141    685.6827    807.9196 307.6250675  +6.3533107     790.0178     996.2751     662.9473     78.07063     156.0177     311.5095      1.458     5.02     856.5619      54.8977     115.8895         7     1.025     0.696 -21.60   0
       142    520.5505    804.5797 307.6937415  +6.3491959      21168.8     30377.14     31279.81     77.57494     155.8321     311.3237      1.544     3.53     856.3411      54.8977     2949.518        40     1.476     0.981 -37.41   0
       143    361.5247    806.6749 307.7596974  +6.3430314     719.7983     932.2243     836.1121      78.3173     156.0177     311.5405      1.492     4.34     855.1465      54.8977     120.7335         7     1.028     0.522 -33.25   0
       144    934.2199    802.7505 307.5220453  +6.3636969     3712.684     6220.935     6471.519     77.57494     155.8321     311.2927      1.795     3.91     851.2531      54.8977     463.7494        31     1.549     1.076 -36.94   0
       145    167.2332    804.1830 307.8404466  +6.3375745     546.4543     472.6713     328.1215     77.69916     155.5844     311.3237      1.360     3.47     853.6575      54.8977      74.4165         5     0.997     0.348 -44.25   0
       146     53.9928    801.5857 307.8875477  +6.3348611     583.9735     873.0568     1404.514     77.69916     155.5224     311.2927      2.300     5.11     851.8254      54.8977     88.97156         8     1.132     0.653 -31.66   0
       147    688.5455    796.6014 307.6242562  +6.3580795        531.9     819.9553      767.335     77.45052     155.5224     311.1068      1.627     5.65      856.236      54.8977      85.7644         5     1.285     0.699 -42.59   0
       148     31.0650    795.2966 307.8972776  +6.3366908     1698.949     2290.097       2154.8     78.07063      155.894     311.4785      1.479     3.55     851.2855      54.8977     238.1062        17     1.262     0.824 -37.08   0
       149    313.1748    793.3697 307.7802166  +6.3469126     3489.244     5181.804     5329.246     77.57494     155.5844     311.2927      1.496     3.73     855.1239      54.8977     524.4587        21     1.452     0.789 -37.13   0
       150    235.4926    765.6824 307.8133963  +6.3557522     745179.1      1607593      1763251     77.82318     156.0795     311.5405      2.234     7.22     853.8942      54.8977      62477.5       618     2.788     2.196 -76.47   4
       151     13.0838    791.7585 307.9048615  +6.3375501     2328.412     3322.854     3747.559     78.07063     155.7083     311.3857      1.446     3.84     850.9399      54.8977     325.0237        18     1.295     0.858 -41.75   0
       152    778.7025    789.0629 307.5870735  +6.3641880     55901.34     84737.02     88389.93     77.94701      155.894     311.5095      1.614     3.52     854.6259      54.8977     7983.461        70     1.607     1.109 -36.79   0
       153    717.4531    790.9534 307.6124419  +6.3613725     673.3633     1301.112     1818.051     78.07063     155.7702     311.4785      2.159     4.60     855.5902      54.8977     100.6489         7     1.017     0.590 -33.53   0
       154    422.0233    787.8699 307.7352077  +6.3528134     936.8428     1443.393     1377.448     77.69916     155.6464     311.4166      1.555     3.86     855.1886      54.8977     156.8649        12     1.179     0.806 -29.04   0
       155    903.9551    784.2172 307.5352281  +6.3703463     8257.581      13392.7     14810.12     77.69916     155.6464     311.2307      1.750     3.68     851.7524      54.8977     1094.979        37     1.571     1.081 -39.05   0
       156    706.9697    783.6893 307.6170368  +6.3640237     22276.74     33576.01     36258.61     78.19406     155.5844     311.3857      1.591     3.58     855.3912      54.8977     3183.597        50     1.564     1.060 -37.67   3
       157    700.6484    780.1802 307.6197784  +6.3652626     91449.03     135685.8     141223.5     77.57494     155.8321     311.2617      1.570     3.56     855.2682      54.8977     13851.03        80     1.616     1.075 -38.20   3
       158    345.5596    781.1892 307.7671784  +6.3530225     22066.17      32145.7     33152.54     77.45052     155.5844     311.1998      1.520     3.55      854.248      54.8977         3429        49     1.560     1.002 -33.11   0
       159    407.3791    779.0184 307.7415838  +6.3559803     23603.54     34262.57     35244.29     77.82318     155.7083     311.3547      1.524     3.54     854.6749      54.8977     3500.813        45     1.529     0.964 -36.90   0
       160    394.6551    781.3721 307.7467881  +6.3545842     1601.928     2209.516     2266.322     77.69916     155.8321     311.2927      1.387     3.52     854.6248      54.8977      255.189        14     1.200     0.740 -34.08   0
       161    634.2634    780.7744 307.6473223  +6.3628100     958.7675     1342.781     1303.226     77.69916     155.7702     311.3857      1.602     4.52     855.9163      54.8977     141.5286         8     1.180     0.492 -43.75   0
       162    944.5942    777.4980 307.5185775  +6.3744686     2091.706     3418.581     3172.184     77.82318     155.3983     311.2307      1.762     4.57     850.7467      54.8977     247.4555        23     1.502     1.005 -44.25   0
       163    900.8779    775.7090 307.5367889  +6.3737575     6624.522      10282.2     10921.53     77.82318     156.0177     311.4785      1.669     3.57     851.6727      54.8977      875.915        30     1.481     0.997 -33.04   0
       164    873.5969    776.4078 307.5480933  +6.3725639     610.9849     855.4174     647.6113     77.45052     155.4604     311.2927      1.527     4.20     852.2867      54.8977     114.0543         5     1.025     0.693 -28.39   0
       165    641.5526    774.7764 307.6444958  +6.3655292      6854.81     10175.17     10711.49     77.69916     155.7702     311.3237      1.564     3.58     855.5036      54.8977     961.0345        31     1.451     0.979 -38.88   0
       166    430.1414    773.1648 307.7323287  +6.3591561     1742.995     2388.232     2173.939       77.947     155.7702     311.4476      1.420     3.49     854.5557      54.8977     277.0728        15     1.198     0.784 -46.37   0
       167    155.2703    772.5391 307.8464738  +6.3502411     869.1988      1246.71     1600.272     78.19406     155.7702     311.4785      1.581     4.66     852.7005      54.8977     111.2806        11     1.242     0.723 -41.86   0
       168    479.4457    771.5359 307.7119119  +6.3614715     445.4986     833.9916     482.2547     78.07063     155.7083     311.4785      2.047     4.26     854.6216      54.8977     75.43951         6     1.525     0.339 -36.34   0
       169   1023.6641    767.2259 307.4860872  +6.3813310     648.3527     827.9855     1039.919     67.46836     123.6747     234.2942      1.280     3.39     849.3173      54.8977     122.2224         5     0.766     0.433 -72.65  24
       170    869.9346    766.5076 307.5499433  +6.3765305      758.296     1361.094     1472.182       77.947     155.9559     311.4476      1.963     5.27     852.1184      54.8977     118.0687         8     1.195     0.658 -56.33   0
       171    594.4455    766.9172 307.6643174  +6.3672074     1026.768     1160.376     1671.881     78.07063     155.7702     311.4476      1.545     4.86     855.0891      54.8977     142.0846         9     1.142     0.585 -27.54   0
       172    676.5474    764.8599 307.6302962  +6.3707876      2456.68     3421.473     3806.749     78.07063     155.7083     311.4476      1.502     3.88     854.7358      54.8977     355.3345        17     1.434     0.716 -37.15   0
       173    145.6985    765.8927 307.8506707  +6.3526656     1013.438     1317.148      1277.83     78.07063     156.3264     311.3857      1.338     4.06     852.4072      54.8977     158.8293        10     0.960     0.711 -15.49   0
       174    120.6896    765.4772 307.8610679  +6.3520012     1048.091     1568.995     1165.653     77.94701     156.0177     311.5095      1.755     5.10     852.0135      54.8977     146.6952        10     1.222     0.602 -31.95   0
       175    410.3160    761.6631 307.7409447  +6.3632447      57238.6     82463.63     85924.88     78.19406     155.8321     311.4166      1.535     3.53     854.0017      54.8977     8683.947        63     1.573     1.009 -35.27   0
       176    954.3817    763.1536 307.5149905  +6.3807164     658.9133     1338.357     1297.236     77.57494     155.7083     311.1997      1.927     6.45     850.4847      54.8977     127.5094        11     1.740     0.672  -6.32   0
       177    528.0074    760.6600 307.6921120  +6.3675798     7435.039     10871.54     10861.01     77.45052     155.5844     311.2307      1.516     3.55     854.3105      54.8977     1239.154        30     1.465     0.888 -36.04   0
       178    444.8944    759.3234 307.7266658  +6.3653632     4911.489     7318.099     8311.324     77.82318      155.894     311.4476      1.537     3.38     853.9385      54.8977     760.8911        28     1.420     0.953 -32.37   0
       179    773.3063    757.1861 307.5903759  +6.3771718     11641.09     17476.35     18087.65     77.82318     155.5224     311.2927      1.591     3.68     853.6902      54.8977     1599.652        37     1.536     0.979 -39.00   0
       180    900.9236    754.9019 307.5374621  +6.3823510     6998.684     7248.643     7190.644     77.69916     156.0177     311.4785      0.541     0.00     851.2652      54.8977     4307.919         9     0.491     0.450  49.92   0
       181      2.6155    753.7102 307.9104848  +6.3529103     1266.096     1782.599     1700.345     77.82318     141.0177     254.3464      1.517     5.70     850.7467      54.8977       166.27        13     1.343     0.682 -34.58  24
       182    441.4069    752.6923 307.7283354  +6.3679852     2492.513     3639.089     4332.378     77.69916     155.4604     311.2617      1.581     4.12     853.6602      54.8977     372.9878        16     1.366     0.713 -38.94   0
       183    795.0839    751.3045 307.5815292  +6.3803237     1322.796     1997.931     1684.053     77.94701     156.1413     311.5405      1.610     4.80     853.3579      54.8977     175.1509        12     1.241     0.649 -31.34   0
       184    139.0850    749.7626 307.8539572  +6.3591049     3198.124     4712.255     5139.196     78.07063     155.7702     311.4476      1.519     3.90     851.9119      54.8977     458.8474        19     1.395     0.774 -38.46   0
       185    130.9695    749.3672 307.8573399  +6.3589969     12254.78     18279.06     19726.88     77.57494     155.5224     311.1688      1.564     3.57     851.7568      54.8977     1797.841        42     1.571     1.001 -30.97   0
       186    967.8956    745.7817 307.5099566  +6.3883379     1273.932     2134.384     2588.092       77.947     155.5844     311.2307      2.146     6.75     850.1829      54.8977     155.7418        19     1.528     0.973 -44.71   0
       187    918.7935    745.7829 307.5303453  +6.3867093     6122.124     9583.568     10332.97     77.69916     155.5224     311.2927      1.691     3.66     850.8449      54.8977     804.9344        37     1.620     1.049 -34.06   0
       188    123.0455    746.8358 307.8607148  +6.3597773     2953.882     4425.791     4907.233     77.82318     155.7083     311.3856      1.537     3.48     851.5741      54.8977     479.2201        21     1.369     0.817 -36.86   0
       189    674.3003    743.5091 307.6319412  +6.3795294     1845.813      2589.48     2938.604     78.07063     156.1413     311.4166      1.512     3.47     853.6544      54.8977     313.6091        16     1.254     0.739 -32.33   0
       190    561.1153    742.6887 307.6789652  +6.3761029     2445.647     3468.281     3553.629     77.82318     156.0177     311.5405      1.478     3.29     853.5936      54.8977     403.8757        18     1.322     0.771 -33.62   0
       191    408.9022    742.6634 307.7421669  +6.3710430     1156.573     1748.424      1856.39     77.94701      155.894     311.4785      1.667     4.05     853.2095      54.8977     189.8254        11     1.168     0.613 -36.07   0
       192    692.2663    741.3016 307.6245549  +6.3810382     570.7758     1072.525     1511.461     78.07063     155.8321     311.4476      2.116     4.09     853.4471      54.8977     109.4611         5     1.093     0.489 -59.24   0
       193    123.2919    740.2433 307.8608335  +6.3625076     2077.735     3043.378     3366.342     78.07063     155.7702     311.5714      1.580     3.92     851.3917      54.8977     336.0233        18     1.357     0.784 -40.62   0
       194    942.3961    737.1943 307.5208305  +6.3910386     2965.972      4797.74     5257.015     77.45052     155.4604     311.3237      1.806     3.96      850.455      54.8977     350.4455        27     1.502     1.000 -37.08   0
       195    913.0632    737.7156 307.5329931  +6.3898505     3180.245     4842.623     4725.586     78.19406      155.894     311.4166      1.664     3.46     850.8006      54.8977     417.9491        26     1.471     0.974 -36.76   0
       196    973.5293    736.8704 307.5079136  +6.3922045     1820.672      2777.05     2665.754     78.07063      155.894     311.4166      1.607     3.76     850.0729      54.8977     235.8858        16     1.215     0.850 -38.21   0
       197    665.3804    736.8921 307.6358656  +6.3819651     1525.605     2349.254     2489.293     77.94701     155.5224     311.3237      1.631     4.11     853.2885      54.8977     214.3755        15     1.314     0.774 -35.34   0
       198    812.4421    735.3420 307.5748532  +6.3874916     1156.948     1665.713     1966.729     77.94701     155.7702     311.5095      1.605     4.71     852.6246      54.8977     193.0102        13     1.452     0.591 -41.00   0
       199    888.1473    732.6838 307.5435065  +6.3911018     733.7186     1064.181     1470.449     78.07063     155.7702     311.5714      1.595     4.25     850.9882      54.8977     120.8305         9     1.046     0.820 -33.47   0
       200    237.8808    732.1324 307.8135284  +6.3696854     2064.045     3033.044     3860.926     78.19406     156.0177     311.4785      1.521     3.48     852.5339      54.8977     328.2576        17     1.286     0.777 -36.70   0
       201    755.9661    732.2728 307.5984060  +6.3868833       497.98     751.5298     759.2609     77.94701     155.7083     311.4166      1.503     3.92     853.0085      54.8977     83.48383         5     0.858     0.512 -51.38   0
       202    675.3215    728.9377 307.6320031  +6.3855803     822.3043     1389.993     1811.668      78.3173     155.8321     311.4476      1.834     5.25     853.1761      54.8977     99.69586        11     1.083     0.719 -14.30   0
       203    930.8763    727.1191 307.5259489  +6.3948170     1093.443     1709.257     2014.594      78.3173     156.0177     311.5714      1.652     5.52     850.4115      54.8977      158.098        12     1.323     0.736 -39.78   0
       204    153.2968    727.3853 307.8488067  +6.3688199     820.9985     1127.758     981.4734     77.82318     155.5224     311.2307      1.351     4.54     851.3652      54.8977     134.1346         8     1.292     0.453 -37.86   0
       205    904.8073    725.8390 307.5368164  +6.3944810     1144.812     1738.588     1197.138     77.45052     155.5224     311.1688      1.592     4.10     850.6809      54.8977     186.6122        12     1.175     0.772 -47.69   0
       206    258.0148    727.3813 307.8053277  +6.3723195     588.3181     697.1354     728.0817     77.82318     155.5224     311.3547      1.426     4.14     852.3263      54.8977       111.86         6     0.794     0.617 -51.28   0
       207    957.3350    724.9881 307.5150332  +6.3965743     2442.764     3849.417     4229.121     77.57494     155.5844     311.3237      1.669     3.52     850.0479      54.8977     325.3956        22     1.263     1.022 -32.40   0
       208    677.2319    724.1295 307.6313701  +6.3876293     1044.891      1564.36     1852.376       77.947     155.7702     311.4476      1.686     3.95     853.1039      54.8977     196.9241         9     1.240     0.542 -29.02   0
       209    999.1459    718.4268 307.4978897  +6.4006696     1432.942     2266.108      1492.65     77.82318      155.894     311.3857      1.653     4.90     849.3668      54.8977     167.9971        16     1.424     0.885 -49.74   0
       210    468.2568    719.7791 307.7182869  +6.3824705     798.6304     868.1505     655.4009     77.69916     155.7702     311.2617      1.304     4.36     852.4412      54.8977     162.2141         8     1.075     0.504 -36.92   0
       211    397.7011    719.7250 307.7475847  +6.3801414     626.1481     788.0787     1193.392     77.57494      155.894     311.3547      1.308     3.76     852.3383      54.8977     133.6305         6     1.021     0.398 -12.41   0
       212    800.6028    716.8759 307.5803842  +6.3947237     1219.769     1798.695     1866.693     77.57494     155.2741     311.3547      1.508     3.99     852.3997      54.8977     174.0961        13     1.246     0.690 -37.24   0
       213    625.4880    718.0274 307.6530592  +6.3884282     757.6846     1015.351     1101.327     78.19406     155.5224     311.3547      1.607     3.52     853.0182      54.8977     123.9044         8     1.122     0.493 -29.23   0
       214    886.8647    714.3113 307.5446504  +6.3986459     1485.477     2339.957     2545.592     78.07063     155.9559     311.4476      1.659     4.32     850.6683      54.8977     178.5018        17     1.293     0.964 -65.39   0
       215    860.9807    709.4688 307.5555596  +6.3997867     990.4878     1383.391     1372.942     77.69916     155.6464     311.3857      1.547     5.21     850.9054      54.8977     129.8872        12     1.242     0.764 -25.03   0
       216    843.4319    705.7088 307.5629718  +6.4007569     1498.752     2305.551     2396.242     78.19406     155.5844     311.4785      1.629     3.77      851.223      54.8977     198.3932        14     1.193     0.751 -30.35   0
       217    106.6051    701.6948 307.8690545  +6.3778671     798.1381     1687.031     1795.698     77.82318     155.4604     311.1998      2.632     4.53     850.0122      54.8977     108.6082         8     0.879     0.767 -89.00   2
       218     42.6160    704.7947 307.8955188  +6.3744467     2676.959     3738.081     3901.619     77.69916     155.4604     311.2927      1.499     3.70     850.0162      54.8977     397.4515        20     1.328     0.857 -43.16   0
       219    455.2160    703.7785 307.7242364  +6.3886431     423.3698     613.3837     191.2365     77.69916     155.4604     311.3857      1.430     4.53     852.0401      54.8977     92.59296         7     1.358     0.430 -57.82   0
       220    560.4635    699.6343 307.6806732  +6.3938596      700.209     999.0737     1037.693     77.94701     155.8321     311.4476      1.406     2.92     852.6648      54.8977     133.6829         5     0.885     0.477 -78.80   0
       221    655.3677    693.1028 307.6414836  +6.3997142     6671.357     9514.536      9959.79     78.19406     155.6464     311.5405      1.469     3.49     852.6822      54.8977     1009.519        29     1.404     0.918 -43.55   0
       222    601.9857    692.5504 307.6636682  +6.3981666     1470.726     2031.964     2439.968     77.45052     155.7083     311.1688      1.500     3.45     852.6371      54.8977     241.9033        14     1.204     0.728 -41.90   0
       223    523.8091    693.0766 307.6961122  +6.3953471     655.7928     1024.274     825.7814     77.69916     155.2741     311.2617      1.375     3.91     852.2858      54.8977     102.1261         6     0.898     0.488 -53.41   0
       224    512.7979    692.8387 307.7006924  +6.3950786     883.7994      1351.07      1123.92     77.20108     155.5224     311.2307      1.566     4.50      852.166      54.8977     169.4355        11     1.312     0.697 -30.32   0
       225    629.2248    688.6999 307.6524860  +6.4006628     2086.073     2923.919     3013.325     78.19406     155.5224     311.2927      1.466     4.21     852.6085      54.8977     323.3646        18     1.415     0.751 -40.16   0
       226    305.6815    689.2061 307.7868139  +6.3896739     638.5077     1179.579      1019.51     77.69916     155.3362     311.2307      1.757     6.43     850.5457      54.8977     113.4869        11     1.460     0.855 -15.70   0
       227    992.4715    688.1509 307.5016676  +6.4129504     2564.435     3922.209     3899.641     78.07063     155.7702     311.4785      1.633     3.64     848.8267      54.8977     312.2336        23     1.362     0.963 -35.70   0
       228    241.0424    688.6977 307.8136703  +6.3877260     601.2151     761.0933     764.7937     78.07063     155.6464     311.6642      1.327     2.99     849.9584      54.8977     129.2938         5     0.800     0.481 -61.49   0
       229    772.3060    685.1521 307.5931910  +6.4068838      20639.3     30580.23      31821.3     77.94701     155.6464     311.5714      1.552     3.63     851.9062      54.8977     2894.806        45     1.573     0.993 -40.89   0
       230    499.7060    685.3174 307.7063798  +6.3977484     1025.553     1331.183     1077.167     77.82318     156.0795     311.5714      1.468     4.36     851.8546      54.8977     174.8759        11     1.180     0.735 -62.44   0
       231    902.2762    684.9562 307.5392276  +6.4112790     3666.312      5833.54      6225.96     77.94701     155.8321     311.4785      1.689     3.55     850.0004      54.8977     498.0231        27     1.527     0.969 -38.30   0
       232    471.4245    685.5734 307.7181146  +6.3967005     1491.681     2138.971     1808.209     77.57494     155.5844     311.3237      1.497     4.23     851.6274      54.8977     224.2723        14     1.243     0.734 -33.50   0
       233    118.3164    689.2151 307.8646104  +6.3834117     4005.582     5918.887     6149.117     77.69916     155.4604     311.3237      1.549     3.80     849.6178      54.8977     570.8177        26     1.442     0.902 -32.38   0
       234    543.2007    684.2222 307.6883559  +6.3996490      504.362     679.2466      773.297     77.69916     155.4604     311.1688      1.429     3.52      852.333      54.8977     84.08685         5     1.023     0.349 -45.27   0
       235    652.7775    678.0674 307.6430607  +6.4058366     7291.641     10630.58      10980.1     77.69916     155.7083     311.4166      1.523     3.80     852.4737      54.8977     1174.552        29     1.419     0.957 -32.49   0
       236    245.7264    678.9681 307.8120513  +6.3919000     6599.754     9572.424     10089.12     77.94701     155.7702     311.4476      1.493     3.68     849.4267      54.8977      1110.89        26     1.444     0.842 -36.42   0
       237    635.0453    679.0251 307.6503919  +6.4048513     930.3979     1481.143     1158.292     77.57494     155.8321     311.3237      1.647     5.55      852.472      54.8977      150.156        12     1.416     0.681 -28.99   0
       238    347.7964    678.0105 307.7697015  +6.3957020     872.7773     1209.162     971.3906     77.69916     155.4604     311.3547      1.392     4.81     850.0487      54.8977     167.0485         9     1.287     0.554 -55.64   0
       239    912.6588    670.5447 307.5353956  +6.4175744     1303.973     2001.724     1870.111     78.19406     155.7702     311.4476      1.624     4.58     849.6227      54.8977     180.0021        14     1.396     0.690 -46.72   0
       240    724.5710    666.4549 307.6136359  +6.4130185     3870.417     6029.266      6413.68     77.82318     155.8321     311.3547      1.687     3.51     851.9304      54.8977     522.7121        29     1.495     0.983 -36.39   0
       241    679.4522    666.9526 307.6323548  +6.4113132      1064.25     1384.654     1359.464     78.19406     155.7083     311.4785      1.374     3.84     852.1113      54.8977     168.6533         9     1.086     0.552 -30.79   0
       242    990.8758    662.9214 307.5031689  +6.4233157     8771.446     13566.35     13913.92      78.3173     156.0177     311.5405      1.640     3.69     848.3116      54.8977     1082.864        36     1.534     1.050 -41.91   0
       243    929.3459    663.4471 307.5287023  +6.4210587     2549.379     3717.491     3997.189     78.07063     155.7702     311.4785      1.603     3.52     849.2291      54.8977     342.4101        18     1.238     0.868 -37.99   0
       244      9.9555    662.9415 307.9104844  +6.3906354     1900.689     3279.105     3777.276     77.94701     155.7083     311.5714      1.937     4.82     849.2719      54.8977     254.7595        22     1.647     0.951 -29.44  16
       245    426.8964    661.4092 307.7374119  +6.4051947     557.3981     693.1261      632.029     77.82318     155.3983     311.2617      1.466     3.87     850.5569      54.8977     98.95087         6     1.344     0.319 -42.19   0
       246     68.0737    658.0642 307.8865167  +6.3945941     27229.71     39739.51     41311.33     78.19406     155.7702     311.4476      1.508     3.51     849.1339      54.8977     4351.003        50     1.540     1.010 -38.64   0
       247    529.5016    658.8227 307.6948925  +6.4096810     2235.055      3226.81     3065.344     78.07063     155.5224     311.2617      1.521     3.80     851.5623      54.8977     342.8529        20     1.424     0.854 -41.31   0
       248    498.1046    656.2499 307.7080158  +6.4096978     1488.829     2214.935      2058.96     77.94701     155.7083     311.6024      1.521     4.20     851.1798      54.8977     220.0282        16     1.388     0.750 -46.41   0
       249    919.1607    654.8580 307.5332176  +6.4242677     1103.027     1659.979     1562.729     78.07063     155.8321     311.5095      1.559     4.91     849.1456      54.8977     145.4283        11     1.213     0.628 -26.65   0
       250    538.6240    652.7057 307.6913088  +6.4125106       1107.4     1539.466     1595.327     78.19406     155.5224     311.3237      1.509     4.11     851.4628      54.8977     188.7449        12     1.178     0.715 -40.68   0
       251    714.1000    650.1276 307.6185283  +6.4194126     3758.012      5404.41     5800.576     77.82318     156.0177     311.4785      1.462     3.58     851.2077      54.8977     580.9191        21     1.353     0.814 -40.51   0
       252    736.2325    648.3297 307.6093975  +6.4208905     4236.239     6092.281     5818.197     77.94701     155.7702     311.4785      1.482     3.58     851.0696      54.8977     629.8801        22     1.376     0.808 -35.41   0
       253    567.5572    646.2502 307.6795099  +6.4161395     3344.476     4929.813     5284.529     78.19406     155.7702     311.4476      1.581     3.95     851.2063      54.8977     502.4456        24     1.442     0.925 -42.98   0
       254    403.7361    646.9906 307.7475110  +6.4103764     1478.291     1868.151     1971.303     77.57494     155.5844     311.2617      1.420     3.93      849.562      54.8977     238.9083        11     1.154     0.640 -30.79   0
       255    311.8455    645.3636 307.7857220  +6.4079831     1543.369     2145.394     1669.456     77.82318     155.7702     311.3857      1.459     3.90     848.8113      54.8977      263.519        15     1.343     0.748 -41.02   0
       256    228.0909    646.0101 307.8204780  +6.4049201     1873.527     2798.823     3198.006     77.82318     155.3983     311.2307      1.483     4.26     848.3779      54.8977     290.5287        16     1.437     0.692 -31.25   0
       257   1009.0387    644.3593 307.4962435  +6.4315827     5005.386      7584.32     7390.757     77.82318     155.8321     311.3237      1.612     3.71     847.6668      54.8977     660.0681        29     1.468     1.009 -38.85   0
       258    974.4109    643.3301 307.5106576  +6.4308600     8103.611      12431.1     12893.04     77.57494     155.5844     311.2927      1.676     3.62     848.1031      54.8977     1009.107        34     1.473     1.055 -39.82   0
       259    528.1918    644.0971 307.6959282  +6.4157180     568.0458     848.2018     946.2968     77.82318     155.3983     311.2307      1.471     4.20     851.1063      54.8977     110.2587         7     1.361     0.370 -31.92   0
       260   1023.3535    641.7759 307.4903849  +6.4331238     647.9695     766.3226     623.9128     71.62836     128.4935     239.3036      1.077     3.49     847.4457      54.8977     127.5148         7     1.030     0.469 -58.39  24
       261    694.5079    641.9324 307.6269372  +6.4221454     1089.963     1461.579     1328.359       77.947      155.894     311.4785      1.491     4.96     850.8629      54.8977      160.778        11     1.067     0.758 -39.69   0
       262     85.7330    640.2689 307.8797812  +6.4025327     976.6154     1567.387     2160.717     78.07063     155.8321     311.4476      1.573     4.92     848.8997      54.8977     174.7356        12     1.313     0.705 -42.68   0
       263    419.8073    637.5490 307.7411533  +6.4148108     3074.664     4327.051     4570.562     77.57494     155.5844     311.0758      1.507     3.64     849.3257      54.8977     540.1041        22     1.544     0.748 -48.65   0
       264    132.8573    636.9376 307.8603258  +6.4054840     25557.84     36723.98     38203.54     78.19406     155.7083     311.4785      1.490     3.54     848.5479      54.8977      4254.86        46     1.523     0.935 -38.57   0
       265    801.0922    637.4496 307.5828264  +6.4275378     1333.225     1980.613      1536.22       77.947     155.6464     311.6024      1.515     3.80     850.1006      54.8977     190.6056        13     1.199     0.699 -40.72   0
       266    637.6259    637.0731 307.6507199  +6.4222605     466.0412     562.1807     430.5791     77.69916     155.6464     311.3857      1.058     4.33       850.64      54.8977     84.00354         7     1.087     0.491 -43.14   0
       267    352.1593    631.7028 307.7694392  +6.4149691     656.9899      1106.62     1126.559     78.07063     155.6464     311.6642      1.917     4.34      848.394      54.8977     130.8084         6     1.191     0.450 -49.74   0
       268    593.9581    631.6143 307.6690354  +6.4230618     449.9372     591.9222     543.3711     77.45052     155.5844     311.1997      1.670     4.40     850.4916      54.8977     89.94513         5     1.138     0.485   2.60   0
       269    969.3874    626.2593 307.5133113  +6.4377426     6534.236     11053.49     11099.31     77.45052     155.7083     311.1688      1.795     3.68     847.7698      54.8977     811.6578        39     1.504     1.237 -29.47   0
       270   1023.3337    621.8028 307.4910569  +6.4413707     52295.88     64463.75     66167.84     71.35857     128.6435     239.3439      1.227     3.36     847.0721      54.8977     10020.61        40     1.356     0.821 -82.66  24
       271     13.9431    625.6552 307.9100804  +6.4061649     1133.846     1634.342     1709.518     78.19406     155.8321     311.4785      1.499     4.15       849.35      54.8977     164.5684        11     1.151     0.708 -50.69   0
       272    562.9053    621.6064 307.6822644  +6.4261608     51854.48     73878.06     76535.21     77.82318     155.4604     311.2617      1.485     3.53     850.3394      54.8977     8616.863        61     1.532     0.971 -36.48   0
       273    205.9092    623.2549 307.8304509  +6.4135752     665.0114     884.2629     1134.599     77.94701     155.6464     311.5714      1.441     3.79     848.0706      54.8977      113.102         6     0.859     0.693 -61.89   0
       274    927.5740    623.0461 307.5307821  +6.4376830     649.0246     1059.124     1355.867     77.69916     155.8321     311.3237      1.905     4.79     848.1678      54.8977     105.3961         7     1.363     0.477 -44.50   0
       275    522.3292    621.6729 307.6991117  +6.4247824     719.3407     892.5002     1005.828      78.3173      155.894     311.4476      1.342     4.06     850.4509      54.8977     106.5342         7     1.073     0.439 -29.05   0
       276    170.3419    618.5359 307.8453779  +6.4143353     2718.332     3821.364     3879.114     78.19406     155.7083     311.4785      1.498     3.44      848.125      54.8977     452.1327        20     1.355     0.836 -45.60   0
       277    974.2241    617.5684 307.5115917  +6.4414918     687.9124     1091.867     1374.339     77.45052     155.6464     311.2617      1.510     4.81     847.5281      54.8977     130.7773         6     1.176     0.558 -47.24   0
       278    492.7457    618.3777 307.7115064  +6.4251577     566.9848     902.6958     520.0045     77.57494     155.7702     311.2617      1.543     4.16     850.2882      54.8977     112.4428         5     1.190     0.416 -40.13   0
       279     63.0835    612.5966 307.8901143  +6.4132013     1599.355     2492.636     2366.156     77.57494     155.3983     311.1688      1.534     3.66     848.8625      54.8977     289.4048        16     1.372     0.720 -47.44   0
       280    460.1309    605.4282 307.7254827  +6.4294183     68054.19     96893.13     100383.2     77.82318     155.7702     311.3857      1.490     3.60     849.1292      54.8977     10582.05        65     1.540     0.981 -39.66   0
       281      3.5360    607.1910 307.9150216  +6.4134406     1772.631     2489.093     2601.296     77.57494     150.0305     267.0354      1.501     3.58     849.4387      54.8977     289.5925        17     1.262     0.880 -40.68  24
       282    645.8511    602.4893 307.6484581  +6.4368148     970.5815     1294.969     1288.498     78.07063     155.5844     311.5714      1.469     3.58     848.9586      54.8977     149.6135        10     1.063     0.639 -40.44   0
       283    134.4622    600.5607 307.8608792  +6.4205582     1664.615     2180.146     1678.298     78.07063     155.7702     311.5095      1.453     4.18     848.0482      54.8977     284.6962        13     1.423     0.574 -44.73   0
       284    929.3502    598.3344 307.5308666  +6.4479463     658.3242     1019.774     1178.971     77.94701     155.6464     311.4476      1.919     4.12     847.2806      54.8977     97.00421         6     0.929     0.522 -43.56   0
       285    413.8766    597.9805 307.7449392  +6.4309519     803.5848     1027.675     465.8173     77.69916     155.4604     311.4166      1.328     4.81     847.3889      54.8977     143.1094         9     1.219     0.539 -45.49   0
       286    606.2284    596.9200 307.6650980  +6.4377963     984.8467     1517.064     1716.361       77.947     155.7083     311.3857      1.775     3.83     848.7704      54.8977     181.9403        11     1.249     0.605 -36.26   0
       287    314.4515    596.5905 307.7862724  +6.4282096     635.9005     954.5211     772.2901     77.57494     155.6464     311.1688      1.653     4.73     847.2384      54.8977     101.0611         7     0.905     0.700 -67.86   0
       288    305.7008    594.7424 307.7899680  +6.4286807     2200.923     3519.956      3808.13     77.82318     155.7702     311.6333      1.673     4.01     847.1812      54.8977     367.3804        22     1.648     0.871 -45.19   0
       289      6.1267    596.7615 307.9142960  +6.4178338     703.3364     857.4228     1174.229       77.947     155.7702     296.7321      1.435     5.18     849.1044      54.8977     114.2586        10     1.084     0.777 -38.73  16
       290    488.1857    596.5007 307.7141310  +6.4340394     595.2505     1018.174     1285.181     77.94701     155.5224     311.1688      2.013     4.39     849.4151      54.8977     97.71875         5     0.941     0.583 -45.29   0
       291    457.8483    593.0489 307.7268444  +6.4344539     860.1805     1174.616     1746.819     78.07063     155.6464     311.4476      1.416     4.15     848.4865      54.8977     179.3368         9     1.223     0.468 -33.94   0
       292    732.2186    588.9073 307.6130450  +6.4452946     5658.349     8241.411     8595.955       77.947     155.5224     311.3237      1.496     3.63     848.3735      54.8977     889.7698        26     1.458     0.826 -38.18   0
       293   1003.0905    584.7228 307.5006961  +6.4560116     1021.306     1645.964     1481.701     77.82318     156.0177     311.4476      1.709     6.47     845.7587      54.8977     137.5955        14     1.323     0.910 -25.64   0
       294    785.7622    584.1609 307.5909677  +6.4490334     14595.48     21087.43     21633.11     77.82318     155.6464     311.3237      1.500     3.64     848.2801      54.8977     2388.778        39     1.536     0.941 -35.13   0
       295   1023.6968    583.4755 307.4921800  +6.4572095     810.9971     984.8051     1413.244     67.32526     123.5967     233.9235      1.118     3.80     845.3813      54.8977     165.8699         6     0.906     0.456 -86.04  24
       296    609.6273    582.2289 307.6641769  +6.4439758     3096.655     4329.574     4258.267     77.57494     155.5844     311.2617      1.442     3.49     848.0635      54.8977     545.5571        18     1.310     0.762 -43.87   0
       297    528.3051    583.9882 307.6978889  +6.4405424     1289.351     2018.735     2410.934     77.82318     155.5224     311.2307      1.677     5.61     848.6863      54.8977     165.2626        11     1.246     0.711 -32.56   0
       298     30.4411    583.7855 307.9046355  +6.4240055      732.868     925.7851     1157.693     77.57494     155.5844     311.1998      1.315     4.49     848.5335      54.8977     128.6888         9     1.158     0.607 -36.34   0
       299    927.1620    578.1132 307.5324480  +6.4562237     1079.126     1608.353     1950.491     78.07063     155.7083     311.4476      1.461     4.06     846.4346      54.8977     190.6071        14     1.253     0.777 -31.65   0
       300    222.0774    575.9630 307.8253218  +6.4336429      1393.78      2113.38     2337.121     77.94701     155.8321     311.4476      1.619     4.92     846.7587      54.8977     169.9679        16     1.563     0.677 -37.25   0
       301     23.0288    577.6224 307.9079202  +6.4263023     329.3431     619.4709     1137.673     77.57494     155.5844     311.3237      2.752     3.85     848.4121      54.8977      72.4458         5     0.876     0.485   0.25   0
       302    368.2593    575.7321 307.7646263  +6.4386177     1089.435     1709.787     1724.751     78.19406     155.7083     311.4476      1.644     4.88     846.6121      54.8977     189.6862        13     1.453     0.620 -34.61   0
       303    352.2324    576.1790 307.7712668  +6.4378985     499.8892     464.8468     593.3727     77.57494     155.5844     311.2927      0.873     3.81     846.5942      54.8977     96.88428         5     0.894     0.465  43.46   0
       304    861.8132    567.4954 307.5599400  +6.4584401     2923.428      4247.85     4523.742     77.82318     155.5224     311.2617      1.506     3.69     847.5847      54.8977     393.3604        21     1.379     0.861 -34.96   0
       305    156.9206    567.2957 307.8526688  +6.4350447     861.9633     1097.666     732.3584     77.82318     156.0177     311.5095      1.351     4.47      847.041      54.8977     152.8236         8     1.189     0.478 -43.57   0
       306    820.4571    564.7694 307.5772055  +6.4581929     2642.469     3834.308     3931.946     77.94701     155.7702     311.3547      1.534     3.94     847.5706      54.8977     358.5792        21     1.490     0.801 -35.92   0
       307    791.2723    560.9382 307.5894532  +6.4588058     2583.466     4044.455     4884.959     78.19406     155.7702     311.5095      1.682     3.64      847.392      54.8977     375.1356        21     1.441     0.821 -38.37   3
       308    801.1033    556.0024 307.5855349  +6.4611705     166241.8       240640     250452.5     77.69916     155.4604     311.1378      1.488     3.60      847.252      54.8977      26935.8       116     1.625     1.104 -40.07   2
       309    733.9468    561.1993 307.6132510  +6.4567935     826.6379     1466.705      2559.52     77.45052     155.3983     311.0138      2.253     5.27     847.1154      54.8977     115.0928         9     1.361     0.577 -36.66   0
       310    248.4659    560.0062 307.8148984  +6.4411132     8379.943     11954.32     12562.06     77.57494     155.5224     311.2617      1.496     3.68     846.1968      54.8977      1265.72        29     1.483     0.877 -33.01   0
       311    182.7050    554.5392 307.8423893  +6.4411738     63318.45     90957.97     94837.23     77.94701     155.7702     311.5095      1.543     3.62     846.4701      54.8977     9263.387        67     1.578     1.016 -37.69   0
       312    106.7145    550.7891 307.8740706  +6.4401819     6580.175     9610.059     10218.35     77.69916     155.5224     311.2927      1.571     3.83     847.4177      54.8977     1001.757        32     1.562     0.896 -39.18   0
       313    971.9783    547.8865 307.5148415  +6.4701915     1399.159     2146.849     2161.682     78.07063     155.5224     311.3237      1.549     4.87     844.3201      54.8977     182.2189        15     1.446     0.714 -33.82   0
       314    221.1440    546.4000 307.8266999  +6.4458189     840.7474     1098.984     1479.663      77.3259     155.3983     311.1068      1.539     5.78     845.8032      54.8977     116.7028        13     1.284     0.742 -35.18   0
       315    992.8869    546.3992 307.5062077  +6.4714987     695.1287      1096.14     1258.575      77.3259     155.2741     311.1378      1.531     4.23     843.8633      54.8977     124.3145         6     1.185     0.431 -31.01   0
       316    837.6736    543.2986 307.5707706  +6.4676305     4690.873     6781.429     6566.743     77.69916     155.8321     311.4166      1.505     3.51     846.7527      54.8977     745.0769        23     1.425     0.812 -39.80   0
       317    356.0976    541.6006 307.7708187  +6.4523056     18391.61     26626.01     27725.48     77.57494     155.3983     311.0758      1.492     3.66     845.5167      54.8977      2968.64        38     1.468     0.941 -39.09   0
       318    446.2856    541.8879 307.7333562  +6.4551943     818.7806     1201.397     1063.221     77.82318     156.0177     311.5714      1.506     5.39      845.947      54.8977     138.2042         8     1.426     0.576 -37.11   0
       319    157.8739    540.6540 307.8531662  +6.4460773     2027.728     2714.486     2451.617     77.94701     155.7702     311.4166      1.458     3.70     846.4122      54.8977     328.6777        16     1.277     0.733 -36.13   0
       320    233.0054    538.2986 307.8220457  +6.4495603     993.9762     1274.913     1220.098     77.82318     155.3983     311.1068      1.298     3.11     845.5165      54.8977     178.4869        10     0.925     0.728 -34.73   0
       321    791.6212    536.5950 307.5901193  +6.4688695     6107.343     8695.324     9275.405     77.69916     155.5224     311.2617      1.493     3.58     846.4601      54.8977     909.8228        27     1.420     0.844 -40.01   0
       322    522.4981    536.4401 307.7018887  +6.4599829     7048.779     9937.365     10881.44     78.07063     155.6464     311.6642      1.497     3.51     846.1639      54.8977     1142.398        29     1.472     0.860 -34.42   0
       323     94.9852    538.0636 307.8793681  +6.4450442     1021.292     1464.182     1396.994     77.57494     155.6463     311.3237      1.507     5.05     847.3987      54.8977     141.1105        10     1.005     0.719 -31.84   0
       324    380.4692    533.3523 307.7609738  +6.4565245     1444.333      1982.07     2095.073     78.07063     155.7083     311.4785      1.482     4.55      845.207      54.8977     234.6198        11     1.211     0.575 -43.03   0
       325    849.9451    529.8322 307.5661227  +6.4735986     664.9976     1213.383     1306.117     77.94701     155.7702     311.3856      1.973     6.51      846.234      54.8977     103.0371        12     1.905     0.625 -54.66   0
       326    567.0920    529.6249 307.6835971  +6.4642819       2496.5     4053.537     4341.312     78.19406     155.5224     311.2927      1.714     4.86     845.9012      54.8977     383.6194        21     1.748     0.748 -37.16   0
       327    169.4743    529.7598 307.8487142  +6.4509634     7356.475     10513.41     11210.62     77.94701     155.7702     311.4785      1.509     3.57     846.0472      54.8977     1059.866        27     1.428     0.851 -40.64   0
       328    264.6859    526.1321 307.8092974  +6.4556421     93347.34     133732.5     139040.5     78.19406     156.0177     311.4785      1.523     3.56     844.9613      54.8977     15526.16        83     1.619     1.025 -37.55   0
       329     41.0588    528.4586 307.9020837  +6.4472060     5201.674     7791.688     7721.142     78.07063     155.7702     311.4785      1.543     3.45     847.3862      54.8977     791.4797        31     1.420     1.048 -32.29   0
       330    808.3893    528.7561 307.5834167  +6.4726633      1474.51     2077.302     2020.065     77.57494     155.6464     311.1688      1.498     4.47     846.1941      54.8977     224.2112        15     1.442     0.674 -37.03   0
       331    553.9694    523.6280 307.6892470  +6.4663213     950.6045     1228.619     1415.648     77.57494     155.5224     311.2307      1.243     4.70     845.6996      54.8977     188.1605        11     1.455     0.659 -46.92   0
       332    248.4355    521.1339 307.8162131  +6.4571633     1592.845     2266.772     2157.461     77.94701     155.7702     311.5095      1.457     3.50     844.8909      54.8977     277.7791        14     1.308     0.680 -31.70   0
       333    963.9422    519.7629 307.5191143  +6.4815383     1571.568     2378.631     2377.421     78.07063     155.8321     311.4476      1.582     4.35      844.113      54.8977     232.3257        16     1.356     0.737 -41.00   0
       334    491.4485    516.8784 307.7154368  +6.4670263     43485.34     67110.61     71150.51     78.07063     155.8321     311.4166      1.678     3.72     845.4552      54.8977     6711.539        68     1.691     1.144 -30.51   0
       335    787.8358    518.3597 307.5922990  +6.4762737     17083.83      24595.5     25590.24     77.82318     155.7702     311.2927      1.502     3.53     845.7044      54.8977     2702.908        40     1.472     0.947 -40.03   0
       336    641.7738    515.5956 307.6530506  +6.4725602     1079.389     1620.099     1599.535     77.57494     155.5844     311.2927      1.567     5.49     845.3422      54.8977     152.6675        11     1.135     0.749 -42.01   0
       337     39.3628    513.7933 307.9032803  +6.4532048     1260.387     2077.682     2399.206      77.3259     155.5224     311.1997      1.800     5.45     847.3162      54.8977     213.8776        14     1.506     0.616 -39.56   0
       338    203.7777    513.3640 307.8350187  +6.4588799     1990.133     3116.419     3567.283     77.69916     155.5224     311.2307      1.650     4.32     845.1696      54.8977     284.3484        19     1.497     0.736 -39.47   0
       339     90.1347    513.4953 307.8822066  +6.4550265     748.3912     892.9717     811.7977     78.07063      155.894     311.4785      1.375     4.21     847.1269      54.8977     117.8556         6     1.067     0.473 -51.76   0
       340    661.3667    512.0085 307.6450334  +6.4746930     1454.834       2089.9     2336.242     77.57494     155.5844     311.2927      1.471     3.98     845.2383      54.8977      259.136        16     1.361     0.777 -38.82   0
       341    651.3470    511.9007 307.6491982  +6.4744043     3187.041     4438.814     4898.227     77.94701     155.7702     311.6642      1.446     3.69     845.2192      54.8977     500.8821        16     1.299     0.690 -42.82   0
       342    713.6944    510.6836 307.6233459  +6.4769799     1389.587     2017.659     2192.479     77.94701     156.1413     311.5714      1.525     3.49     845.2573      54.8977     229.1724        12     1.155     0.644 -43.61   0
       343     70.7258    509.4872 307.8904010  +6.4560322     720.4209     1048.727     1635.676     78.07063     156.0795     311.4785      1.407     4.36     847.1599      54.8977     143.6593         7     1.210     0.447 -40.95   0
       344    389.1157    507.5816 307.7582452  +6.4674542     1937.172      2731.89     2701.343     77.69916     155.4604     311.3857      1.440     3.56     844.3942      54.8977      332.641        15     1.294     0.658 -37.26   0
       345    135.7371    504.5441 307.8635697  +6.4602476     27925.01     39523.36     40820.98     78.19406     155.7702     311.4476      1.515     3.63     846.1946      54.8977     4095.836        47     1.535     0.944 -38.18   0
       346     67.1501    507.8257 307.8919416  +6.4565986     432.8517     786.8238     1134.249     77.69916     155.8321     311.3547      1.364     3.96     847.1677      54.8977     89.39313         5     1.032     0.435 -45.53   0
       347    500.4721    505.3265 307.7120754  +6.4720969     2355.996      3364.61     3439.496      78.3173      155.894     311.4785      1.477     3.76     845.0076      54.8977     375.5645        19     1.369     0.766 -46.33   0
       348    320.7055    505.9032 307.7867110  +6.4658650     4077.606     5656.672     5928.896     78.07063     156.3264     311.3237      1.449     3.66      843.841      54.8977     646.2169        21     1.350     0.786 -41.69   0
       349    863.7546    504.4877 307.5612315  +6.4845226     1631.263     2418.777     2275.761     78.07063     155.6464     311.4476      1.536     4.10     845.1966      54.8977     254.3269        13     1.267     0.678 -41.53   0
       350    100.7826    502.8752 307.8781412  +6.4597679     2847.967     3995.996     3727.494     77.57494     155.5224     311.3547      1.474     3.61     846.8992      54.8977     470.9303        19     1.388     0.758 -36.44   0
       351    337.8114    501.0390 307.7797700  +6.4684443     1046.534     1396.082     1643.162     77.57494     155.5844     311.1997      1.511     3.84     843.5979      54.8977     193.1555        10     1.201     0.547 -30.06   0
       352    961.4156    498.8397 307.5208596  +6.4900945     5029.387     7416.135     7472.918     77.69916     155.5844     311.2307      1.575     3.75     843.9632      54.8977     689.3311        29     1.518     0.939 -39.67   0
       353    534.4630    491.6117 307.6984174  +6.4788922     1603.754      2294.98     2532.435     77.57494     155.5844     311.2307      1.490     3.79     844.5226      54.8977      288.794        14     1.267     0.686 -38.03   0
       354      1.4302    488.3095 307.9198880  +6.4624575     12274.22     14388.33     14992.16     69.30169     125.2245     236.1393      1.060     2.45      847.423      54.8977     3180.888        20     1.141     0.647 -84.78  24
       355    640.7773    485.2110 307.6544784  +6.4850737     12759.65        18260     18813.12     77.69916     155.5844     311.3237      1.475     3.59     844.2514      54.8977      2191.27        38     1.471     0.935 -42.49   0
       356    432.7713    485.5777 307.7408513  +6.4779957     45947.46     65033.97     67036.33     77.57494     155.5844     311.3237      1.501     3.56     844.2493      54.8977     7353.546        55     1.536     0.943 -38.66   0
       357    280.5880    485.7401 307.8040464  +6.4728516     987.0164     1391.855     1470.585     77.45052     155.6464     311.1688      1.350     3.23     843.0471      54.8977      207.428        10     1.089     0.637 -37.48   0
       358    197.9401    483.2389 307.8384526  +6.4711240     20108.36     30934.82     32100.57     78.07063     155.8321     311.5095      1.631     3.54     844.5436      54.8977     2778.669        46     1.530     1.099 -32.68   0
       359    163.7781    484.2513 307.8526054  +6.4695642     1814.799     2554.413     2482.902     77.57494     155.8321     311.3237      1.500     3.86     845.2151      54.8977     272.2776        17     1.338     0.777 -33.82   0
       360    974.9566    483.1499 307.5157576  +6.4970223      1152.27     1692.841     1863.055     78.19406     155.7702     311.4785      1.591     3.94     843.8162      54.8977     150.6883        14     1.136     0.862 -35.42   0
       361    814.9785    482.9661 307.5822055  +6.4917903     1120.698     1789.662     1334.172     77.57494     155.5844     311.2307      1.573     3.49     844.3586      54.8977      228.302        12     1.201     0.707 -45.50   0
       362    903.3204    482.8016 307.5455211  +6.4947904     631.0168     1049.745     955.8781     77.45052      155.212     311.2307      1.745     4.29     844.0541      54.8977     121.3293         7     1.284     0.408 -49.23   0
       363    562.4454    482.0512 307.6871155  +6.4837717     2808.954     3941.274     4081.334     78.19406     155.7083     311.4785      1.463     3.97     844.1079      54.8977      495.698        16     1.355     0.687 -40.75   0
       364    936.6061    479.0351 307.5318223  +6.4974498     4742.782     7070.689     7478.228      77.3259     155.5224     311.2307      1.558     3.61      843.755      54.8977     719.7614        25     1.402     0.876 -34.43   0
       365    609.5565    477.5250 307.6677011  +6.4872087     7025.746     9888.266      10724.9     77.94701     155.8321     311.4785      1.512     3.58      843.831      54.8977     1065.063        28     1.400     0.877 -40.07   0
       366     97.2599    478.2724 307.8804296  +6.4698089     1162.577     1569.921     1557.903     78.19406     155.7702     311.4785      1.323     3.74     846.6527      54.8977     228.5524        12     1.357     0.591 -46.13   0
       367    509.7461    476.7799 307.7091778  +6.4841935     570.4147     1003.296     622.2052     77.57494     155.7702     311.2617      1.742     3.80     843.8956      54.8977     101.9918         5     1.224     0.338 -11.74   0
       368    958.9776    471.3523 307.5227865  +6.5013642     3635.823      5150.79     5037.917     77.69916     155.7702     311.3237      1.492     3.57     843.3843      54.8977     524.5347        22     1.404     0.813 -44.51   0
       369    397.4737    470.2979 307.7560214  +6.4831282     736.8294     967.1239     1146.917     77.69916      155.894     311.4476      1.363     4.63     843.1083      54.8977     115.7262         8     1.297     0.469 -43.06   0
       370    521.7531    468.8383 307.7044566  +6.4878727     7908.682     11123.64     11740.27     77.94701     155.7083     311.2927      1.505     3.92     843.4738      54.8977     1425.766        26     1.454     0.792 -40.09   0
       371    367.8258    469.0844 307.7683747  +6.4826404     2892.573     3844.746     3953.101     78.19406     155.5224     311.3237      1.425     3.51     842.5138      54.8977     525.6923        18     1.270     0.751 -43.53   0
       372    737.5546    469.1291 307.6148220  +6.4949321     612.3904     767.6821     354.7348     78.07063     155.7702     311.4476      1.505     4.31     843.8138      54.8977      86.5556         7     1.082     0.489 -42.10   0
       373     91.5180    468.2867 307.8831491  +6.4737401      636.945     725.3378      479.971     77.82318     155.9559     311.5405      1.402     4.36     846.4716      54.8977     97.81879         7     1.003     0.540 -36.12   0
       374    878.2816    464.6451 307.5565246  +6.5014570     3392.715     4728.811     5311.192     78.07063     155.7702     311.4166      1.499     3.59     843.7314      54.8977      520.243        21     1.353     0.853 -35.46   0
       375    531.2885    465.6703 307.7006023  +6.4894984     695.6743     948.4761     1467.779     78.07063     156.0177     311.4476      1.519     4.99     843.3251      54.8977     136.6909         9     1.319     0.535 -44.86   0
       376    226.1522    464.6378 307.8273599  +6.4797473     608.7943     957.8505     727.2134     77.94701     155.7702     311.3547      1.510     3.87     843.6178      54.8977     139.3813         6     1.371     0.313 -58.16   0
       377    885.7991    458.8866 307.5535942  +6.5040844     2265.238     3444.565     3832.902      77.3259     155.2741     311.1688      1.542     3.92     843.5234      54.8977     374.5809        18     1.360     0.758 -36.99   0
       378    925.2650    458.2434 307.5372243  +6.5056593     1253.015     1801.936     1739.177     78.07063     155.7083     311.4476      1.528     3.78     843.3135      54.8977     182.7998        12     1.123     0.679 -46.57   0
       379    104.5391    458.6701 307.8780643  +6.4781464     788.0979     1183.522     639.4876     78.19406     155.7702     311.4785      1.585     3.47     846.0277      54.8977     132.5173         7     1.039     0.558 -45.76   0
       380    263.6164    456.7052 307.8120670  +6.4842741     594.5272     838.5978     579.4846     77.82318     155.5844     311.2927      1.505     3.94     842.4606      54.8977     100.1185         6     0.888     0.502 -44.48   0
       381    709.6319    454.9875 307.6268904  +6.4998436     3193.316      4589.55     4754.699     77.57494     155.5224     311.3547      1.460     3.44      843.252      54.8977     521.8723        20     1.335     0.800 -40.72   0
       382     71.2564    454.3408 307.8920314  +6.4788206     1989.755     2776.583     2982.005     78.19406     155.7702     311.4785      1.519     4.51     846.4745      54.8977     291.5417        17     1.405     0.738 -38.28   0
       383    420.6790    453.6883 307.7469397  +6.4907604      1155.54     1555.801      1519.12     77.82318     156.0177     311.5714      1.391     3.68     842.5863      54.8977     189.9026        11     1.222     0.584 -31.60   0
       384    380.6237    453.2142 307.7635908  +6.4896205     3951.725     5458.805      5330.26     77.82318     155.5844     311.3857      1.429     3.75     842.0447      54.8977     653.1996        23     1.408     0.811 -37.78   0
       385    608.2599    449.7424 307.6691671  +6.4986378     10829.99     15434.45     15578.63     78.19406     155.7083     311.4785      1.470     3.63     842.6251      54.8977     1792.335        34     1.462     0.901 -38.17   0
       386    770.9511    446.2921 307.6017130  +6.5054719      17200.3     24619.51     25602.28     77.94701     155.6464     311.6024      1.503     3.48     842.9897      54.8977     2738.179        37     1.532     0.903 -39.44   2
       387    774.9925    441.4784 307.6001949  +6.5075939     1513.336     2233.272     2874.551     77.69916     155.2741     311.2307      1.554     3.78     842.8149      54.8977     249.1928        11     1.198     0.603 -31.46   3
       388    290.6635    446.7521 307.8011678  +6.4892869     2866.088     4097.091     4226.044     77.94701     155.6464     311.4785      1.509     4.11     841.4557      54.8977     430.1648        20     1.372     0.770 -35.23   0
       389    413.8743    446.1940 307.7500165  +6.4936281     743.3417     1107.037     774.2646     77.69916     155.3362     311.3547      1.493     4.92     842.1007      54.8977     156.6198         7     1.233     0.555 -21.48   0
       390    799.8429    443.3466 307.5898116  +6.5076479     1395.525     1808.128     2269.008     78.07063     155.7702     311.4476      1.390     3.93     842.9434      54.8977     211.3259        11     1.029     0.753 -23.80   0
       391    373.6744    443.2614 307.7668099  +6.4934984     1670.516     2465.309     2565.479      78.3173     155.7702     311.4476      1.492     3.90     841.5278      54.8977     275.6783        15     1.371     0.734 -33.33   0
       392    956.0745    441.1438 307.5249971  +6.5137420      1856.76     2680.748     2940.532     77.94701     155.6464     311.3856      1.545     3.98     842.1929      54.8977     297.2169        18     1.402     0.756 -45.65   0
       393    704.7720    440.3729 307.6293962  +6.5057168     710.1055     811.9042     639.6947     77.57494     155.5844     311.2927      1.264     4.64     842.6577      54.8977     109.5425         8     1.092     0.561 -22.28   0
       394    361.9985    439.6324 307.7717804  +6.4946074     717.0177     1116.621     1381.279      77.3259     155.5844     311.1998      1.847     6.18     841.2911      54.8977     110.5083        11     1.203     0.892 -38.09   0
       395    746.6116    437.3002 307.6121216  +6.5083762     2531.133     3759.203     3760.904     77.82318     155.5224     311.2307      1.540     3.71     842.5967      54.8977     381.0735        20     1.355     0.864 -50.29   0
       396    108.3060    438.3391 307.8771821  +6.4866673     4754.578     6842.097     7458.503     77.94701     155.8321     311.4785      1.527     3.67     845.4812      54.8977      712.036        23     1.413     0.824 -33.65   0
       397   1010.1435    435.7990 307.5027181  +6.5177415      4040.02     6949.294     7585.126     77.45052     155.4604     311.1688      1.805     4.10     840.3715      54.8977     458.0609        31     1.495     1.157 -23.80   0
       398    266.3125    435.4623 307.8116589  +6.4931357     1713.313     2463.295     2592.098     77.94701     155.9559     311.4785      1.622     3.75     841.7485      54.8977     284.5786        16     1.341     0.759 -42.23   0
       399    344.3834    433.0871 307.7793152  +6.4967224     3337.306      4897.87     5172.638     77.82318     155.5224     311.3547      1.485     3.72     840.9615      54.8977      546.746        19     1.401     0.718 -36.64   0
       400    700.3625    430.9169 307.6315430  +6.5094749     1716.521     2288.728     2410.088     78.07063     155.7083     311.3857      1.368     3.61     842.2976      54.8977     291.5658        14     1.273     0.666 -35.37   0
       401    973.4730    429.5461 307.5181567  +6.5191080     636.2653     1014.182     1217.905     77.94701     155.6464     311.4476      1.761     3.82      841.171      54.8977     110.3976         6     1.084     0.387 -18.01   0
       402    231.8289    429.1098 307.8261929  +6.4946070     886.1312     1023.633     629.2196     78.19406     155.5224     311.3547      1.268     4.39     842.6745      54.8977     136.4214         8     1.058     0.517 -34.16   0
       403    690.3464    422.5082 307.6359834  +6.5126140     585.1174      957.634     972.5673     77.94701     155.5844     311.6024      1.731     5.27     841.9692      54.8977      118.933        10     1.508     0.721 -46.19   0
       404    541.8220    423.6851 307.6976302  +6.5071860     1057.517     1466.796     1680.453     77.94701     155.4604     311.3857      1.417     2.96     841.1716      54.8977     218.7206        11     1.069     0.647 -15.70   0
       405    826.4592    420.9363 307.5795037  +6.5177857     1623.213     2249.714      2075.92     78.19406     155.7083     311.4785      1.423     3.36     842.2985      54.8977     250.6291        13     1.157     0.675 -48.41   0
       406    463.9805    421.7411 307.7300244  +6.5053956     1483.683     2167.977     2445.511     77.69916     155.6464     311.2617      1.623     4.13     840.7777      54.8977     261.5605        15     1.359     0.736 -31.19   0
       407    812.2236    419.8215 307.5854533  +6.5177733     2187.274     3071.566     3207.307     77.69916     155.5844     311.4166      1.467     3.49     842.1945      54.8977     383.6279        17     1.347     0.723 -42.17   0
       408    709.4481    417.9909 307.6282006  +6.5151144     16093.42     22591.72      23125.7     77.57494     155.5844     311.1068      1.438     3.64     841.7963      54.8977     2560.876        33     1.435     0.868 -38.92   0
       409    611.6098    420.0875 307.6687658  +6.5109946     925.7361     1239.564     1494.659     77.69916     155.4604     311.2927      1.527     5.13     841.3647      54.8977      132.034         9     1.099     0.676 -27.84   0
       410    630.4810    414.0885 307.6611283  +6.5140997     2894.086     3972.484     4376.023     77.82318     155.9559     311.5405      1.470     3.74     841.1969      54.8977     489.8957        18     1.266     0.800 -40.71   0
       411    703.1734    413.0097 307.6309728  +6.5169627     607.0856     680.7333     1057.165     77.69916     155.5844     311.3237      1.339     3.98     841.5611      54.8977     92.97809         6     0.939     0.483 -50.55   0
       412    624.7676    413.3971 307.6635243  +6.5141951     657.0256     890.5284     808.8264      77.3259     155.5844     311.2307      1.744     4.12     841.0988      54.8977     113.9491         6     1.174     0.412 -31.63   0
       413    605.6967    411.0613 307.6715230  +6.5145250      5512.66     8019.826      8677.95     77.82318     155.8321     311.5095      1.519     3.75     840.8384      54.8977     940.3028        23     1.466     0.789 -33.97   3
       414    601.9267    408.5432 307.6731729  +6.5154393     15760.32     22431.34     23366.34       77.947     155.7083     311.4166      1.478     3.44     840.6944      54.8977     2677.292        38     1.498     0.893 -37.37   3
       415    934.8003    407.7675 307.5349436  +6.5268188     3995.746     5779.078      5297.51     77.45052     155.5844     311.1997      1.495     3.68     841.7534      54.8977       625.47        23     1.424     0.823 -41.07   0
       416    373.8180    403.9690 307.7680651  +6.5097279     30992.91     44411.12     45927.42     77.69916     155.5844     311.3237      1.476     3.70     839.9533      54.8977     5406.814        50     1.545     0.934 -40.42   0
       417    410.7578    405.7168 307.7526647  +6.5102382     715.2924     847.2493     1158.009     78.07063     155.7702     311.3857      1.606     4.20     840.0508      54.8977     151.7651         8     1.280     0.533 -39.08   0
       418    890.5528    403.5084 307.5534634  +6.5271096     1576.802     2233.583     3173.288     78.07063     155.7083     311.5714      1.618     4.54     841.8831      54.8977     203.8864        14     1.329     0.722 -42.60   0
       419    119.7547    403.4667 307.8735974  +6.5014495     2594.043     3677.417     4169.645     78.07063     155.7083     311.4785      1.506     3.82     844.6257      54.8977     385.0057        19     1.397     0.749 -35.11   0
       420    585.5947    399.7043 307.6802512  +6.5185456     686.3799     919.5754     1169.037     77.82318     155.4604     311.2307      1.485     4.38     840.0548      54.8977     115.6735         7     1.094     0.499 -39.65   0
       421     53.1885    399.0724 307.9013900  +6.5010370     1749.199     2598.357     3359.443     77.57494     155.3983     311.2617      1.528     3.49     846.0902      54.8977     279.1443        16     1.260     0.763 -30.53   0
       422    903.4333    398.2027 307.5482901  +6.5297279     5124.082     7260.856     7177.464      77.3259     155.5844     311.1688      1.467     3.47     841.6275      54.8977     826.2921        25     1.419     0.864 -36.03   0
       423    231.3702    394.5680 307.8275409  +6.5088546     15034.69     21705.31      22218.6     77.57494     155.5224     311.1997      1.532     3.66      841.776      54.8977     2355.158        37     1.520     0.907 -37.77   0
       424     67.0749    388.7358 307.8959699  +6.5057698     841.4932     1055.754     1346.284     78.19406     155.7702     311.4166      1.505     4.88     845.5851      54.8977      124.274        10     1.113     0.892 -45.31   0
       425    726.3732    388.1201 307.6221671  +6.5280116     659.8405     928.5045     1085.615     77.94701     155.5844     311.4785      1.274     3.88     840.7106      54.8977     116.9469         8     1.014     0.556 -45.00   0
       426    954.6337    386.4097 307.5274165  +6.5362959     1087.157     1648.489     1493.799     77.57494     155.5844     311.2927      1.622     4.61     840.2235      54.8977     152.5936        10     1.239     0.532 -41.61   0
       427    694.3474    387.4411 307.6354914  +6.5272273     632.7266     747.8253     575.3353     78.07063     155.8321     311.4476      1.252     2.96     840.2108      54.8977     119.7213         6     0.818     0.522 -45.75   0
       428    344.1393    384.2909 307.7810499  +6.5168632     1395.659     2172.877     2407.255     77.94701     155.8321     311.5095      1.567     4.00     839.3695      54.8977     219.5825        14     1.347     0.634 -33.23   0
       429    177.2030    384.3211 307.8503808  +6.5112757     956.4116     1307.076     1542.094     77.45052     155.2741     311.2307      1.475     4.59     843.3373      54.8977     128.6091         9     0.942     0.647 -58.03   0
       430    371.8205    383.7913 307.7695699  +6.5179931     546.3395     676.8061      484.157     77.69916     155.5224     311.2307      1.168     3.45     839.2234      54.8977     80.88849         5     0.999     0.344 -44.06   0
       431    131.5780    383.1991 307.8693671  +6.5102137     5564.838     8063.227     8251.195     77.69916     155.4604     311.1688      1.519     3.59     844.2762      54.8977     892.9427        26     1.391     0.861 -35.81   0
       432    236.3860    382.2024 307.8258721  +6.5141282     1427.448     1822.749     1436.013     77.69916     155.4604     311.2927      1.323     4.54     841.2725      54.8977     230.7914        13     1.258     0.649 -30.47   0
       433    624.6210    381.7348 307.6646421  +6.5272645     543.2766     766.9054     953.3162     77.69916     155.7702     311.3237      1.805     3.43     839.2521      54.8977      101.614         5     1.138     0.299 -36.69   0
       434    428.7934    381.8454 307.7459726  +6.5206965      835.224     1193.504     1470.641     77.57494     155.5224     311.1068      1.493     4.73     838.9905      54.8977     111.0804         9     0.962     0.659 -29.02   0
       435    153.6360    379.1104 307.8603432  +6.5126395     2639.939     4251.529     4431.163     78.19406     155.7083     311.4476      1.724     4.12     843.9962      54.8977     406.7671        26     1.605     0.942 -45.67   0
       436    817.4853    379.9086 307.5845977  +6.5344294     771.2712     1092.999     1320.067     77.82318      156.203     311.5405      1.413     3.83     840.8401      54.8977     137.1721         6     1.242     0.340 -48.04   0
       437    549.0915    377.8523 307.6961421  +6.5263536     1117.762     1568.668     1379.294       77.947     155.5844     311.6333      1.424     3.65     838.4774      54.8977     180.9223        10     1.151     0.610 -35.84   0
       438    377.0995    373.8313 307.7677107  +6.5222819     2160.697     3104.399     2964.416     78.07063     155.5224     311.5714      1.457     3.89     838.8495      54.8977     345.9824        16     1.324     0.696 -36.08   0
       439    965.7447    372.7715 307.5232552  +6.5422960      871.707     1655.741     1397.835     77.82318     155.8321     311.2927      1.695     6.18     839.4846      54.8977     135.1678        13     1.424     0.754 -52.25   0
       440    311.0215    371.8396 307.7952215  +6.5208994      677.741      1126.21      883.235     77.69916     155.5844     311.2307      1.714     3.76     839.6217      54.8977     92.27692         7     0.835     0.684 -58.93   0
       441    430.8746    367.3784 307.7455921  +6.5267397      7876.68     11054.83     11563.05     77.69916     155.6464     311.3857      1.434     3.38     838.3212      54.8977     1310.994        28     1.502     0.833 -42.98   0
       442     27.4128    368.1134 307.9131342  +6.5129576      3364.19     5518.063     6065.116     77.69916     155.5844     311.3547      1.786     4.64     846.3746      54.8977     527.5239        24     1.718     0.809 -44.07   0
       443    602.7247    367.7116 307.6742047  +6.5323264     477.0242     661.8373     875.5564     78.07063     156.0795     311.5405      1.623     3.52     838.2587      54.8977     85.00775         5     1.236     0.289 -54.54   0
       444    763.6187    366.2246 307.6074273  +6.5382906     2245.246     3141.801     3188.669     77.69916     155.5844     311.3857      1.501     3.69     840.2057      54.8977     381.9999        19     1.325     0.797 -34.41   0
       445    771.6078    364.5646 307.6041643  +6.5392415     13824.01     19151.61     19654.65     77.57494     155.5844     311.2307      1.474     3.47      840.186      54.8977     2165.652        35     1.466     0.871 -40.09   0
       446    191.2490    366.6608 307.8451394  +6.5190374     511.3129     720.5933     633.5878     78.07063     155.7083     311.5095      1.377     2.66     842.5508      54.8977     108.0996         5     0.728     0.443 -16.75   0
       447    335.0204    363.0898 307.7855470  +6.5253133     1161.644     1660.477      1759.33     77.94701     155.5224     311.2927      1.513     3.58     838.9205      54.8977     237.7461        11     1.191     0.619 -47.79   0
       448   1015.4778    359.5925 307.5030364  +6.5493866     3561.949      5277.01     5629.229     77.69916     155.2741     311.2617      1.574     3.86     837.9728      54.8977     487.5714        25     1.514     0.892 -45.21  16
       449    180.2015    355.6791 307.8500958  +6.5232027      737.214     1014.151     772.6801      77.3259      155.212     311.2307      1.442     4.20     842.9277      54.8977     130.1577         8     1.109     0.537 -19.78   0
       450    897.2692    354.5974 307.5523020  +6.5475295     541.8482     831.2665     167.5202     77.45052     155.3983     311.2617      1.164     4.24      839.986      54.8977     92.96997         7     0.946     0.542 -57.91   0
       451    265.5009    374.3431 307.8140435  +6.5183458     870.4883     1072.155     847.8745     77.82318     155.7702     311.6333      1.620     4.98     840.4846      54.8977     155.2254         9     1.494     0.469 -30.48   0
       452    479.0871    351.0193 307.7261146  +6.5351017     3242.726     4555.768     5118.948     77.82318     155.5224     311.3237      1.405     3.80      836.879      54.8977     583.4744        18     1.356     0.678 -38.96   0
       453    451.2576    351.4790 307.7376580  +6.5339844     2534.283     3626.629     3241.768     78.07063     155.7702     311.4166      1.538     3.68     837.3202      54.8977     387.5421        20     1.439     0.777 -33.05   0
       454    907.8391    350.8769 307.5480355  +6.5494165     800.5066     1114.832     853.4836       77.947     155.7702     311.4476      1.394     4.73     839.6931      54.8977     123.2997         9     1.233     0.514 -41.23   0
       455    836.9547    347.4452 307.5775925  +6.5484810     34561.39     51636.82     53759.75     78.07063     155.7702     311.4476      1.602     3.86     839.6606      54.8977     5131.725        52     1.594     1.016 -46.60   0
       456    328.9406    343.3197 307.7887341  +6.5332738     866.0605     1158.575      930.887     78.19406     155.7702     311.4476      1.389     5.16     838.4767      54.8977     125.7902        10     1.061     0.708 -39.28   0
       457     55.0649    343.7148 307.9024692  +6.5239576     729.0281     1266.862     1194.381     78.19406     155.9559     311.5095      1.693     5.45     845.3521      54.8977     86.65826        11     1.389     0.603 -34.62   0
       458    608.7076    340.0164 307.6726445  +6.5439616     2970.511     4050.856     4305.485     77.82318     155.5844     311.3237      1.409     3.86      836.743      54.8977     524.0071        19     1.312     0.755 -38.21   0
       459     16.9726    340.4800 307.9183982  +6.5240181     1142.302     1494.055     1250.596       77.947     155.5844     311.4785      1.408     3.79      846.334      54.8977     181.3219        10     1.047     0.590 -55.41   0
       460    140.1618    338.3682 307.8673059  +6.5290120     668.1605     889.7025     742.5793     77.69916     155.5224     311.2617      1.660     5.15     843.9868      54.8977     98.68927         8     1.311     0.572 -51.04   0
       461    693.4056    333.4647 307.6376832  +6.5494844     85885.78     120744.9     125334.9     77.45052     155.5224     311.2307      1.478     3.51      837.938      54.8977     13465.81        76     1.540     1.011 -38.53   0
       462    851.4451    335.0609 307.5719862  +6.5540759     1164.951     1684.734     1664.969       77.947     155.7083     311.5714      1.566     4.46     838.9523      54.8977     182.6351        13     1.298     0.673 -38.25   0
       463     72.6379    333.2605 307.8955217  +6.5288623     1439.198     1961.725     1510.601     78.07063     155.8321     311.4476      1.429     3.51      844.813      54.8977     252.4298        14     1.214     0.741 -36.91   0
       464    935.2302    330.2761 307.5373438  +6.5588319     840.9171     1052.904     829.2196     77.94701     155.8321     311.4476      1.367     6.24     838.1202      54.8977     109.9209        13     1.376     0.794 -31.33   0
       465    555.8451    330.2764 307.6949264  +6.5462238     2826.046     4037.988     4114.547     77.94701     155.8321     311.4785      1.512     3.62      835.972      54.8977     470.2475        20     1.357     0.830 -35.38   0
       466     93.0095    329.1799 307.8871978  +6.5312289     6741.317     9847.575     9989.487     77.69916     155.4604     311.2617      1.498     3.62     844.2806      54.8977      1062.42        28     1.497     0.875 -41.86   0
       467    762.8377    327.8772 307.6090301  +6.5540995     534.1317     834.9712     1354.213       77.947     155.8321     311.4476      1.702     3.44     838.5942      54.8977     106.1389         5     1.072     0.319 -45.17   0
       468    754.5273    327.8862 307.6124816  +6.5538196     556.3364     733.8233     1416.753     78.19406     156.0177     311.4476      1.409     3.36     838.5947      54.8977     99.77338         5     1.192     0.275 -34.38   0
       469    539.0748    326.4165 307.7020210  +6.5472592     7781.463     11185.35     11090.39     77.57494     155.5224     311.3237      1.469     3.60     835.7549      54.8977     1254.122        30     1.471     0.848 -38.44   0
       470    268.0480    324.1371 307.8146676  +6.5391618     2930.678     4207.955     4730.088     77.94701     155.6464     311.5095      1.448     3.68      839.414      54.8977     507.9144        20     1.349     0.773 -43.61   0
       471    402.0196    321.6325 307.7591071  +6.5446670     28426.82     40367.62     41452.18     77.57494     155.5844     311.2617      1.480     3.52     836.8221      54.8977      4862.25        45     1.522     0.903 -39.85   0
       472    580.5342    321.2282 307.6849739  +6.5507820     706.9153     761.3796     338.0393     77.82318     155.7083     311.3857      1.190     4.22     835.6608      54.8977     123.2743         7     0.954     0.533 -33.44   0
       473    509.6813    320.3124 307.7144337  +6.5488007     1500.594     2079.854      1977.02     77.82318     155.9559     311.5405      1.353     4.02     835.5626      54.8977     250.8087        11     1.313     0.535 -47.64   0
       474    381.9865    319.9916 307.7674827  +6.5446764     1307.492      1717.92     2463.543     77.69916     155.5224     311.3547      1.408     3.52     836.8552      54.8977     226.2675        10     1.142     0.610 -39.59   0
       475    481.3574    316.6755 307.7263198  +6.5493587     1188.115     1694.958     1426.425     77.94701     155.8321     311.4785      1.527     4.40     835.5127      54.8977     204.1831        12     1.216     0.764 -57.54   0
       476    797.0929    313.8141 307.5952703  +6.5610445     885.5422     1209.134      1329.88     77.82318     155.5224     311.2927      1.472     4.20     837.9075      54.8977     116.8521        11     1.114     0.863 -54.17   0
       477    632.7425    313.7155 307.6635394  +6.5556217     623.3892      897.622     766.5974     78.07063     155.7702     311.5405      1.376     3.39     836.0872      54.8977     130.0797         5     1.098     0.303 -54.83   0
       478    379.1561    313.8175 307.7688649  +6.5471314      834.607     1377.639     1643.994     77.57494     155.6464     311.2307      1.696     5.16     836.6538      54.8977     106.3832         9     1.013     0.744 -71.27   0
       479    491.0435    312.0287 307.7224519  +6.5516003     9247.567      13104.3     13498.07     77.69916     155.8321     311.3547      1.451     3.88     835.2873      54.8977     1593.703        28     1.465     0.810 -37.67   0
       480    760.1678    310.6621 307.6107130  +6.5611194     3296.647     4717.127      4998.11     77.82318     155.8321     311.3857      1.438     3.89     837.7949      54.8977     542.0417        19     1.388     0.729 -43.69   0
       481    915.5123    310.5845 307.5461895  +6.5663091      933.708     1263.091     1246.502     77.82318     155.5224     311.3237      1.224     3.33     837.1448      54.8977     159.2227         9     1.015     0.637 -39.81   0
       482    707.9644    310.0285 307.6324178  +6.5596459     752.2371     966.1504     351.4745     77.69916     155.5224     311.2617      1.216     3.51     837.4911      54.8977     165.1479         7     1.119     0.567 -43.06   0
       483    317.6505    308.6481 307.7945843  +6.5472136     1140.109     1501.022     1328.149     78.07063     155.6464     311.4166      1.534     5.43      837.676      54.8977     160.2565        10     1.286     0.647 -50.32   0
       484    877.8716    307.2277 307.5619364  +6.5664463     472.2271      551.479     209.8506     77.82318     155.7083     311.3547      1.089     3.87     837.0248      54.8977      118.652         5     0.838     0.513  43.78   0
       485     76.6943    305.9145 307.8947549  +6.5402895     501.5061     586.7576     595.4031     78.07063     156.1413     311.5095      1.370     3.45     844.5819      54.8977     89.33319         5     1.000     0.343 -47.04   0
       486    429.7174    302.8839 307.7482300  +6.5533323     557.9436     661.4588     488.1252     77.82318     156.0177     311.5095      1.159     3.40        835.8      54.8977      89.0036         5     0.967     0.345 -46.62   0
       487    253.3243    302.8990 307.8214946  +6.5474396     739.4382     1072.812     1001.676     77.57494      155.894     311.3857      1.656     3.72     839.3028      54.8977     119.0112         5     0.913     0.601 -14.93   0
       488    152.9888    302.8478 307.8631699  +6.5441077     1000.733     1417.249     1484.956     77.57494     155.6464     311.1378      1.403     3.47     843.9073      54.8977     208.5001         9     1.148     0.504 -43.52   0
       489    599.8400    301.1786 307.6776246  +6.5597036     518.0439     820.5179     736.9099     77.69916     155.5844     311.2617      1.812     4.72     834.7266      54.8977     84.65247         7     1.173     0.539 -35.64   0
       490    380.9238    296.1895 307.7687207  +6.5544693     8137.007     11904.24     12735.15     77.69916     155.3983     311.2617      1.489     3.59     835.9874      54.8977     1438.371        30     1.504     0.839 -41.46   0
       491    236.8262    296.7836 307.8285519  +6.5494136     2154.774     3021.934     2813.258     77.69916     155.5844     311.3857      1.472     3.53     839.6357      54.8977     414.1678        17     1.423     0.675 -36.82   0
       492    734.6093    296.0146 307.6218177  +6.5663184      1012.61     1412.613     1125.049     77.82318     155.5224     311.3547      1.518     4.73     837.1216      54.8977     177.6555        10     1.273     0.670 -34.30   0
       493    748.8660    291.9932 307.6160299  +6.5684528      58064.8     81976.17     85013.45     77.57494     155.5224     311.2617      1.447     3.59     836.9219      54.8977     10520.11        60     1.516     0.962 -39.99   0
       494    420.2579    291.6355 307.7525353  +6.5576616      2616.11     3897.647     3945.225     77.94701     155.7702     311.4476      1.527     3.60     835.5414      54.8977     434.0517        20     1.323     0.858 -36.61   0
       495    983.6118    289.0299 307.5186195  +6.5774681     1721.381     2387.072     2244.905     77.57494     155.5224     311.3237      1.509     3.80     834.4644      54.8977     288.0225        15     1.380     0.714 -38.78   0
       496    566.5762    289.0658 307.6918458  +6.5635980     1305.213     1883.869     2151.853     77.69916     155.7702     311.3857      1.532     4.26     834.1229      54.8977      218.707        15     1.371     0.739 -44.13   0
       497    924.7394    288.1548 307.5431034  +6.5758771     2451.924     3456.284     3831.349     77.94701     155.7083     311.5405      1.505     3.79     835.7233      54.8977     382.7866        19     1.389     0.807 -40.41   0
       498    457.5864    287.8334 307.7371577  +6.5604760     1111.707      1708.61     1871.719     77.57494     155.5224     311.3547      1.517     4.76     834.7673      54.8977     173.3407        14     1.438     0.700 -45.58   0
       499    406.9717    287.1519 307.7582039  +6.5590699     2193.503     3253.547     3143.217     77.69916     155.8321     311.3856      1.490     3.93     835.4995      54.8977     393.3657        19     1.467     0.746 -42.80   0
       500    287.3164    286.5669 307.8079232  +6.5553186     883.0907     1080.496     1067.426     78.07063     155.5844     311.4166      1.239     4.45     837.9902      54.8977     142.9763        11     1.361     0.517 -37.83   0
       501    457.3700    282.0232 307.7374419  +6.5628680     794.5882     1067.411     1215.086     77.57494     155.6464     311.2927      1.571     5.07     834.6161      54.8977     148.5876         9     1.148     0.634 -44.77   0
       502    435.3422    283.0788 307.7465561  +6.5616978     426.8109     605.6972     440.8983     78.07063     155.7083     311.4166      1.723     3.91     835.0126      54.8977      78.3205         5     1.311     0.333 -40.30   0
       503    828.0143    281.4996 307.5835031  +6.5754151     1210.428     1474.587     1719.013     78.07063     155.5224     311.1378      1.378     3.92     835.9474      54.8977     171.2485        11     1.074     0.684 -51.70   0
       504    960.6252    279.7667 307.5284761  +6.5805310     546.9289      841.559     777.5141     77.45052     155.5224     311.2617      1.602     4.47     834.7368      54.8977     75.83179         5     1.123     0.506 -31.40   0
       505    183.5433    278.5566 307.8512940  +6.5551593     2494.131     3602.863      3846.71     77.94701     155.7702     311.5095      1.529     3.68     842.3635      54.8977      373.073        21     1.407     0.848 -41.20   0
       506    437.4294    278.7591 307.7458337  +6.5635511     1220.584     1755.892     1772.511     77.69916     155.6464     311.2927      1.538     3.89     834.8691      54.8977     190.8219        13     1.278     0.649 -36.55   0
       507    747.3168    276.5584 307.6171881  +6.5747748     6373.652     9079.975     9115.663     78.07063     155.7702     311.3857      1.463     3.63      836.192      54.8977     1021.833        26     1.432     0.827 -36.35   0
       508    338.0110    276.1742 307.7872149  +6.5613022     689.3119     1031.089     1177.419     77.69916     155.5844     311.3237      1.934     6.44     836.3234      54.8977     99.43561        13     1.638     0.711 -32.56   0
       509    219.4096    276.6630 307.8364604  +6.5571399     742.3145     945.5767     519.6309     77.57494     155.5844     311.2307      1.239     2.63     840.3589      54.8977     128.3053         5     0.701     0.456 -69.77   0
       510     79.6649    276.0363 307.8945241  +6.5527259     1105.343     1771.895     1819.638       77.947     155.7702     311.5095      1.583     3.93     844.4101      54.8977     208.1234        10     1.087     0.608 -30.77   0
       511    763.8454    274.3767 307.6103952  +6.5762249     2808.397     4023.247     4189.752     77.69916     155.7702     311.3237      1.468     3.77     835.9913      54.8977     442.4172        16     1.325     0.698 -44.12   0
       512    466.1373    273.8298 307.7340742  +6.5665434     584.4957     651.1395     293.4482     77.82318     155.7702     311.3856      1.140     3.42     834.2397      54.8977     127.5939         5     0.907     0.409 -46.00   0
       513     66.7308    269.9998 307.9000988  +6.5547856     1492.123     2272.835     2116.751     77.57494     155.2741     311.2307      1.608     4.20     844.6882      54.8977      241.467        15     1.367     0.692 -46.83   0
       514    352.9701    269.3270 307.7812307  +6.5646287     1855.743     3130.883     3433.054       77.947     155.7702     311.4166      1.825     6.22     835.7897      54.8977     244.1613        21     1.818     0.791 -15.51   0
       515   1001.9064    265.3606 307.5118075  +6.5878484     5970.149     9079.239      9403.71     78.19406     155.7083     311.5405      1.597     3.63     833.6853      54.8977     878.8737        32     1.562     0.920 -41.99   0
       516    479.9628    265.3967 307.7286135  +6.5704864     2150.853     3138.132     3179.274     77.20108     155.5224     311.2617      1.500     3.59     833.7454      54.8977     380.7422        17     1.357     0.767 -33.67   0
       517    250.8949    262.0875 307.8238713  +6.5642102     596.8754      971.279     1592.916     78.07063     156.1413     311.5095      1.554     3.74     839.2433      54.8977     91.71796         5     1.029     0.390 -32.28   0
       518    242.5111    261.0651 307.8273878  +6.5643523     6448.967     8913.173     9420.914     78.07063     155.9559     311.4476      1.457     3.59      839.539      54.8977     1062.296        26     1.411     0.815 -37.89   0
       519    910.8137    259.2430 307.5498504  +6.5873538     628.6937     957.3069     976.1914      77.3259     155.5844     311.1997      1.587     4.41     834.5468      54.8977     102.2095         6     1.075     0.514 -27.20   0
       520    807.4115    259.1371 307.5928064  +6.5839651     460.0779     677.9911     555.9563     77.57494     155.5844     311.2927      1.284     3.41     835.0384      54.8977     97.40222         5     1.175     0.286 -34.64   0
       521    762.0580    254.3164 307.6118064  +6.5844490      851.028      1169.16     658.0793     78.07063     155.7702     311.5095      1.227     2.31      834.986      54.8977     192.0444         7     0.777     0.638 -64.70   0
       522    218.7700    253.8377 307.8374912  +6.5665434     627.2026     821.2548     588.5026     77.69916     155.5224     311.3237      1.480     3.39     840.5445      54.8977     97.14734         5     0.962     0.345 -45.85   0
       523    376.6953    251.8250 307.7719619  +6.5726472     1851.513     2762.995     2833.794     78.19406     155.5224     311.3237      1.501     3.90     835.2219      54.8977     290.5188        16     1.344     0.729 -43.60   0
       524    782.7202    252.0128 307.6033004  +6.5860867      567.489     691.3192     823.0963     77.69916     155.4604     311.2927      1.258     3.53     834.7889      54.8977     97.06616         5     0.997     0.518 -55.89   0
       525    963.5919    250.5949 307.5282145  +6.5926754     1143.162     1706.856     2281.791     77.45052     155.5224     311.2927      1.506     3.59     833.8413      54.8977      182.757        12     1.204     0.648 -36.48   0
       526    183.1424    248.7600 307.8524597  +6.5674493     554.0416      1055.23     836.0881     78.07063     155.8321     311.4785      1.880     4.09     842.1619      54.8977     113.0148         6     1.123     0.480 -45.80   0
       527    298.7697    247.8719 307.8044622  +6.5716788     1311.537     1555.642     1377.884       77.947     155.7702     311.4166      1.308     3.83     837.4982      54.8977     216.4843        11     1.143     0.626 -39.37   0
       528    146.4012    247.8348 307.8677515  +6.5666030     1940.948     2872.898      2759.75     77.20108     155.5844     311.2617      1.588     4.20     843.3108      54.8977     280.3091        16     1.377     0.724 -33.94   0
       529    556.0798    243.1914 307.6977384  +6.5821911     2289.012     3374.504      3234.45     77.69916     155.3983     311.2927      1.426     3.50     832.7061      54.8977     404.6356        17     1.372     0.681 -38.02   0
       530    899.7985    242.3943 307.5549871  +6.5939456      1777.51     2687.934     3303.715     77.45052     155.4604     311.2617      1.599     3.76     833.8712      54.8977     286.5393        14     1.304     0.741 -36.29   0
       531    837.6232    242.7944 307.5808012  +6.5917167     495.1981      861.816     725.5095     77.57494     155.5224     311.2927      1.539     3.47     834.0936      54.8977     72.18884         5     1.219     0.286 -35.28   0
       532    719.7252    240.6913 307.6298455  +6.5886682     5553.259     7845.231     7789.837     78.07063     155.9559     311.4476      1.503     3.88     834.4617      54.8977     936.2335        25     1.400     0.845 -38.11   0
       533    957.4327    240.4539 307.5311104  +6.5966587     773.3516     1168.212     1130.698     77.94701     155.7083     311.4166      1.664     5.45     833.5634      54.8977     120.5036        11     1.245     0.673 -39.30   0
       534    660.4672    240.6653 307.6544616  +6.5867084     2428.555     3313.761     2945.793     78.07063     155.7702     311.4785      1.421     3.89     834.2069      54.8977     384.6027        13     1.287     0.632 -38.54   0
       535    375.4575    234.8657 307.7730437  +6.5796087     833.7011     964.7144     1035.512     78.19406     155.7083     311.4785      1.420     5.09     835.0219      54.8977      134.083        10     1.479     0.495 -33.42   0
       536    915.6671    232.7434 307.5487166  +6.5984573      1234.86     1802.434     1720.982     78.19406     155.7083     311.4166      1.575     3.60     833.4599      54.8977     221.5103        12     1.158     0.673 -49.37   0
       537    219.1742    226.1530 307.8382514  +6.5779883     2617.062      3777.39     3855.404     77.69916     155.8321     311.3237      1.458     3.61     840.7705      54.8977     416.7063        19     1.322     0.802 -48.17   0
       538    861.9440    224.8006 307.5712978  +6.5999543     1792.588      2435.92     2788.187      77.3259     155.4604     311.1378      1.449     3.63     833.2688      54.8977     256.8844        14     1.173     0.725 -38.12   0
       539    752.3240    224.3627 307.6168487  +6.5964943     1639.471     2286.569      2275.32     77.94701     155.8321     311.4785      1.423     3.95     833.5521      54.8977     297.6691        16     1.453     0.671 -41.11   0
       540    676.1672    224.7613 307.6484707  +6.5937978     555.8716     606.9881     489.7066     77.69916     155.5844     311.2307      1.089     3.31       833.68      54.8977     99.74902         6     0.766     0.545 -52.37   0
       541    241.1176    219.7399 307.8293518  +6.5813695     638.6313     871.4128     1021.024     78.19406     155.8321     311.4785      1.711     4.90     839.9192      54.8977     93.17261         8     1.460     0.466 -35.63   0
       542    453.0972    215.9470 307.7414266  +6.5900098     24959.14     35877.45     37279.11     77.94701     155.7702     311.6952      1.492     3.71     832.8636      54.8977     4199.965        45     1.549     0.928 -42.87   2
       543    458.6663    210.6592 307.7392901  +6.5923789      1635.68     2504.746     2815.045     78.19406     155.7083     311.4476      1.702     4.47       832.63      54.8977     263.5181        17     1.473     0.783 -57.91   3
       544    314.2075    217.8887 307.7990540  +6.5845748     825.0873     1087.914     916.4201     77.57494     155.4604     311.1997      1.368     4.75     836.9963      54.8977     116.3025         9     1.006     0.674 -63.14   0
       545    779.1245    214.9548 307.6060294  +6.6012695     14014.79     20689.18     22553.57     77.94701     155.8321     311.4785      1.535     3.89     833.1216      54.8977     2418.879        49     1.711     1.033 -29.27   0
       546    866.7977    215.5697 307.5695890  +6.6039271     458.9378     716.1852     1291.919     77.57494     155.5844     311.2617      1.610     3.48     832.9875      54.8977       74.633         5     0.799     0.437  20.36   0
       547    717.8083    210.9429 307.6316342  +6.6008884     789.9246     1143.214     900.1097     77.45052     155.7083     311.1997      1.535     5.25     833.1949      54.8977     98.34186         9     1.298     0.601 -57.52   0
       548    141.2717    209.4948 307.8711684  +6.5822625     2526.849     3521.354      3646.57     77.94701     155.8321     311.4476      1.439     3.59     842.7891      54.8977     375.2096        16     1.244     0.719 -37.48   0
       549    116.0535    208.4731 307.8816776  +6.5818409     1216.955     1879.834     1750.136       77.947     155.7083     311.4166      1.757     4.12     843.4114      54.8977     184.2275        12     1.209     0.669 -42.28   0
       550    772.5022    206.9598 307.6090469  +6.6043509      708.467     1134.871     1739.283     78.07063     155.6464     311.6642      1.646     4.52     832.9185      54.8977     127.6126         8     1.376     0.422 -29.02   0
       551    168.2194    207.6163 307.8600382  +6.5839392     625.4326     783.2241     1485.801     77.82318     155.5224     311.3547      1.133     2.45     842.0765      54.8977     150.1852         5     0.732     0.426 -23.18   0
       552    915.6776    205.4069 307.5496223  +6.6097457     1540.757     2293.577      2443.74     77.69916     155.2741     311.2617      1.608     3.75     832.3894      54.8977      251.531        14     1.217     0.798 -46.99   0
       553    577.1976    201.6315 307.6903547  +6.6000553     5076.812     7219.938      7023.85     77.45052     155.5844     311.2307      1.507     3.75     831.9224      54.8977     831.7712        25     1.487     0.803 -39.35   0
       554    539.7912    201.7034 307.7058909  +6.5987800     2201.809     2993.559     2673.322     77.82318     155.3983     311.2617      1.405     3.32     831.6629      54.8977     358.8377        16     1.330     0.686 -46.48   0
       555    297.3592    202.6568 307.8065627  +6.5903018     1195.568     1622.226     1546.456     78.07063     155.7702     311.4785      1.449     4.94     838.0234      54.8977     184.2869        13     1.328     0.693 -38.73   0
       556    381.7133    200.8847 307.7715826  +6.5938488     1663.941     2346.764     2281.827     77.82318     155.9559     311.5095      1.506     3.99     834.3572      54.8977      251.145        13     1.288     0.633 -43.56   0
       557    938.1689    198.7043 307.5405022  +6.6132595     2786.603     4212.755     4685.194     78.19406     155.5844     311.5095      1.641     4.31     832.0609      54.8977     397.7967        20     1.394     0.826 -42.85   0
       558    884.2097    198.1456 307.5629363  +6.6116999     11651.81     16907.48      17370.9     77.45052     155.7083     311.1688      1.492     3.51       832.33      54.8977     1802.447        35     1.487     0.895 -39.65   0
       559    311.9008    198.8013 307.8006515  +6.5923793      1065.45     1616.512     2068.988     77.57494     155.5224     311.1688      1.504     3.76     837.3901      54.8977     171.2828        11     1.159     0.662 -49.70   0
       560    203.3242    198.5856 307.8457594  +6.5888416     594.0433     593.6979     263.5958     77.57494     155.5224     311.2927      1.299     4.45      841.084      54.8977     85.79358         7     1.263     0.447 -40.30   0
       561    970.8985    195.9159 307.5269987  +6.6154963     9903.428     14671.71     15504.13     78.07063      156.203     311.5095      1.565     3.59     831.8293      54.8977     1493.983        36     1.516     0.992 -41.03   0
       562    559.2247    197.8941 307.6979455  +6.6010001     876.1324     1422.142      1644.69     78.19406     155.5224     311.2927      1.697     5.32     831.6835      54.8977     169.9753        13     1.399     0.701 -38.88   0
       563     10.2813    195.0294 307.9260632  +6.5838517     27205.64     39998.61     42138.41     77.94701     155.6464     311.4476      1.535     3.59     845.8984      54.8977     4033.207        51     1.571     0.998 -36.64  16
       564    682.1880    195.9528 307.6469311  +6.6058938     3020.747     4311.532     4842.853     77.45052     155.6464     311.1378      1.457     3.97     832.5884      54.8977     515.9314        18     1.392     0.691 -41.59   0
       565    256.2745    196.0061 307.8238514  +6.5916758     1216.814     1496.801     1317.289     77.69916     155.3362     311.2927      1.433     4.99     839.6169      54.8977     214.2563        13     1.417     0.643 -33.69   0
       566    490.7197    191.0315 307.7266317  +6.6015519     2185.007     3313.515     3156.136     77.94701     155.7083     311.4166      1.532     3.74     831.7103      54.8977     411.6557        16     1.294     0.806 -34.78   0
       567    408.9842    188.9969 307.7606524  +6.5996672     432.9211     500.7134     796.4532     77.69916     155.3983     311.2927      1.198     3.74      833.089      54.8977     71.87567         5     0.662     0.606  -0.04   0
       568    822.8727    187.4813 307.5887718  +6.6140673     2064.906     3102.297     3178.505      78.3173     156.0795     311.4785      1.598     3.48     832.2074      54.8977     352.1544        15     1.269     0.705 -37.63   0
       569    502.7747    186.8737 307.7217631  +6.6036704     2744.034     3853.208     3692.113     77.69916     155.6464     311.3857      1.441     3.74     831.5685      54.8977     526.0961        19     1.421     0.722 -43.39   0
       570    875.3589    186.4189 307.5670036  +6.6162485     2053.582     3171.994     3256.553     77.69916     155.5844     311.1998      1.589     4.70     832.0059      54.8977     357.7761        15     1.536     0.599 -39.68   0
       571    734.3916    184.1153 307.6256402  +6.6125175     43233.02     60975.89     63537.77     77.69916     155.4604     311.2927      1.453     3.60      832.314      54.8977     6928.946        54     1.518     0.937 -41.16   0
       572    337.4492    183.6873 307.7905452  +6.5994729     6428.049     11951.07     12512.13     78.07063     155.6464     311.5095      2.007     6.45     836.2469      54.8977     814.1282        39     2.005     1.011 -64.49   0
       573    968.1257    182.8727 307.5285846  +6.6207903     2971.845     4355.095      4093.36      78.3173     156.0177     311.5095      1.547     3.58     831.2776      54.8977     505.6688        20     1.346     0.823 -33.95   0
       574   1006.6030    181.6387 307.5126413  +6.6225755     1787.913     2690.818     2314.104     77.20108     155.5224     311.1998      1.573     3.68     831.0374      54.8977     267.1478        16     1.224     0.816 -39.42   0
       575    902.3240    181.1849 307.5559761  +6.6193046     7801.962     11417.65     12341.83     77.57494     155.5224     311.3237      1.528     3.71     831.6201      54.8977     1136.497        28     1.478     0.841 -42.11   0
       576    445.7561    180.3639 307.7456663  +6.6044581      5630.14     7833.627     8321.359     77.82318     155.7083     311.3237      1.441     3.57     832.0508      54.8977      889.907        21     1.458     0.714 -37.57   0
       577    220.6334    177.0242 307.8392924  +6.5983230     841.1255     1142.554      784.143     77.57494     155.5844     311.2617      1.401     4.96     840.6403      54.8977     157.3044         9     1.220     0.572 -36.38   0
       578    103.1259    171.8578 307.8882763  +6.5965272     5408.091     7464.372     7699.322     78.07063     155.7702     311.4166      1.433     3.59     843.5949      54.8977     920.0609        22     1.351     0.799 -37.78   0
       579    922.6455    170.8683 307.5478776  +6.6242389      840.679     1007.101     1321.203     78.07063     155.7083     311.4476      1.403     4.16     831.0646      54.8977     137.1268        10     1.085     0.769 -37.68   0
       580    273.4459    168.4659 307.8176415  +6.6036212     37439.39     53199.16     55142.47     78.07063     155.7083     311.4476      1.523     3.64     839.6646      54.8977     5631.815        50     1.542     0.944 -39.50   0
       581    248.7158    169.5473 307.8278780  +6.6023485     7350.593     10349.52     10575.02     78.07063     155.7083     311.5714      1.508     3.55      840.103      54.8977      1143.64        27     1.464     0.825 -39.11   0
       582    599.4932    170.2256 307.6821422  +6.6137658     654.0521     762.6635     1373.397     78.19406     155.5224     311.2927      1.224     4.46     831.2335      54.8977     125.7559         7     1.007     0.561 -38.97   0
       583    702.7139    167.8399 307.6393425  +6.6181849     993.3364     1583.248     1997.899     78.07063     155.7702     311.4476      1.705     3.46     831.6339      54.8977     202.9807        11     1.194     0.667 -34.21   0
       584    397.5250    163.9226 307.7662516  +6.6096386     55546.55     78167.99     80738.79      78.3173     156.0177     311.5095      1.482     3.81     833.0341      54.8977     8939.166        57     1.533     0.953 -38.92   0
       585    153.4872    165.3750 307.8675747  +6.6008885     4476.216     6353.788     6271.512     78.19406     155.5844     311.3237      1.519     3.72     841.5392      54.8977     698.3625        21     1.389     0.805 -44.35   0
       586    414.7145    164.5598 307.7590898  +6.6099488     1722.613     2067.099     2094.878     78.07063     155.7083     311.4166      1.331     2.96     832.2054      54.8977     303.1883        13     1.097     0.707 -41.51   0
       587    567.9882    163.3766 307.6954584  +6.6155450     551.9464     751.8295     1140.563     77.69916     155.5844     311.3547      1.357     4.41     831.0254      54.8977     73.08704         6     1.158     0.478 -71.14   0
       588    736.8062    160.0001 307.6254416  +6.6225556     35673.99        49950     51552.37     77.45052     155.4604     311.2617      1.458     3.70     831.5121      54.8977     6399.057        51     1.513     0.938 -40.66   0
       589    301.5489    161.6333 307.8061967  +6.6073809     20178.79     28512.62     28864.01     77.94701     155.8321     311.3547      1.507     3.76     838.6641      54.8977     2999.794        41     1.517     0.910 -37.86   2
       590    308.9712    161.6374 307.8031133  +6.6076270     2211.534     3507.853     4299.333     77.69916     155.5224     311.3237      1.882     7.09     838.2012      54.8977     375.0845        26     2.053     0.973 -65.41   2
       591    685.1284    161.7157 307.6468522  +6.6201289     993.5938     1428.849     1717.989     78.19406     156.0177     311.4785      1.523     4.33     831.3243      54.8977     171.5822        12     1.220     0.788 -40.23   0
       592    785.0717    160.4250 307.6053769  +6.6239840     1261.135     1593.744      2276.94     77.69916     155.6464     311.3857      1.494     4.96     831.5045      54.8977     201.9548        11     1.203     0.669 -44.45   0
       593     23.8088    161.0554 307.9215856  +6.5983328     634.2612     1009.935     1031.665     77.45052     155.7083     311.1688      1.938     4.42      845.582      54.8977     94.57208         8     1.103     0.504 -33.48   0
       594     53.5853    157.5062 307.9093363  +6.6007951     10005.73     14310.05      15091.3     77.82318     155.5224     311.2927      1.526     3.48     844.7827      54.8977     1492.413        33     1.495     0.881 -37.66   0
       595    560.5799    158.2637 307.6987068  +6.6174095     489.1905     741.5303     250.5802     77.69916     155.7702     311.2927      1.433     3.46     830.9155      54.8977       77.737         5     0.749     0.462 -72.89   0
       596     87.5129    155.4056 307.8953140  +6.6027980     1693.756     2434.603     1612.462     77.57494     155.4604     311.1688      1.451     3.42     843.8041      54.8977     252.5336        14     1.204     0.706 -43.61   0
       597    995.2061    154.4797 307.5182794  +6.6334125     1241.281      1735.94     1868.662     77.69916     155.3362     311.1998      1.530     3.60     829.9771      54.8977     184.2319        13     1.113     0.777 -30.20   0
       598    721.3699    147.7068 307.6322642  +6.6271186     603.8144     712.7771      831.849     78.19406     155.5224     311.3857      1.165     4.25     830.8705      54.8977     117.8489         7     1.103     0.466 -28.30   0
       599    570.8575    144.6820 307.6948911  +6.6233600      920.722      1106.54     562.0038     78.19406     155.7702     311.4785      1.276     2.46     830.6202      54.8977     163.6861         7     0.816     0.548 -34.00   0
       600    996.2002    140.5820 307.5183288  +6.6391842     2235.289     3574.132     3897.982     77.69916     155.3362     311.1378      1.664     3.87     829.6996      54.8977     364.0449        22     1.423     0.958 -57.33   0
       601    579.4164    138.2409 307.6915508  +6.6263046     1157.341     1432.886     1915.672     77.57494     155.5844     311.2307      1.306     4.46     830.4612      54.8977     167.4229        10     1.146     0.655 -43.37   0
       602    272.2116    134.8326 307.8192814  +6.6174676     33348.09     48243.79      50756.1     77.57494     155.4604     311.3237      1.523     3.77     839.8251      54.8977     5311.143        64     1.810     0.965 -33.83   0
       603    587.6702    136.2780 307.6881876  +6.6273899     2189.588      3195.32     3471.992      78.3173     156.0177     311.4166      1.472     4.40     830.4158      54.8977     357.0458        17     1.487     0.715 -47.63   0
       604    331.8477    136.5930 307.7944492  +6.6187319     1111.873      1376.48     1104.734     77.57494     155.5844     311.0758      1.324     3.90     837.2782      54.8977     177.9234        12     1.133     0.717 -53.51   0
       605     17.5460    133.2579 307.9251210  +6.6096008     4816.496     6737.835     7279.199     78.19406     155.7702     311.4476      1.512     3.56     845.5031      54.8977     763.5947        23     1.402     0.821 -37.18   0
       606    703.9837    131.1731 307.6400385  +6.6333677     8524.247     12332.58     12811.12     77.69916     155.5844     311.3547      1.471     3.64     830.1351      54.8977     1473.046        28     1.470     0.844 -41.99   0
       607    181.5206    132.5912 307.8570296  +6.6153626     960.5358     1526.617     1570.216     77.69916     155.3983     311.2927      1.337     4.66     840.5452      54.8977     160.0334         8     1.406     0.438 -54.36   0
       608    257.9633    129.7995 307.8253688  +6.6190699      904.694     1368.454     1322.692     77.20108     155.5844     311.2617      1.590     4.88     840.0507      54.8977     140.4777        11     1.135     0.723 -26.43   0
       609    114.7253    128.4774 307.8849142  +6.6148274     5390.677     7664.641     7507.301      78.3173     156.0177     311.5095      1.493     3.48     841.9097      54.8977     808.5021        26     1.460     0.835 -38.50   0
       610    576.6326    126.5379 307.6930983  +6.6310443     848.9578     1152.869     1585.984     77.82318     155.8321     311.3857      1.464     4.82     830.2114      54.8977     126.0701         8     1.238     0.532 -32.18   0
       611    453.7966    125.5651 307.7441594  +6.6273536     1341.425     1960.577     1589.815     77.20108     155.5844     311.1997      1.418     4.56     831.0722      54.8977     226.6245        12     1.356     0.586 -43.32   0
       612    385.5417    124.3121 307.7725554  +6.6255947     4293.177     6796.519      6730.84     78.07063     155.7702     311.5714      1.713     3.77     834.0176      54.8977     628.3815        32     1.547     1.083 -54.80   0
       613    642.9152    125.0738 307.6656117  +6.6338550      926.283     1091.416     1003.951     78.19406     156.0795     311.4785      1.437     3.83     830.1035      54.8977     175.1146         9     1.165     0.506 -34.79   0
       614    562.1088    123.2020 307.6992433  +6.6319382     779.5333     1395.028     1134.833      77.3259     155.4604     311.2307      1.502     4.83     830.1205      54.8977     143.1917         8     1.402     0.471 -61.94   0
       615    349.8410    123.3587 307.7874179  +6.6247971      3502.07     4903.589     4766.851     77.82318     155.7702     311.3237      1.378     3.58     836.8155      54.8977     610.2234        21     1.379     0.725 -38.55   0
       616    104.0871    123.4010 307.8895036  +6.6165675       1941.3     3021.807     2825.181      77.3259     155.3362     311.1688      1.560     4.24     842.0775      54.8977     303.0663        19     1.563     0.710 -36.83   0
       617    932.5251    122.8375 307.5453724  +6.6443999     605.5209     1049.309     974.9536     77.94701     155.8321     311.4785      2.049     3.10     829.5171      54.8977     113.0504         6     0.928     0.629  -8.62   0
       618    665.8396    121.0675 307.6562220  +6.6362720     883.2074     1148.021     1269.337     77.94701     155.7083     311.5405      1.366     4.12      829.935      54.8977     207.5781         7     1.157     0.459 -37.57   0
       619    996.6880    117.4284 307.5188965  +6.6487612     1530.337     2229.468     2562.816     78.19406     155.5224     311.3237      1.705     4.23     829.1973      54.8977     227.3638        15     1.346     0.736 -40.77   0
       620    722.6730    117.1722 307.6327416  +6.6397704     667.5294     996.5965     740.3793     77.94701     155.7083     311.3857      1.515     4.42     829.4054      54.8977     97.11768         8     1.062     0.523 -37.37   0
       621    201.6999    112.2622 307.8493289  +6.6244312     6100.213     8619.862     8696.326     77.82318     155.7702     311.5405      1.471     3.64     840.4033      54.8977       995.26        26     1.463     0.819 -37.72   0
       622     84.4799    112.1898 307.8980247  +6.6205406     2250.831     3217.378      3242.25     77.69916     155.4604     311.2927      1.527     3.74     842.4297      54.8977     318.6708        20     1.352     0.894 -31.90   0
       623    839.8976    112.2099 307.5842076  +6.6457142     492.6508     693.7629     1288.696     77.82318     155.3983     311.2927      1.399     4.28     828.4809      54.8977     78.93542         5     0.747     0.699  10.47   0
       624    811.4952    110.9967 307.5960475  +6.6452720     1148.622      1392.08      1757.21     77.82318     155.4604     311.1378      1.397     4.20     828.4669      54.8977     174.0303        12     1.225     0.687 -46.45   0
       625    663.5599    110.9459 307.6575069  +6.6403756     6891.161     9416.469     9791.992       77.947     155.7702     311.4476      1.456     3.75     829.6276      54.8977     1154.035        27     1.430     0.818 -42.35   0
       626    615.7240    108.2624 307.6774691  +6.6398920     10386.97     14683.97      15434.9      78.3173     155.7702     311.4476      1.488     3.74     829.7485      54.8977     1757.299        34     1.469     0.882 -38.16   2
       627    619.2620     99.7494 307.6762836  +6.6435249     58356.31     82259.57     84762.73     78.07063     155.7083     311.5095      1.473     3.64      829.541      54.8977      9760.57        59     1.522     0.945 -42.13   2
       628    250.6420    108.7841 307.8291146  +6.6275028     787.1915     1372.423     761.1646     77.57494     155.5224     311.2307      1.740     5.01     840.1635      54.8977     108.3068         9     1.362     0.522 -37.70   0
       629    553.9456    107.5841 307.7031564  +6.6381153     644.0848     1062.924     1591.061     77.45052     155.7702     311.1688      1.579     5.16     829.7798      54.8977     143.9302         9     1.488     0.505 -55.17   0
       630     14.6037    107.4262 307.9272111  +6.6201682     1052.088     1630.367     1468.217     77.57494     155.5224     311.2927      1.685     6.68     845.4319      54.8977     150.7023        16     1.617     0.799 -50.36   0
       631    342.8123    104.0747 307.7909835  +6.6325252     4196.712     6278.522     7204.187     77.57494     155.4604     311.2307      1.582     4.15     837.7166      54.8977     684.0813        25     1.642     0.749 -43.72   0
       632    524.7770    103.0905 307.7154240  +6.6389992     1944.688     2691.687     2505.225     78.07063     155.5844     311.3237      1.410     3.98     829.9255      54.8977     307.8697        17     1.348     0.765 -42.50   0
       633    989.3157    102.7234 307.5224485  +6.6545889     934.0251     1331.487      1481.41     78.19406     156.0795     311.5405      1.466     4.75      828.913      54.8977     121.6923         9     1.147     0.558 -48.65   0
       634    298.2972     93.5745 307.8098276  +6.6353747     4009.892     5534.647     6269.958     78.19406     155.5224     311.3547      1.441     3.53     839.2764      54.8977     624.6514        21     1.394     0.777 -41.90   0
       635    787.8218   1017.9384 307.5756658  +6.2699806       5881.5     10488.04     11383.26     77.69916     155.7702      304.369      1.920     4.21     857.8922      54.8977     695.7974        36     1.646     1.165 -38.72  16
       636    698.0444     87.8443 307.6439518  +6.6510617     986.0397     1364.809     1274.435     78.07063     155.7702     311.3856      1.425     3.75      828.631      54.8977     168.7512        10     1.104     0.733 -38.09   0
       637    669.7773     86.7261 307.6557325  +6.6505834     1374.529     1989.775      1977.49     77.69916     155.5844     311.4166      1.500     4.16     828.9166      54.8977     228.5561        13     1.270     0.649 -41.69   0
       638    683.5896     83.6602 307.6500966  +6.6523087     3597.464     5128.865     5427.638     77.45052     155.6464     311.1688      1.521     3.89     828.7084      54.8977     589.6602        21     1.370     0.888 -42.36   0
       639     55.1101     82.1914 307.9112324  +6.6319441     522.4092     694.1144     148.9391     77.69916     155.4604     311.2307      1.343     3.89     842.7208      54.8977     108.1369         5     0.817     0.531 -51.37   0
       640    425.3341     74.8239 307.7576811  +6.6473564     4411.368     6392.947     6529.845     77.69916     155.7702     311.3857      1.548     3.82     831.4628      54.8977     716.6639        22     1.373     0.811 -45.00   0
       641    879.9357     71.0893 307.5689439  +6.6640232     2167.518     3106.011     3436.868     77.94701     155.9559     311.4785      1.492     4.13     827.1617      54.8977      349.249        18     1.377     0.767 -32.61   0
       642    897.9368     70.0223 307.5615008  +6.6650612     4116.757     6076.017     6529.938     77.69916     155.7702     311.3237      1.531     4.02     827.2052      54.8977     657.8501        23     1.445     0.841 -35.15   0
       643    578.1527     70.6707 307.6943334  +6.6541637     822.4193     1246.274     1279.776     78.07063     155.7083     311.4476      1.474     4.37     829.1328      54.8977     143.5016         8     1.099     0.495 -54.22   0
       644    589.8723     68.6450 307.6895323  +6.6553903     1922.025     2418.132     2225.889     77.94701     155.8321     311.4785      1.352     3.58      829.013      54.8977     322.8993        15     1.271     0.700 -34.31   0
       645    609.7693     68.3917 307.6812746  +6.6561573     531.4265     791.1138    -65.87292     77.57494     155.5844     311.2307      1.468     4.01     828.8419      54.8977     106.0836         5     0.982     0.469  -9.05   0
       646    235.7216     68.0471 307.8366785  +6.6438250     900.4076     1218.588     1686.702     78.07063     155.8321     311.4166      1.606     4.85     839.9617      54.8977     138.5453         9     1.147     0.582 -28.71   0
       647    388.8688     66.6254 307.7731044  +6.6495254     2150.291     3039.499     2962.262     77.69916     155.6464     311.3857      1.495     3.43     834.3578      54.8977      402.252        15     1.218     0.718 -38.71   0
       648    136.6653     63.5421 307.8779796  +6.6423735     3399.907     5081.095     4840.452     78.19406     155.7083     311.4785      1.577     4.20      839.553      54.8977     529.1395        22     1.564     0.763 -38.73   0
       649     18.5465     61.4424 307.9271183  +6.6392871     13481.72     19822.17      21742.4     78.07063     155.7702     311.4476      1.625     3.65     843.4758      54.8977     1931.045        46     1.570     1.074 -39.28   0
       650    284.8074     61.8888 307.8164934  +6.6480077     1367.054     2122.759     2479.776     77.57494     155.4604     311.1997      1.520     3.79      839.512      54.8977     249.5292        11     1.131     0.633 -46.43   0
       651    753.4069     60.5611 307.6218619  +6.6641681     733.3392     1059.628      1195.29      77.3259     155.4604     311.1688      1.590     4.13     827.6641      54.8977     146.4416         7     1.097     0.444 -59.52   0
       652    558.2490     61.0836 307.7029226  +6.6574596     770.1623     993.9464     924.0833     78.07063     155.7702     311.5405      1.405     3.58     829.1713      54.8977     133.2129         9     0.942     0.651 -28.01   0
       653    545.3177     60.9656 307.7082988  +6.6570776     838.3431     1183.639     1176.121     78.07063     155.7702     311.4166      1.409     3.88     829.2956      54.8977     127.4266         8     1.021     0.635 -54.58   0
       654    939.2955     60.0460 307.5446502  +6.6705529     589.1729     775.6335     887.7196     78.07063     155.7083     311.6024      1.437     3.38      826.733      54.8977     107.7087         5     0.989     0.334 -47.04   0
       655    147.5676     60.2669 307.8735605  +6.6440906     600.0302     754.4261     814.0164     77.94701     155.8321     311.3857      1.403     4.38     839.3506      54.8977     89.61072         7     0.978     0.558 -35.70   0
       656    887.1194     57.0923 307.5664257  +6.6700414     711.9328     994.8826     1402.381     77.82318     156.0177     311.5095      1.564     4.45     826.7696      54.8977     105.0372         8     0.860     0.656 -56.18   0
       657    820.3256     55.8271 307.5942179  +6.6683462     6707.929      9431.42     10159.48     77.82318     155.7083     311.4166      1.486     3.75     826.8442      54.8977     999.4948        25     1.432     0.823 -41.97   0
       658    765.4283     56.1922 307.6170132  +6.6663716     3659.353      5415.37     6387.447     77.69916     155.5844     311.2617      1.605     3.75     827.4147      54.8977     563.7119        24     1.457     0.837 -44.35   0
       659    410.4780     56.7930 307.7644563  +6.6543062     1150.749     1796.688     1948.387     77.69916     155.2741     311.2307      1.431     4.53      832.621      54.8977     192.4202        13     1.438     0.666 -39.66   0
       660     90.1433     56.9714 307.8975262  +6.6435301     652.1223     801.5919     791.9323     77.69916     155.8321     311.3547      1.646     4.70     840.0577      54.8977     96.48541         6     1.145     0.546 -72.43   0
       661    752.4526     55.5260 307.6224263  +6.6662155     676.2152      986.824     1677.687     78.07063     155.8321     311.4785      1.533     4.79     827.6183      54.8977      88.9505         7     0.925     0.703 -16.09   0
       662    527.7260     54.2949 307.7158302  +6.6592461     1294.734     1804.574     2020.817     77.82318     155.9559     311.4476      1.578     3.64     829.4014      54.8977     203.7038        13     1.186     0.739 -42.31   0
       663     58.8702     53.3920 307.9106378  +6.6439614     3482.194      4914.87     4958.894     77.57494     155.3983     311.3547      1.485     3.59     841.2988      54.8977     522.8755        21     1.343     0.813 -36.16   0
       664     43.3507     53.9158 307.9170672  +6.6432255     912.9272     1442.621      1136.27     78.07063     155.7702     311.5095      1.621     4.05     842.0638      54.8977     134.7812        10     1.005     0.759 -56.11   0
       665    647.7400     53.3474 307.6660022  +6.6636330     643.3411     775.3403     835.7735     78.07063     155.7083     311.4476      1.452     4.21     828.2504      54.8977       97.065         7     1.119     0.452 -29.69   0
       666    420.1937     52.9143 307.7605499  +6.6562318     961.1029      1278.37     1442.792     77.57494     155.4604     311.1997      1.380     4.11     831.9768      54.8977     165.8553         8     1.067     0.495 -38.70   0
       667    582.7390     49.8393 307.6931241  +6.6629181     1435.331     1760.262     1225.186     78.07063     155.7702     311.4785      1.274     4.40     828.7495      54.8977     250.9664        10     1.130     0.567 -40.83   0
       668      1.7919     48.5818 307.9345105  +6.6440361     2480.734     2952.169     3317.199     72.96233     130.2823     241.5499      1.232     3.22     843.6716      54.8977     463.7618        14     1.154     0.675 -66.97  24
       669    709.7272     46.4573 307.6404794  +6.6685399     659.3836     868.2556     750.8771     78.19406     155.7702     311.4166      1.383     3.39      827.826      54.8977     98.65918         5     0.748     0.446 -21.74   0
       670    759.8598     43.7088 307.6197431  +6.6713413     2066.456     2813.555     2890.908     77.94701     155.7702     311.5095      1.474     3.38     827.3342      54.8977     373.8435        16     1.212     0.826 -46.14   0
       671    400.6848     44.0022 307.7689529  +6.6592611     1289.007     1775.174     1652.582     77.45052     155.3983     311.1688      1.482     3.62     833.6028      54.8977     235.2428        13     1.207     0.690 -43.22   0
       672     73.5676     44.7863 307.9048212  +6.6480067     956.7976     1324.582     807.6181     77.69916     155.5224     311.3857      1.462     4.77     840.2975      54.8977     145.4167        13     1.308     0.689 -39.14   0
       673     97.9436     42.9234 307.8947575  +6.6495916     1027.631     1548.964     1748.828     78.07063     155.7083     311.4166      1.488     4.11     839.2023      54.8977     158.0624        12     1.261     0.709 -40.22   0
       674     86.5957     37.6023 307.8996503  +6.6514090     10178.19     14891.34     15462.09     77.45052     155.3362     311.1997      1.591     3.79     839.4491      54.8977     1489.537        34     1.503     0.924 -40.05   0
       675    415.5973     37.3342 307.7629809  +6.6625118     2721.991     3986.006      4165.64     77.45052     155.4604     311.2307      1.509     4.14     832.4778      54.8977     448.7683        18     1.443     0.696 -38.64   0
       676    236.4992     37.3015 307.8373863  +6.6565462     639.4409     1093.461     1108.574     78.07063     156.1413     311.2927      1.727     3.17     839.4874      54.8977     120.4879         5     1.095     0.425 -35.24   0
       677    253.3505     31.5838 307.8305773  +6.6594701     1639.604     2109.806      2576.36     77.57494     155.8321     311.1378      1.333     3.37     839.4152      54.8977     264.5963        13     1.176     0.699 -37.73   0
       678    629.4236     29.4240 307.6744108  +6.6729019     20527.64      28500.2     30235.45     77.57494     155.5844     311.3857      1.466     3.48     827.8043      54.8977     3225.338        37     1.468     0.869 -40.86   0
       679    659.1675     30.4207 307.6620201  +6.6734801     523.9398     699.5783     732.6091     77.57494     155.5844     311.2927      1.329     3.32     827.6377      54.8977     108.5873         5     0.869     0.511 -53.17   0
       680    938.4329     29.2260 307.5460347  +6.6832507     581.1759     846.3156     503.6145     77.57494     155.5224     311.2927      1.752     4.35     825.0251      54.8977     79.24896         5     0.942     0.572 -40.60   0
       681    529.2483     25.4720 307.7161614  +6.6711983     5673.025     8239.078      8377.93     78.07063     155.8321     311.4785      1.496     3.51     829.1461      54.8977     966.4009        27     1.454     0.844 -43.53   0
       682    247.3242     25.7972 307.8332749  +6.6616581     1981.728     2861.145     3538.196     77.57494     155.2741     311.3547      1.484     3.95     839.3385      54.8977     327.1691        16     1.403     0.785 -34.56   0
       683    685.6057     24.2370 307.6512425  +6.6769129     547.2887     893.0683     1289.879     77.20108     155.5224     311.2307      1.410     3.40     827.4317      54.8977     87.91278         5     0.759     0.440 -69.92   0
       684    616.8933     23.4805 307.6798151  +6.6749391     1002.246     1591.624     2140.958     77.82318     156.0177     311.5095      1.672     5.94     827.7392      54.8977     143.1703        12     1.431     0.769 -48.75   3
       685    615.5042     19.2627 307.6805332  +6.6766345     3618.385      5281.81       5526.9     77.94701      155.894     311.5095      1.515     3.51     827.6514      54.8977      557.642        20     1.304     0.802 -45.51   2
       686    500.6425     22.5473 307.7281436  +6.6714528       516.13      845.301     712.1396     78.07063     155.8321     311.4785      1.488     3.40     829.2708      54.8977     85.38037         5     1.045     0.320 -68.98   0
       687    885.6523   1014.6304 307.5351628  +6.2745935     1202.355     2335.959     2472.509     77.82318      155.894     311.3857      2.006     6.04     856.6876      54.8977     153.8188        18     1.423     1.060 -30.99  16
       688    255.2744     21.6286 307.8301118  +6.6636450     9985.244     14300.39     15255.69     77.94701     155.7702     311.4166      1.517     3.65     839.3105      54.8977     1586.509        31     1.462     0.872 -36.79   0
       689     20.6720     21.3422 307.9275827  +6.6559158      2536.93      3533.93     3326.456     78.19406     155.7702     311.4476      1.493     3.61     841.5179      54.8977     373.4149        20     1.461     0.780 -39.09   0
       690    912.5528     21.0098 307.5570607  +6.6857848     2121.355     3101.086     3693.287     77.57494     155.6464     311.1068      1.579     3.98     825.0612      54.8977     305.6918        17     1.322     0.786 -46.16   0
       691    315.3278     21.9182 307.8051535  +6.6655311      991.194     1420.493     1663.958      78.3173     156.0795     311.4785      1.536     4.85     838.6851      54.8977     184.0375         9     1.146     0.582 -49.88   0
       692    519.9771     21.2489 307.7201544  +6.6726332     749.7183     1048.141     1118.684     77.69916     155.8321     311.3547      1.464     4.59     829.1554      54.8977     139.2185         8     1.097     0.596 -33.63   0
       693    548.2211     20.5485 307.7084436  +6.6738633     719.6392     874.2988     220.3895     77.57494     155.8321     311.2617      1.272     3.34     828.9745      54.8977     118.8347         5     0.741     0.438 -23.34   0
       694    208.0556   1013.6636 307.8164822  +6.2524400     2001.076     3102.797     3126.818     78.19406     155.7702     311.4476      1.703     4.61     860.1541      54.8977      246.188        21     1.429     0.927 -39.54   0
       695    296.2835     16.3662 307.8132513  +6.6671877     1133.543     1664.436     1699.193     78.07063     155.7083     311.4166      1.587     3.61     839.2006      54.8977     186.4484        10     1.115     0.665 -47.01   0
       696    743.6139   1012.4599 307.5942005  +6.2707747     651.4402     1257.718     1593.439     77.45052     155.7083     311.1688      2.653     5.63     859.5965      54.8977     103.7352         9     1.422     0.629  56.14   0
       697    426.4413   1010.7173 307.7259259  +6.2609416     3861.258     6264.709     6781.427     78.07063     155.7702     311.3857      1.779     4.05     861.7631      54.8977     478.8722        28     1.529     0.992 -42.94   0
       698    711.5551   1010.2957 307.6075813  +6.2706032     6778.423     11269.05     11951.03     78.07063     155.7083     311.5714      1.803     3.82     860.1611      54.8977     784.9877        40     1.627     1.186 -34.32   0
       699    567.7596   1009.5490 307.6673002  +6.2661299     3932.261     6767.914     8448.589     78.07063     155.7702     311.4166      2.001     3.97     861.1285      54.8977     439.7766        35     1.599     1.181 -41.63   0
       700    703.6718   1009.5527 307.6108787  +6.2706480     1186.565     1984.308     2336.712     78.07063     155.8321     311.4476      1.739     4.96     860.2736      54.8977      138.887        14     1.082     0.989 -33.56   0
       701    744.0248   1005.4783 307.5942625  +6.2736712     1290.023     2106.551     2375.715     77.69916     155.6464     311.4166      1.723     4.17     859.3706      54.8977     176.5575        13     1.165     0.792 -30.69   0
       702    951.2103    999.8162 307.5084394  +6.2828848      5379.37     10503.86     11320.04     77.82318     155.5224     311.3237      1.979     4.45     854.5945      54.8977     643.7361        44     1.663     1.422 -44.64   0
       703    705.6127   1000.3530 307.6103795  +6.2745114     966.3746     1397.488     2228.245     77.45052     155.5844     311.1998      1.588     5.58     859.9313      54.8977     142.1733        13     1.194     0.839 -59.71   3
       704    710.9553    998.1004 307.6082367  +6.2756191     2587.637     4436.709     4867.174     78.07063     155.7083     311.6642      1.825     4.31     859.7906      54.8977     306.5085        29     1.586     1.126 -42.19   2
       705    235.6288    999.9845 307.8054944  +6.2590090     1269.112     1979.023     2118.918     77.69916     155.5224     311.3547      1.637     4.12     860.0078      54.8977     191.3491        14     1.249     0.869 -54.14   0
