#   1 NUMBER                 Running object number                                     
#   2 X_IMAGE                Object position along x                                    [pixel]
#   3 Y_IMAGE                Object position along y                                    [pixel]
#   4 ALPHA_J2000            Right ascension of barycenter (J2000)                      [deg]
#   5 DELTA_J2000            Declination of barycenter (J2000)                          [deg]
#   6 FLUX_APER              Flux vector within fixed circular aperture(s)              [count]
#   9 FLUXERR_APER           RMS error vector for aperture flux(es)                     [count]
#  12 FLUX_RADIUS            Fraction-of-light radii                                    [pixel]
#  13 FWHM_IMAGE             FWHM assuming a gaussian core                              [pixel]
#  14 BACKGROUND             Background at centroid position                            [count]
#  15 THRESHOLD              Detection threshold above background                       [count]
#  16 FLUX_MAX               Peak flux above background                                 [count]
#  17 ISOAREA_IMAGE          Isophotal area above Analysis threshold                    [pixel**2]
#  18 A_IMAGE                Profile RMS along major axis                               [pixel]
#  19 B_IMAGE                Profile RMS along minor axis                               [pixel]
#  20 THETA_IMAGE            Position angle (CCW/x)                                     [deg]
#  21 FLAGS                  Extraction flags                                          
         1    191.6412     17.2143 307.8648907  +6.6682397     10258.29     16712.68     17682.83     78.01646     156.4699      312.971      1.725     4.15     831.9183     55.21015     1347.723        41     1.662     1.020 -38.01   0
         2      4.7239     17.2222 307.9425441  +6.6619536     793.3946     1184.797     629.3845     78.14139     156.4699     283.5373      1.680     4.27      833.687     55.21015     143.5927        10     1.171     0.855 -51.68  16
         3    535.8394     15.4049 307.7219495  +6.6805247     2918.755     4577.672     4273.573     77.76601     156.4075     312.9086      1.646     3.96     827.5078     55.21015     396.7349        24     1.522     0.874 -39.12   0
         4    937.3148     14.9589 307.5551571  +6.6941148      3838.33     6184.929     6257.451     78.51498     156.5945     313.1891      1.676     4.22     825.7161     55.21015     508.6424        27     1.550     0.912 -34.79   0
         5    738.0493     13.6681 307.6379932  +6.6880009     1966.707     2899.057     2663.725     78.39064     156.5945     313.2202      1.559     4.28     826.4104     55.21015     248.4586        17     1.417     0.737 -41.14   0
         6    474.1455     13.6511 307.7476405  +6.6791837     1660.793     2513.133     2017.165     78.51498     156.6568     313.2513      1.558     4.18     828.7736     55.21015     227.7889        16     1.316     0.754 -33.49   0
         7   1001.8896     11.2137 307.5284514  +6.6978120     1783.286     2961.378      2459.15     78.26611     156.4699     313.0956      1.700     5.04     822.4266     55.21015     245.5239        22     1.633     0.856 -36.56   0
         8    797.3322     10.4939 307.6134680  +6.6912902     603.6804      643.898      371.299     78.39065     156.8435     313.2513      1.464     5.53     825.8524     55.21015     93.48993         9     1.354     0.637 -44.36   0
         9    721.4209      7.6764 307.6451026  +6.6899192     7114.012     11174.91     11328.96     78.14139     156.4075      310.059      1.684     4.10     826.3311     55.21015     1072.699        33     1.574     0.959 -37.58  16
        10    641.6130      6.8870 307.6782881  +6.6875786     3723.275      5874.53     6291.451     78.14139     156.4699      304.696      1.663     4.18     826.9496     55.21015     518.5961        26     1.481     0.903 -42.45  16
        11    343.7831      6.8014 307.8020319  +6.6776435     871.2491     1477.465     1754.194     78.14139     156.2204      304.023      1.792     5.10     834.7684     55.21015     108.6416        10     1.140     0.645 -43.62  16
        12    397.1050      5.2702 307.7799297  +6.6800630      760.044     1139.823     1222.197     78.39064     156.7191     289.7981      1.473     4.69      832.545     55.21015     110.5541         8     1.292     0.483 -43.52  16
        13    441.8077      3.1802 307.7614272  +6.6824234     6070.065     9501.959      9626.51     78.14139     147.6828     263.5323      1.642     3.90     830.2811     55.21015      826.413        29     1.534     0.937 -37.62  24
        14     42.7056      2.8502 307.9272491  +6.6691642     8252.879     12797.95     13165.32     78.39064     144.4777     259.2785      1.649     3.95     831.9808     55.21015     1088.364        35     1.559     1.009 -32.20  24
        15    688.7424      2.2159 307.6588628  +6.6910819     765.9393     1072.729     1153.277     76.88299     137.1347     249.6183      1.550     4.71     826.4611     55.21015      106.568         9     1.169     0.537 -44.03  24
        16    517.5884      1.0000 307.7300152  +6.6858608     456.4676     656.3332     953.3558     63.23913     118.9263     229.9713      1.398     3.68     827.5403     55.21015     135.0533         5     1.352     0.289   0.00  24
        17      4.8369    998.9008 307.9094483  +6.2566958     648.8704     885.8318     1363.968     78.51498     156.5322     285.2522      1.595     4.36     854.4965     55.21015     110.8156         7     1.152     0.470 -34.27  17
        18    730.3766   1023.2114 307.6074376  +6.2709567     5264.776     7140.465     7450.181     73.24454     131.0238     242.9247      1.393     3.97     858.6682     55.21015     797.7653        22     1.405     0.815  -9.47  24
        19    722.6888   1023.0655 307.6106341  +6.2707604     1112.932     1769.717     1949.189     75.08581     133.3848      245.322      1.633     4.41     858.9578     55.21015     172.4492        13     1.281     0.679 -13.64  25
        20    597.6099   1023.5076 307.6625454  +6.2664011     1637.905     2756.479     3580.972     69.83594     126.6324     238.0166      2.164     4.47     862.3345     55.21015     390.8916        18     1.633     0.768   4.46  24
        21    586.4224   1022.7087 307.6672166  +6.2663571     3633.709     5436.227      6272.74     77.64048     137.9149       250.71      1.711     4.32     862.2338     55.21015     447.1034        26     1.398     1.057 -15.82  24
        22    445.5370   1023.3259 307.7256830  +6.2613911     2727.506      3731.05       4378.3     72.57564     129.5264     241.2728      1.448     3.91     860.8745     55.21015     459.4916        16     1.292     0.723  -6.26  24
        23    280.2013    995.1323 307.7952646  +6.2674934     691.3802     1351.211     1231.146     78.01646     156.2204     313.0333      2.055     4.86     859.6865     55.21015     123.9029        10     1.242     0.608 -39.13   0
        24    924.2433    992.1032 307.5279899  +6.2902631     7309.923     13312.77     14498.86     78.51498     156.5945     313.3759      1.951     4.23     856.0185     55.21015     885.7451        48     1.753     1.274 -34.20   0
        25    555.6259    991.5396 307.6810443  +6.2781959     7802.657      12754.9     14133.92     78.14139     156.6568     313.0956      1.768     4.13     861.1269     55.21015     1010.472        40     1.629     1.073 -38.96   0
        26    897.8702    988.3076 307.5390657  +6.2909516     10514.43     19125.94     21011.38     78.51498     156.7813     313.2202      1.961     4.35     856.1065     55.21015     1145.385        54     1.800     1.283 -34.04   0
        27   1019.6010    987.7099 307.4885465  +6.2952514     3701.112      7164.79     7602.791     77.76601     156.1579     290.9738      2.006     4.34      852.814     55.21015      420.113        38     1.667     1.288 -34.28  24
        28    610.7084    988.7001 307.6582716  +6.2812089     1247.812     2121.835     1954.206     78.51498       157.03     313.1891      1.780     5.16     860.9666     55.21015     168.4869        18     1.488     0.873 -33.33   0
        29      8.3518    989.9559 307.9082901  +6.2605066      523.403     810.0733     821.2909     78.51498     156.5945     312.8774      1.569     3.71     854.3452     55.21015     102.2927         5     0.989     0.572 -19.96   0
        30    541.9030    987.2995 307.6868833  +6.2794876     3852.148     6487.418     7103.925     78.51498     157.1541     313.0645      1.808     4.55     860.9523     55.21015     452.9799        33     1.756     1.012 -30.35   0
        31    651.8156    986.5478 307.6412776  +6.2834706     1314.087     2138.089     2599.394     77.89133     156.7191     312.9398      1.773     4.16     860.2566     55.21015     202.2489        15     1.348     0.699 -33.36   0
        32     76.3289    985.8594 307.8802093  +6.2644815     750.1167     1365.583     947.9394     78.63911     156.6568     313.2825      1.880     5.67     855.1987     55.21015     110.6867         9     1.642     0.552 -57.93   0
        33    495.1318    983.8408 307.7064162  +6.2793515     2089.938     3235.496     3025.547     78.39064     156.5945     313.3136      1.669     4.30     860.3808     55.21015     311.3466        22     1.392     0.922 -30.78   0
        34    929.5945    975.8882 307.5263088  +6.2971357     36783.22     66966.33     72557.88     78.01646     156.3452      312.971      1.951     4.30     855.4194     55.21015      4119.17        82     1.845     1.394 -36.02   0
        35      2.6988    975.4764 307.9111239  +6.2662942     2929.352     4449.594      4788.34     78.14139     142.9165     256.9355      1.618     4.18     853.9554     55.21015     336.8134        23     1.423     0.938 -48.92  24
        36    237.1138    974.1717 307.8138552  +6.2747022     1576.039     2747.648     3056.563     78.63911     156.3452     313.0645      1.933     5.38     858.2935     55.21015     208.3717        21     1.675     0.782 -32.31   0
        37    125.0536    972.7551 307.8604227  +6.2715274     671.4227     1027.629     974.8268     78.51498     156.6568     313.2513      1.552     4.36     855.5156     55.21015     117.8776         6     0.903     0.600 -38.10   0
        38    636.2308    972.2703 307.6482250  +6.2888446      842.243     1373.043     1516.885     78.39065     156.6568     313.1891      1.934     4.49     859.9648     55.21015     114.0754        11     1.211     0.679 -12.18   0
        39    827.6735    969.4343 307.5688389  +6.2964040     2091.776      3685.97     4129.135     78.39065     156.5945     313.2202      1.982     4.47     856.4352     55.21015     261.6301        26     1.553     1.032 -33.25   0
        40    775.7841    967.5417 307.5904451  +6.2954550     5930.965     10299.85     11865.12     77.89133     156.5945      312.971      1.890     4.35      857.122     55.21015     704.1543        43     1.801     1.117 -43.18   0
        41    562.2386    966.6900 307.6791304  +6.2886760     851.9126      1321.21      1221.87     78.51498     156.5945     313.2513      1.679     6.52     860.3336     55.21015     113.9433        14     1.464     0.815 -47.54   0
        42    245.3625    966.7800 307.8106789  +6.2780304     1439.348     2403.005     2322.089     78.14139     156.4075      312.971      1.859     4.28     858.1487     55.21015     186.1379        17     1.337     0.914 -33.61   0
        43    209.8593    965.7465 307.8254524  +6.2772664     711.7606     1234.068     1503.286     78.63911     156.5945     313.2202      2.056     5.03     857.2905     55.21015     123.7222         9     1.371     0.627 -46.54   0
        44     70.3194    964.7049 307.8834151  +6.2730129     2586.195     4115.027     4246.509     78.26611     156.9057     313.3136      1.742     4.65     854.7347     55.21015      340.129        22     1.513     0.904 -35.44   0
        45    963.9656    962.6110 307.5124812  +6.3037619     5663.215      10544.8     11096.67     78.01646     156.4699     313.0333      1.968     4.38     854.2356     55.21015      653.791        42     1.738     1.228 -37.41   0
        46    219.4463    958.9039 307.8217021  +6.2804129     701.0885     1099.677     1043.163     78.51498     156.5945     313.3759      1.543     5.49     857.3026     55.21015     116.3422        11     1.470     0.578 -47.86   0
        47    646.3534    956.9437 307.6445349  +6.2955102      758.315     1268.012     782.2828     78.51498     156.6568     313.3136      1.539     4.89     859.3177     55.21015     112.4763         9     1.079     0.627 -37.05   0
        48    937.7958    954.3282 307.5236224  +6.3063101     1801.603     3165.284     3117.511     78.14139     156.2828     313.0645      1.847     5.06      854.546     55.21015     197.6696        21     1.486     0.978 -24.50   0
        49    797.2952    950.6344 307.5820786  +6.3031526     1253.039     2172.728     2985.171     78.63911     156.5322     313.3136      2.048     5.65     856.4406     55.21015     144.0367        17     1.436     0.835 -48.42   0
        50    658.4178    950.2868 307.6397486  +6.2986615     4205.338     6888.488     7005.973     78.26611     156.4075     313.0956      1.751     4.07     858.9586     55.21015      533.845        28     1.566     0.960 -41.25   0
        51    270.5887    950.4548 307.8007542  +6.2856158      4331.38     6994.807     7136.005     77.89133     156.5945     312.9086      1.727     3.90     857.9927     55.21015     545.5865        28     1.525     1.027 -36.94   0
        52    480.6706    948.7086 307.7135961  +6.2933719     1089.473     1747.044     1701.226     78.39065     156.7813     313.2202      1.749     3.79     859.6682     55.21015     152.5764        12     1.162     0.659 -45.34   0
        53     39.3931    947.9765 307.8968161  +6.2788800     2095.766     3437.616     3625.083     78.01646     156.4699     313.0645      1.699     4.72     853.9403     55.21015     291.2927        20     1.569     0.806 -39.41   0
        54    890.9138    946.5728 307.5433456  +6.3079502     789.8228     1304.855     1248.141     78.63911     156.3452     313.0956      1.832     5.31     855.3458     55.21015     101.6188        10     1.028     0.774 -66.95   0
        55    961.5043    944.2478 307.5141150  +6.3112613     701.0754     1304.243     1624.385     78.39065     156.5322     313.3759      1.823     5.20     853.9233     55.21015     89.33405         8     1.211     0.630 -77.13   0
        56   1014.1438    942.7811 307.4923086  +6.3136190     688.9948     1278.804     1500.197     78.01646     156.5945     313.0333      2.237     5.04     853.2185     55.21015     109.1529         7     1.201     0.653 -67.91   0
        57    583.3766    942.6420 307.6711591  +6.2993107     1568.808     2390.916     2843.792     78.14139     156.5322     313.0021      1.709     4.96       859.39     55.21015     209.3734        17     1.426     0.795 -50.72   0
        58    306.8394    943.6273 307.7859337  +6.2896495      811.712       1195.4     1678.751     78.14139     156.4699     313.0956      1.480     5.70     858.4774     55.21015     134.6489        10     1.334     0.686 -39.70   0
        59     72.1570    939.9742 307.8834837  +6.2832842     766.3515      1506.56     2057.019     78.14139     156.6568     313.0956      2.316     5.92      854.313     55.21015     99.69934         9     1.232     0.800 -51.04   0
        60    622.7288    938.7972 307.6549498  +6.3022129     1277.555     2034.842     2016.636     78.01646     156.2828     313.0645      1.688     4.80     858.8885     55.21015       193.71        15     1.191     1.027  11.01   0
        61    302.5351    936.8311 307.7879487  +6.2923109      1387.16     2060.661     2450.479     78.26611     156.7191     313.1579      1.549     4.35     858.2136     55.21015     191.9208        13     1.294     0.789 -37.39   0
        62    769.0442    933.3627 307.5943845  +6.3093410     711.8571     1230.099     615.2087     78.26611     156.6568     313.0956      1.697     5.16     856.8555     55.21015     111.7882         9     1.411     0.533 -34.92   0
        63    906.6497    929.4785 307.5373822  +6.3155319     6390.259     10958.35     11399.15     78.51498     156.7191     313.2202      1.820     4.13     854.5165     55.21015     757.4272        41     1.690     1.185 -35.55   0
        64    442.5442    926.8955 307.7301554  +6.3011016     2087.345      3487.24     3968.771     78.39064     156.6568     313.4381      1.830     4.99     859.2448     55.21015     252.2722        21     1.535     0.917 -38.27   0
        65    344.2103    925.0393 307.7710423  +6.2985754     8969.981     14598.41     15136.63     77.89133     156.4699      312.971      1.737     4.20     858.8743     55.21015     1237.496        43     1.738     1.033 -38.40   0
        66    264.2181    924.0038 307.8042865  +6.2963222      6691.71     10782.92     11367.03     78.14139     156.2204     313.0333      1.693     3.97     857.0828     55.21015     946.8413        35     1.620     1.005 -39.65   0
        67    592.6256    918.3729 307.6681310  +6.3096392     1149.978     1678.624     1859.224     78.01646     156.4699     313.0645      1.504     4.53     858.5489     55.21015     173.5322         9     1.135     0.545 -41.90   0
        68    922.4291    914.8290 307.5313192  +6.3221057      861.309     1459.045     1572.065     78.01646     156.4075      312.971      2.060     5.99     853.9629     55.21015       116.09        12     1.459     0.692 -39.09   0
        69    225.7368    914.4094 307.8205843  +6.2989928     656.4869     1000.987     1143.191     78.01646     156.4699     313.0021      1.829     5.59     856.2437     55.21015      97.5495         8     1.114     0.790 -44.11   0
        70    153.9563    914.9908 307.8503648  +6.2963445     537.0361     711.5811     1125.637     78.01646     156.4699      312.971      1.520     4.96     854.9364     55.21015      94.6546         6     1.159     0.600 -30.37   0
        71    758.7173    907.9000 307.5995223  +6.3195088     1586.016     2600.789     2637.307     78.51498     157.1541     313.3136      1.726     4.62     856.6401     55.21015     203.0134        20     1.459     0.933 -40.08   0
        72    582.6065    908.2495 307.6726293  +6.3134838     712.5158     1127.146     867.9819     78.01646     156.4699     312.8463      1.639     5.69     858.4044     55.21015     122.9394         8     1.262     0.723 -37.00   0
        73    851.7451    908.2047 307.5608878  +6.3224853     614.7897      848.768      864.096     77.89133     156.4699     312.9086      1.471     4.02     855.3776     55.21015     98.14514         6     0.813     0.568 -40.25   0
        74      9.3333    904.8259 307.9107465  +6.2956837     982.5205     1679.026      1768.24     78.14139     156.5322     313.1268      1.753     6.24     852.3151     55.21015     117.5345        15     1.357     0.806 -42.77   0
        75    633.6793    904.7356 307.6515423  +6.3166410     525.6469     726.4034     409.4925     78.76305     156.7191     313.1891      1.382     3.51     858.0482     55.21015     98.39026         5     1.198     0.296 -35.92   0
        76    622.8217    904.3387 307.6560635  +6.3164421     835.9379     1265.739     1454.291     78.14139     156.6568     313.1268      1.725     3.84     858.0853     55.21015     144.3073        10     1.169     0.707 -52.11   0
        77    989.7600    903.5732 307.5037387  +6.3289947     1103.097     1626.963     2120.751     78.14139     156.4699     313.0333      1.604     4.59     852.3658     55.21015     142.6078        12     1.178     0.700 -41.93   0
        78    544.2010    903.2188 307.6887429  +6.3142769     1038.292     1524.032     1621.433     78.14139     156.2204     312.9398      1.721     4.81     858.5065     55.21015     160.6835        12     1.349     0.655 -40.88   0
        79    677.2076    901.0422 307.6335934  +6.3196195     2286.164     3633.699     4114.826     78.01646     156.4699     312.9398      1.703     4.29      857.746     55.21015     306.0202        22     1.473     0.900 -34.24   0
        80    967.8193    899.3522 307.5129891  +6.3300069     511.5762     1207.278     1518.422     78.01646     156.6568     313.0333      2.630     5.86      852.703     55.21015     85.62836         7     1.616     0.598 -42.58   0
        81     73.7376    897.1638 307.8842669  +6.3010107     2689.755     4614.792     4864.438     78.51498     156.6568     313.2202      1.783     4.32     853.4927     55.21015     353.3109        25     1.554     0.994 -34.35   0
        82    955.1962    896.2507 307.5183337  +6.3308671     726.0131     1218.373     932.9926     77.89133     156.4075     312.8151      2.036     5.40     852.9642     55.21015     109.5383         8     1.335     0.617 -30.93   0
        83    837.8439    897.4692 307.5670177  +6.3264541     680.0251     882.6278     723.0452     78.51498     156.5945     313.2513      1.467     4.42      855.317     55.21015     100.7709         7     1.117     0.607 -23.09   0
        84    217.5124    896.0488 307.8246152  +6.3062969     2408.901     3736.427     3987.624     78.51498     156.5322     313.2825      1.607     3.80     856.0646     55.21015     341.4024        18     1.362     0.789 -41.83   0
        85     91.5130    896.3773 307.8769138  +6.3019325      1777.56     2729.792     2921.645     78.51498     156.4699     313.0956      1.721     4.18     853.8708     55.21015     228.4417        16     1.266     0.819 -35.43   0
        86    251.2496    893.1122 307.8107073  +6.3086406      704.705     1250.376     1611.272     78.51498     156.4699     313.3447      1.715     5.46     856.7298     55.21015     127.0978         9     1.338     0.628 -38.29   0
        87    808.9601    891.0955 307.5792228  +6.3281225     635.7892     1002.222     1008.729     78.51498     156.5322     313.3447      1.593     4.99     855.5929     55.21015     108.8719         8     1.229     0.574 -58.05   0
        88    671.9118    890.1837 307.6361551  +6.3239257     6612.201     10762.95     11131.58     78.26611     156.4075     313.0645      1.704     4.17     857.6626     55.21015      826.398        33     1.589     0.982 -38.33   0
        89    357.2299    891.6787 307.7667556  +6.3127841     789.3839     1156.801      1705.09     78.39065     156.7191     313.1891      1.706     4.48     858.0908     55.21015     118.5231         8     1.054     0.630 -35.66   0
        90     31.9250    888.3857 307.9019206  +6.3032299     1143.859     1857.961     1670.272     78.01646     156.4075     313.0645      1.594     4.99     852.3218     55.21015     158.1978        16     1.600     0.639 -49.61   0
        91    909.8636    886.2995 307.5374876  +6.3334657      2479.82     4135.756     4086.179     78.51498     156.7191     313.2513      1.805     4.65     853.9429     55.21015     264.4565        25     1.513     1.020 -35.56   0
        92     45.3515    886.5964 307.8964068  +6.3044197     1092.844     1504.993     1086.871     77.89133     156.4075     312.8463      1.561     4.49     852.6019     55.21015     158.9506        12     1.321     0.613 -45.12   0
        93    461.4541    887.4011 307.7236274  +6.3180394     584.7735     713.5441     585.0911     77.89133     156.3452     312.8463      1.327     4.11      857.561     55.21015      89.9632         6     1.081     0.447 -35.21   0
        94    354.9058    883.3226 307.7680007  +6.3161560     15821.07     24974.27     26566.54     78.26611     156.8435     313.2825      1.689     4.06     857.8352     55.21015      2084.55        46     1.614     1.067 -35.40   0
        95     89.7418    884.2434 307.8780570  +6.3068822      1140.27     1883.806     2218.436     78.39065     156.5945     313.2825      1.969     5.56     853.6132     55.21015     138.5698        12     1.286     0.678 -57.67   0
        96    225.6150    882.8658 307.8216939  +6.3120110      1212.24     1805.871     1590.768     78.01646     156.5322     313.1579      1.609     4.55     856.2411     55.21015     191.5579        13     1.388     0.620 -30.83   0
        97    432.8366    874.2471 307.7359495  +6.3225122     1153.303     1689.693     1647.823     78.26611     156.6568     313.1579      1.528     5.18     857.0101     55.21015     159.2609        14     1.353     0.813 -37.06   0
        98    118.1574    874.0802 307.8666016  +6.3120321     1645.416     2480.063     2546.666     78.51498     156.6568     313.1891      1.634     4.88     853.9078     55.21015     230.9744        19     1.471     0.831 -43.46   0
        99    900.0204    868.3125 307.5421744  +6.3405638     1751.181     2956.202     3648.663     78.39064     156.4075     313.1268      1.910     6.68     853.8698     55.21015     228.9783        25     1.904     0.929 -51.10   0
       100    686.0834    870.0947 307.6309425  +6.3326926     695.9223     1210.083     1657.291     78.39064       157.03     313.3447      2.268     4.74     857.1281     55.21015     124.4597         9     1.210     0.527 -44.52   0
       101    514.1376    870.5587 307.7023179  +6.3267552     706.1206     1108.975     1784.805     78.51498     156.5945     313.2825      2.178     5.75     857.2105     55.21015     88.27283        10     1.466     0.634 -26.93   0
       102    870.6734    867.6103 307.5543830  +6.3398758     1958.016     3122.299     3284.073     78.01646     156.2828     313.0956      1.719     4.81     854.2469     55.21015     244.5904        22     1.555     0.902 -36.44   0
       103    101.5308    867.4819 307.8737262  +6.3141978      2242.65     3655.237     4148.786     78.76305     156.9057     313.2513      1.867     4.05     853.5717     55.21015     329.8406        22     1.454     0.911 -40.37   0
       104    834.0584    867.0591 307.5696042  +6.3388828      2772.09     4780.462     4924.316     78.51498     156.6568     313.2513      1.805     4.20     854.8796     55.21015     347.9313        27     1.572     0.992 -30.48   0
       105    569.9949    858.5339 307.6795288  +6.3335872     319250.9     508276.3     539997.9     78.01646     156.3452     313.0333      1.716     4.09     857.1949     55.21015     41283.44       185     1.849     1.299 -38.07   0
       106    657.6813    861.6280 307.6430180  +6.3352396     1185.359     1685.493     1720.934     78.39065     156.4699     313.1891      1.678     3.69     857.2673     55.21015     179.7559        12     1.222     0.669 -41.21   0
       107    357.4526    859.5341 307.7677409  +6.3260622     12260.98     19122.89      20104.3     78.51498     156.5945     313.1891      1.728     4.15      857.093     55.21015     1705.373        43     1.668     1.012 -36.06   0
       108    675.8937    855.8135 307.6356506  +6.3382483     3425.793     5195.721     5648.156     78.26611     156.4075     313.0645      1.633     4.17     857.0124     55.21015     454.2147        23     1.445     0.862 -36.56   0
       109    908.1142    854.6771 307.5392685  +6.3464629     4738.297     8355.637     9391.852     78.51498     156.9678     313.3136      1.937     4.39     853.5784     55.21015     605.7303        36     1.781     1.105 -27.91   0
       110    748.1074    851.9783 307.6057952  +6.3422422     753.0521     1007.912     1119.344     78.51498     156.4699     313.0333      1.269     3.74     855.7227     55.21015     122.2885         7     0.900     0.512 -40.19   0
       111    414.2916    861.1100 307.7440893  +6.3273150     7438.375     11599.32     11867.92     78.51498     157.1541     313.3136      1.664     4.04     856.5522     55.21015     1012.516        37     1.598     0.993 -38.56   0
       112    650.6100    849.8475 307.6463479  +6.3398670     3177.845     4986.485       5137.4     78.01646     156.5322     312.8774      1.640     4.09     856.9144     55.21015     453.1167        25     1.488     0.891 -37.62   0
       113    839.2021    848.7439 307.5680796  +6.3466158     1418.089     2525.428     2960.767     77.89133     156.3452     312.9086      2.030     5.14     854.5117     55.21015      202.062        18     1.507     0.869 -38.81   0
       114    642.9530    845.6326 307.6496681  +6.3413514       1659.7     3708.287     4643.919     78.14139     156.6568     313.1579      2.520     9.00     856.7978     55.21015     249.8356        35     2.554     0.969 -55.34   0
       115    965.7479    847.7497 307.5155690  +6.3512424     783.3942     1082.003      1543.83     78.63911     156.5322     313.2513      1.603     5.85     851.4741     55.21015     110.1053        13     1.215     0.916 -61.90   0
       116    927.1102    842.4442 307.5317890  +6.3521461     2953.726     5184.586     5883.815     78.51498     156.5322     313.3136      1.941     4.43     853.1189     55.21015     340.1014        28     1.602     1.002 -30.30   0
       117    337.6804    843.2182 307.7764972  +6.3321357     1026.873     1571.563     1356.342     78.14139     156.3452     313.1268      1.689     5.87     856.4476     55.21015     134.8834        11     1.080     0.897 -15.51   0
       118    385.4657    838.5113 307.7568150  +6.3356795      2497.43     4132.133     4536.371     78.51498     156.8435     313.1891      1.818     4.02     856.1249     55.21015     375.4802        23     1.544     0.876 -37.50   0
       119    521.6263    828.2557 307.7006249  +6.3444702     2951.379     4624.438     4488.264     78.14139     156.7191     313.0645      1.663     4.31     856.0468     55.21015     397.3553        23     1.546     0.860 -38.75   0
       120    866.5644    827.2192 307.5574366  +6.3564145     874.2053     1466.967     1757.342     78.01646     156.4699     313.0021      1.745     4.33     853.7617     55.21015     128.5884        10     1.088     0.663 -43.09   0
       121    586.6146    825.5851 307.6737307  +6.3477455      689.334     1231.281     1484.896     78.26611     156.3452     313.1579      1.991     5.86     856.1816     55.21015     89.51544        11     1.420     0.681 -34.32   0
       122    568.4067    824.3051 307.6813335  +6.3476654     5779.761     9055.541     9972.009     78.26611     156.3452     313.0333      1.702     4.00     856.1441     55.21015     786.2119        32     1.576     0.953 -35.19   0
       123    280.3467    824.7432 307.8009213  +6.3378415     764.4166     1117.196       1330.9     78.63911     156.6568     313.2202      1.582     3.21      855.439     55.21015     127.6627         7     0.897     0.552 -31.70   0
       124    904.2930    822.6049 307.5419247  +6.3595768     1210.739     1745.707     1267.891     78.14139     156.3452      312.971      1.508     4.93      853.153     55.21015     174.9224        13     1.389     0.693 -42.63   0
       125    575.5045    823.8431 307.6784019  +6.3480934       1205.3     2074.987     1990.616     78.51498     156.5945     313.3447      1.802     5.36     856.1335     55.21015     222.1012        14     1.431     0.728 -31.36   1
       126    486.3181    823.2595 307.7154523  +6.3453519     1541.167     2367.555     2147.288     78.63911     156.7191     313.2513      1.681     3.94      855.533     55.21015     222.7189        19     1.392     0.861 -44.50   0
       127    128.1969    822.3494 307.8641721  +6.3337253     1292.085     2104.529     2038.021     77.89133     156.4075     312.8151      1.795     4.89     852.8837     55.21015     182.5184        16     1.509     0.710 -34.28   0
       128    703.9141    821.5560 307.6251612  +6.3533271     667.1015     1029.574     851.7761     78.51498     156.5322     313.2202      1.809     4.60     855.8175     55.21015     104.7328         7     1.103     0.546 -27.36   0
       129    539.1387    818.1887 307.6936906  +6.3492120     18645.18     29834.91     31145.68     77.89133     156.4699     312.9398      1.689     4.04     855.9438     55.21015     2534.759        54     1.693     1.072 -37.86   0
       130    380.2918    819.7557 307.7595919  +6.3432494     825.8567     1086.958     870.2062     78.51498     156.5945     313.3447      1.545     4.72     855.5178     55.21015     119.9986        11     1.078     0.766 -40.38   0
       131    952.8042    816.4077 307.5219882  +6.3637512     3402.102     5667.619     5763.681     77.89133     156.3452     313.0645      1.744     4.08     851.5197     55.21015     411.0448        28     1.520     1.011 -37.75   0
       132    185.9650    817.9429 307.8403358  +6.3374834     528.2068     879.3364     847.0131     78.39064     156.6568     313.2513      1.601     3.72     853.9401     55.21015     102.0921         5     0.693     0.573 -89.25   0
       133    423.7701    814.5433 307.7417144  +6.3468571     423.4825     771.0054     878.9528     78.39065     156.7191     313.1268      1.989     3.46      855.262     55.21015     96.66553         5     1.081     0.319 -21.73   0
       134     49.6855    808.5894 307.8972311  +6.3367690      1523.94     2497.447     2650.699     78.14139     156.4075     313.0645      1.737     4.85     851.4752     55.21015     208.5565        14     1.451     0.624 -35.89   0
       135    331.7228    806.8605 307.7801901  +6.3469460     3093.361     5005.368     5516.518     78.63911     156.7191     313.1891      1.712     3.86      854.976     55.21015      426.152        25     1.448     0.965 -34.87   0
       136    797.2745    802.7399 307.5870244  +6.3642106     52241.22     83313.98      88334.7     78.76305     156.6568     313.1891      1.736     4.06     854.3589     55.21015     7128.874        75     1.735     1.158 -38.33   0
       137     31.7195    805.0493 307.9048093  +6.3376268     2023.071     3182.653      2917.58     78.51498     156.7191     313.2202      1.646     4.16     851.2712     55.21015     264.8719        18     1.405     0.833 -39.38   0
       138    253.9625    779.2446 307.8134030  +6.3557404     751482.6      1777284      2006099     78.26611     156.6568     313.1268      2.363    10.45     853.8839     55.21015      63334.7       614     2.753     2.240 -68.29   4
       139    440.9875    801.5374 307.7350014  +6.3528028     847.8762     1352.238     1044.988     78.01646     156.4699     313.0021      1.730     4.91     854.9059     55.21015     114.0824        12     1.210     0.770 -38.27   0
       140    922.5196    797.9865 307.5351775  +6.3703478     7911.451     13055.92     13338.14     78.14139     156.4075     313.0333      1.741     4.04     852.4285     55.21015     980.3401        37     1.631     1.053 -35.85   0
       141    541.8336    798.3686 307.6932351  +6.3574848      381.627     611.8954     273.2037     78.01646     156.4075     313.0021      1.676     4.40     855.3741     55.21015     86.96088         5     1.144     0.481   1.71   0
       142    364.0894    794.7296 307.7671583  +6.3530385     19782.64     31494.38     33343.76     78.51498     156.9057     313.2202      1.701     4.09     854.5852     55.21015     2776.619        53     1.676     1.102 -35.27   0
       143    413.3201    794.9868 307.7467087  +6.3545810     1427.128     2110.004     2384.939     78.14139     156.4075     313.0333      1.535     4.58     854.5852     55.21015     191.3997        12     1.197     0.673 -40.47   0
       144    425.9819    792.5648 307.7415326  +6.3560048     21034.37     33539.71      35398.7     78.01646     156.4699     313.0021      1.694     4.19     854.4985     55.21015     2763.069        51     1.683     1.061 -39.21   0
       145    963.1542    791.5721 307.5185184  +6.3743493     1803.151     2923.215     2929.407     78.01646     156.7191     313.1268      1.725     4.75     850.6353     55.21015     211.0503        16     1.305     0.799 -35.64   0
       146    919.4843    789.4300 307.5367232  +6.3737793     6367.607     10188.37     10961.47     78.51498     156.4699     313.0956      1.784     4.22     852.2589     55.21015     817.1038        34     1.569     1.045 -37.88   0
       147    892.5407    790.0747 307.5478896  +6.3726154     699.6653      1069.59     452.5119     78.76305     156.6568     313.1891      1.519     5.10     852.7464     55.21015     113.7892         7     1.162     0.634 -25.97   0
       148    660.0989    788.4373 307.6444611  +6.3655371     6217.605     9609.493     10380.29     78.51498     156.5322      313.407      1.690     4.00      855.023     55.21015     795.0149        30     1.571     0.906 -38.73   0
       149    448.6990    786.4905 307.7323037  +6.3592729     1621.375     2699.955     2917.502     78.51498     157.0921     313.1891      1.791     4.56     854.2192     55.21015     220.2712        18     1.428     0.949 -30.02   0
       150    174.3935    785.6236 307.8462258  +6.3504377     675.1837     1002.485     1005.421     78.01646     156.4699     313.0956      1.379     3.78     852.9465     55.21015     137.8654         5     1.162     0.353 -51.00   0
       151    613.0446    780.6387 307.6642601  +6.3671848      804.441     1328.556     1141.844     78.26611     156.5945     313.1268      1.729     5.76     854.7186     55.21015     102.2167        12     1.335     0.701 -43.05   0
       152    888.1390    779.7255 307.5500625  +6.3767415      627.238     1160.656     961.5764     78.76305     156.6568     313.2202      1.749     4.82     852.6021     55.21015     82.24994         7     1.202     0.548 -55.84   0
       153    695.0283    778.6926 307.6302832  +6.3707266     2309.143     3654.961     3569.973     78.63911     156.4075     313.1268      1.658     4.37     854.5701     55.21015     343.8246        21     1.551     0.897 -29.58   0
       154    725.5590    797.3385 307.6169830  +6.3640478      20489.2     33018.12     36480.76     78.51498     156.6568     313.2513      1.788     4.11      855.165     55.21015     2771.166        66     1.876     1.205 -35.56   3
       155    164.1870    779.3251 307.8506752  +6.3526953     928.0929     1321.561     1605.473     78.01646     156.3452     313.0333      1.565     4.25     852.5737     55.21015     178.7648         8     1.168     0.592 -46.20   0
       156    139.3059    779.1689 307.8610109  +6.3519247     940.4869     1648.135     1471.764     78.63911     156.4699     313.2202      1.635     5.33      852.049     55.21015      144.575        11     1.516     0.530 -28.01   0
       157    428.9087    775.2333 307.7408981  +6.3632579      51557.2      81348.4     86277.02     78.63911     156.5322     313.2513      1.692     4.06     853.6555     55.21015     7039.319        74     1.742     1.118 -37.57   0
       158    971.7672    776.3815 307.5154482  +6.3809076     655.1113     995.1064     1200.029     78.01646     156.4699     313.0956      1.614     4.33     850.0244     55.21015     111.1722         7     0.839     0.648  22.72   0
       159    546.7506    774.2191 307.6920018  +6.3676192      6731.05     10624.74     11204.26     78.01646     156.7191     313.0645      1.659     4.08     854.4229     55.21015      935.713        32     1.605     0.912 -35.05   0
       160     81.2180    776.2081 307.8852282  +6.3511963     535.8966     798.4617     1117.792     78.14139     156.4075     313.0645      1.569     3.38     851.0173     55.21015     97.26758         5     0.955     0.347 -42.31   0
       161    791.8730    770.9005 307.5903304  +6.3771755     10790.04        17606      18467.4     78.26611     156.7813     313.2202      1.718     4.24     853.3386     55.21015     1429.064        41     1.650     1.039 -39.16   0
       162    463.4831    772.7584 307.7266251  +6.3654369     4317.837     6823.552     7889.714     78.51498     156.6568     313.1579      1.774     4.08     853.7082     55.21015     600.7289        30     1.591     0.906 -39.05   0
       163    719.2282    793.8492 307.6197282  +6.3652771      82929.8     133278.1     141823.6     78.14139     156.7191     313.1268      1.717     4.10     855.0532     55.21015     11740.57        86     1.754     1.177 -37.77   3
       164    460.0696    766.2767 307.7282596  +6.3679986     2203.277      3697.14     4031.237     78.63911     156.7813     313.2202      1.896     4.39     853.3994     55.21015     310.5786        21     1.563     0.840 -38.18   0
       165     21.2113    766.9724 307.9104531  +6.3529929     1031.075     1585.074     1780.526     78.14139     156.4699     313.0956      1.726     6.09      850.603     55.21015     139.2543        14     1.567     0.666 -33.84   0
       166    981.4410    764.5390 307.5118259  +6.3861190     636.8904      1096.33     1562.384     78.51498     156.6568     313.2513      2.001     4.88     849.5596     55.21015     97.44061         6     1.224     0.551 -44.84   1
       167    813.8273    764.9497 307.5814128  +6.3803645     1018.652     1463.396     1495.834     78.14139     156.7813     313.1579      1.515     3.52     852.9898     55.21015       162.05        10     1.073     0.623 -26.52   0
       168    157.7315    763.0922 307.8539009  +6.3591802     2881.567     4469.347     5128.301     78.51498     156.7813     313.2202      1.683     4.13     852.0333     55.21015     388.2034        23     1.540     0.865 -43.71   0
       169    149.5868    762.8671 307.8572901  +6.3589997     11081.73     17657.71     19607.11     78.01646     156.4699     313.1268      1.710     3.94     851.8665     55.21015     1553.235        44     1.707     1.031 -30.17   2
       170    141.7210    760.2408 307.8606443  +6.3598199     2820.059     4631.011     5205.396     78.39065     156.6568     313.2202      1.756     4.40     851.6224     55.21015     386.4254        26     1.562     0.996 -43.16   3
       171    128.7992    764.6442 307.8658615  +6.3575682     390.4099     622.5991     492.8355     77.89133     156.3452     312.8463      1.782     5.10       851.48     55.21015       68.388         5     1.015     0.724  79.00   0
       172    937.4459    759.4907 307.5302630  +6.3867382     6062.906     10005.05     10491.18     78.51498     156.5945     313.3447      1.795     4.11      850.989     55.21015     788.6695        36     1.606     1.122 -32.44   0
       173    986.4882    759.3655 307.5099025  +6.3884229     1326.744     2187.395     3037.493     78.51498     156.5945     313.2202      2.099     4.89     849.3311     55.21015       167.15        17     1.334     0.894 -35.34   0
       174    692.8343    757.1185 307.6319153  +6.3795602     1695.351     2617.858     2860.631     78.39064     156.6568     313.2202      1.607     4.72     853.7419     55.21015     251.1954        19     1.470     0.789 -47.08   0
       175    579.7932    756.2220 307.6788838  +6.3761539     2206.805     3480.989     3562.061     78.01646     156.4699     313.0645      1.650     4.00      853.825     55.21015     313.4115        21     1.523     0.821 -40.91   0
       176    427.9121    755.7665 307.7419643  +6.3712613     1218.901     1931.576      1852.54     78.63911     156.5945     313.2202      1.527     4.07     852.7548     55.21015     205.1469        13     1.353     0.774 -30.33   0
       177    141.9024    753.7181 307.8607882  +6.3625188     1801.152     2735.965     3169.642     78.39064       157.03     313.2825      1.604     4.76     851.4678     55.21015     239.5839        17     1.438     0.767 -38.29   0
       178    711.3716    754.2784 307.6243128  +6.3813517      536.947     669.4776     526.8571     78.39065     156.5945     313.2202      1.691     4.18     853.3617     55.21015     101.3428         6     1.129     0.442 -30.45   0
       179    931.6239    751.4085 307.5329501  +6.3898810     2837.817      4699.91     5241.829     78.14139     156.4699     313.0645      1.801     3.97     850.9473     55.21015     385.5771        27     1.456     1.084 -43.47   0
       180    991.8726    750.6133 307.5079583  +6.3922156     1770.362     2812.219     2835.003     78.01646     156.3452     313.0021      1.689     4.53     849.0786     55.21015     243.0345        19     1.442     0.848 -32.21   0
       181    961.0327    750.9846 307.5207522  +6.3910355     2773.665     4706.616     5251.927     78.14139     156.4075     313.0956      1.776     4.24     850.0441     55.21015     383.0193        24     1.522     0.931 -32.42   0
       182    684.1353    750.3876 307.6357525  +6.3820487      1327.78     2223.386     2797.389     78.01646     156.4699     313.1268      1.927     5.18     853.6152     55.21015     164.0327        16     1.447     0.749 -33.52   0
       183    831.4653    748.8815 307.5746251  +6.3875865     1014.063         1333     1130.385     78.76305     156.8435     313.2202      1.473     3.93     852.4592     55.21015     143.7886         9     1.045     0.677 -28.79   0
       184    906.4865    746.7145 307.5435450  +6.3909816     636.2426     1136.743     1341.606     78.26611     156.8435     313.2825      1.857     5.06     851.4373     55.21015     110.5812         8     1.362     0.531 -27.80   0
       185    256.4521    745.6240 307.8134979  +6.3697038      1743.92     3063.229     3833.847     78.01646     156.6568     313.1268      1.988     4.90     853.2581     55.21015     240.4501        19     1.705     0.744 -28.84   0
       186    693.6817    742.5737 307.6320496  +6.3855934     587.2915     800.7607     1213.207     78.39065     156.4699     313.2202      2.109     4.03     853.1869     55.21015     91.64417         5     1.356     0.342 -48.73   3
       187    695.3806    738.0433 307.6314956  +6.3875205     849.7654     1405.118      1719.52     78.01646     156.5322     313.0021      1.638     5.70     852.9747     55.21015     143.1228        13     1.534     0.596 -32.79   2
       188    948.8202    741.2661 307.5261475  +6.3946412     1022.342     1772.264     1448.291     78.14139     156.6568     313.1268      1.757     4.32     850.2114     55.21015      142.477        12     1.221     0.772 -34.16   0
       189    171.7831    741.1695 307.8488032  +6.3687023     668.2377     895.1343      607.335     78.14139     156.4075     313.1579      1.323     4.19     851.8031     55.21015     108.9611         7     1.106     0.452 -57.67   0
       190    276.8674    740.6415 307.8051884  +6.3724453      623.442     676.9631     498.7365     78.51498     156.5945     313.2825      1.210     3.80     853.1676     55.21015     119.3078         7     0.870     0.778 -74.93   0
       191    976.0778    738.7354 307.5149130  +6.3965936     2250.906      3656.45     4126.349     78.76305     156.6568     313.1891      1.800     3.72      849.438     55.21015      279.968        21     1.253     1.012 -36.67   0
       192    923.3415    739.6834 307.5367804  +6.3944459     976.2914     1572.509     1534.844     78.51498     156.6568     313.2825      1.689     5.81      850.876     55.21015     126.9686        13     1.447     0.657 -32.86   0
       193    416.7313    733.0936 307.7473667  +6.3802474     617.1221     769.2129     702.0103     78.39064     156.7813     313.2513      1.546     4.50     851.6304     55.21015     84.86298         7     1.299     0.442 -43.38   0
       194   1017.9969    732.0278 307.4977293  +6.4007583     1436.115     2630.247     2278.148     78.01646     156.4075     305.6549      1.911     5.79     848.1622     55.21015     178.0419        18     1.608     0.813 -33.66  16
       195    644.4169    731.7831 307.6528672  +6.3884030     641.9928     858.5038     862.5233     78.26611     156.3452     313.1579      1.598     4.34     853.2043     55.21015     96.63428         7     1.049     0.511 -42.19   0
       196    487.3732    732.3092 307.7180602  +6.3829355      598.469     894.4054     1021.188     78.63911     156.4075     313.0956      1.450     4.05     852.3306     55.21015     83.81866         6     0.891     0.528 -49.92   0
       197    819.1315    730.6192 307.5803563  +6.3947149     1072.328     1573.524     1262.686     78.14139     156.5322     313.1891      1.475     5.09     851.9913     55.21015     158.0839        10     1.150     0.638 -41.08   0
       198    905.3521    727.5056 307.5446567  +6.3988743     1300.375     2230.241     2370.575     78.39065     156.5322     313.3447      1.882     5.55     851.0162     55.21015     165.1285        20     1.523     1.087 -33.55   0
       199    879.7351    723.2827 307.5554352  +6.3997641     845.2496     1036.884     1137.919     78.63911     156.9057     313.2513      1.436     4.28     851.4703     55.21015     114.3619         7     1.102     0.474 -30.46   0
       200    665.6645    722.2004 307.6443647  +6.3930689     604.6151      715.511     741.2195     77.76601     156.2828      312.971      1.353     4.14      852.845     55.21015     86.88043         6     0.744     0.658  39.21   0
       201    862.3635    719.1648 307.5627863  +6.4008852     1449.615     2427.789     2567.038     78.26611     156.4699      312.971      1.668     4.47     851.7153     55.21015     204.2386        16     1.425     0.718 -47.01   0
       202     61.3292    718.1074 307.8954400  +6.3745139     2357.434     3918.728     4204.305     78.39064     156.7813     313.2513      1.792     4.30     849.6182     55.21015     347.4389        24     1.594     0.917 -44.39   0
       203    125.5048    718.9955 307.8687637  +6.3763029     591.0516     1335.448     1562.393     78.26611     156.3452     313.0021      2.300     6.00     850.0776     55.21015     113.6732         9     1.500     0.759 -20.10   2
       204    674.0284    706.7592 307.6414078  +6.3997232     5933.362     9301.456     9987.686     78.14139     156.4699     313.0645      1.672     4.04     852.2871     55.21015     871.6556        31     1.591     0.920 -33.70   0
       205    620.6284    705.9135 307.6636105  +6.3982884     1500.458     2519.191     2861.425     78.63911     156.3452     313.0956      1.723     4.97     852.5147     55.21015     185.0171        18     1.584     0.799 -40.26   0
       206    542.6917    706.5621 307.6959519  +6.3954155     654.8379     859.2976     776.0024     78.63911     156.5945     313.2513      1.573     4.48     852.3386     55.21015      98.9259         7     1.236     0.462 -38.96   0
       207    531.6387    706.6724 307.7005379  +6.3950003     843.8995     1243.074     1179.759     78.39065     156.5945     313.2825      1.673     6.46     852.2392     55.21015     101.9536        11     1.174     0.997 -49.26   0
       208    647.8434    702.3844 307.6524275  +6.4006547     2013.315     3158.355     3221.214     77.89133     156.4699     313.0021      1.663     4.18     852.2587     55.21015      274.824        19     1.481     0.780 -47.19   0
       209   1011.0745    701.8655 307.5016089  +6.4129806     2284.731     3857.235     3891.005     78.63911     156.6568     313.2202      1.782     4.35     847.5165     55.21015      304.924        25     1.548     1.016 -37.16   0
       210    790.8483    698.8498 307.5931618  +6.4068876     19145.17     30435.52     32466.25     78.51498     156.5322     313.1891      1.680     4.13     851.2756     55.21015     2584.885        49     1.680     1.041 -37.95   0
       211    259.6796    701.7407 307.8136310  +6.3879287     500.8622      914.965     1121.335     78.63911     156.6568     313.1579      1.548     3.46     850.7311     55.21015     92.99774         5     1.168     0.297 -54.38   0
       212    920.9761    698.6152 307.5391322  +6.4113224     3582.905     5745.177      6032.41     78.26611     156.4699     313.1579      1.743     4.16     850.0481     55.21015     425.3002        28     1.539     0.994 -29.94   0
       213    490.0261    699.2111 307.7180672  +6.3966887     1473.755     2060.941      1858.36     78.14139     156.4699     313.0956      1.556     3.80     851.7013     55.21015     252.5136        16     1.365     0.717 -34.45   0
       214    518.5752    698.9972 307.7062195  +6.3977320     765.3427     1083.327     888.2795     78.14139     156.3452     313.0333      1.574     3.95     851.9698     55.21015     125.3531         7     1.286     0.494 -50.01   0
       215    335.8548    698.4821 307.7821099  +6.3918275     709.3466       1073.8     931.4662     78.51498     156.6568     313.2513      1.763     4.67     850.5899     55.21015     103.2861         8     0.897     0.690 -51.97   0
       216    264.2981    692.5635 307.8120213  +6.3918722     6100.849     9590.294     9879.861     78.51498     156.5322     313.3759      1.737     4.30     850.1465     55.21015     862.1208        35     1.657     0.975 -39.96   0
       217    671.5380    691.5880 307.6429492  +6.4059034     6823.738     10712.32     11841.63     78.01646     156.4699     313.0021      1.727     4.22     851.7764     55.21015     981.1423        38     1.648     1.024 -33.45   0
       218    136.8707    702.5693 307.8645965  +6.3834658     3587.946     5742.312     6403.069     78.39064     156.6568     313.1891      1.730     4.26     849.6332     55.21015     454.4196        26     1.469     0.987 -33.31   0
       219    366.9208    691.0204 307.7694604  +6.3959488      565.618     1032.783     971.0303     78.14139     156.3452     313.2202      1.940     5.51     850.3788     55.21015     101.8144         6     1.555     0.550 -44.00   0
       220    931.4267    684.1679 307.5352743  +6.4176352     1191.547     1949.698     2131.844     78.01646     156.4075     313.0333      1.765     5.60     849.5046     55.21015     155.1135        13     1.367     0.646 -45.30   0
       221    743.1359    680.0378 307.6136034  +6.4130623     3494.976     5759.892     6300.606     78.51498     156.5945     313.3136      1.728     4.03      850.993     55.21015     448.0341        27     1.573     0.948 -42.45   0
       222    698.1650    680.9698 307.6322470  +6.4111762     888.8557     1279.693     1234.054     78.14139     156.4075     313.0333      1.496     4.40     851.2441     55.21015     145.7625        11     1.321     0.591 -52.59   0
       223   1009.4948    676.6612 307.5031048  +6.4233338     8279.655     13572.64     14154.86     78.39065     156.7191     313.2513      1.779     4.15     846.8851     55.21015     1098.735        42     1.683     1.089 -36.22   0
       224    947.7761    677.1264 307.5287196  +6.4210868     2287.222     3921.847       3974.7     78.14139     156.4699     313.1579      1.819     4.52     848.8201     55.21015     322.4039        24     1.471     1.109 -46.53   0
       225     28.2452    676.4975 307.9105769  +6.3905799     1744.405     3285.777     3806.194     78.51498     156.5322      313.407      2.006     6.55     848.5338     55.21015     275.3627        24     2.153     1.000 -21.04   0
       226     86.7189    671.5209 307.8864646  +6.3945993     24681.68     39041.65     41342.29     78.76305     156.9057      313.407      1.708     4.17      848.442     55.21015      3269.19        57     1.725     1.072 -37.59   0
       227    548.1249    672.4308 307.6948384  +6.4096881     1919.172     2852.555     2963.543     78.39064     156.7191     313.2202      1.555     4.17     851.6986     55.21015     275.8975        16     1.405     0.698 -35.94   0
       228    516.9030    669.6537 307.7078965  +6.4097904     1243.406     1965.018      1632.02     78.39064     156.6568     313.4381      1.599     4.99     851.3557     55.21015     165.7531        13     1.384     0.613 -33.63   0
       229    937.9324    668.6017 307.5330917  +6.4242784      940.472     1559.409     1458.937     78.01646     156.2204     313.0333      1.761     5.33     848.9503     55.21015     147.3757        12     1.265     0.686 -43.72   0
       230    557.1504    666.2416 307.6912977  +6.4125451     870.8885     1416.708     1176.056     78.63911     156.6568     313.1891      1.879     5.64     851.4767     55.21015     144.4498        11     1.503     0.596 -27.88   0
       231    732.8500    663.8014 307.6184173  +6.4194222     3299.849     5229.357      5144.38     77.89133     156.2828     312.7839      1.643     4.39     850.7459     55.21015     474.7574        22     1.462     0.853 -37.89   0
       232    754.7542    662.0933 307.6093782  +6.4208584     4031.353     6207.113     6345.331     78.39064     156.5945     313.3447      1.575     4.18     850.6452     55.21015     566.1129        23     1.505     0.829 -40.25   0
       233    586.2327    659.8784 307.6794338  +6.4161444     3136.494     4856.799     4686.685     78.39064     156.6568     313.2202      1.610     4.22     851.2784     55.21015     516.4519        22     1.537     0.814 -43.35   0
       234    422.2765    660.4448 307.7474992  +6.4104255     1394.878     2223.082     2699.812     78.39065     156.7191     313.2513      1.699     4.45     849.6411     55.21015     196.4035        17     1.410     0.821 -42.52   0
       235    246.6240    659.5242 307.8204695  +6.4049194     1735.035      2906.15     2479.744     78.14139     156.5322     313.1891      1.728     4.51     848.1283     55.21015     222.9655        19     1.516     0.838 -48.07   0
       236    992.9948    657.0057 307.5106120  +6.4308995      7426.35     12323.24     12928.95     77.89133     156.4075     313.0645      1.728     4.07     847.2281     55.21015     988.0504        37     1.609     1.069 -34.31   0
       237    330.5542    658.5860 307.7856493  +6.4081205     1449.978     2227.876     2251.598     77.89133     156.4699     313.0021      1.679     5.02     848.9651     55.21015      207.137        18     1.567     0.745 -31.22   0
       238    547.1776    657.5991 307.6957283  +6.4157797     467.9177      824.147     684.6948     78.14139     156.3452     312.9398      1.621     3.51     851.1704     55.21015     80.09448         5     0.813     0.437 -18.93   0
       239    712.3347    655.9227 307.6272000  +6.4219901     921.3223     1599.042     1197.057     78.63911     156.6568     313.1891      1.730     4.74     850.6459     55.21015     140.5283        11     1.240     0.737  -9.41   0
       240    151.4744    650.4705 307.8602837  +6.4054642     23550.55     36664.88     38463.67     78.76305     156.7813     313.2202      1.710     4.09     847.7321     55.21015     3310.448        51     1.689     1.038 -39.87   0
       241    104.9557    653.4601 307.8794995  +6.4026679     681.3459     911.6151     1154.564     78.39064     156.5945     313.3447      1.456     4.90     848.1207     55.21015     106.0828         8     0.962     0.707 -51.48   0
       242    438.4675    651.2992 307.7410823  +6.4147433     2798.152     4389.665     5403.989     78.51498     156.7813     313.1891      1.808     4.22     849.7184     55.21015     396.7129        22     1.514     0.833 -39.11   0
       243    819.6435    651.3400 307.5827905  +6.4274626      1156.79     1797.299      1724.96     78.39065     156.6568     313.3447      1.778     5.59     850.2122     55.21015     167.7686        14     1.566     0.604 -33.63   0
       244    988.0473    640.0447 307.5132319  +6.4377373     6421.826     11345.77     12445.32     78.51498     156.5945     313.1891      1.893     4.08     847.2602     55.21015     776.6348        38     1.572     1.255 -23.35   0
       245    581.5168    635.2562 307.6822162  +6.4261520     46932.17     72189.55     76038.81     78.51498     156.6568     313.3136      1.680     4.04     850.3881     55.21015     6350.916        70     1.709     1.094 -36.82   0
       246    946.1317    636.8008 307.5307471  +6.4376807     777.5554     1027.951     450.8848     77.89133     156.2204     313.0333      1.412     4.72     847.9952     55.21015     138.8392        10     1.361     0.497 -36.84   0
       247    224.3889    636.7228 307.8304683  +6.4135868     639.9589     1241.129     1442.628     78.14139     156.2828     313.0645      1.833     5.51     847.0747     55.21015     84.31329         9     1.631     0.526 -42.41   0
       248    540.6885    635.7773 307.6991536  +6.4245717     619.1183     1040.414     681.1824     78.51498     156.4699     313.0956      1.519     4.73     850.3187     55.21015     102.7745         7     1.117     0.608 -53.51   0
       249    371.6008    644.9959 307.7690605  +6.4151064     761.4156     1132.304     1590.436     77.89133     156.2204      312.971      1.712     4.64     848.8817     55.21015      119.838         8     1.113     0.549 -30.20   0
       250    189.0979    631.9369 307.8452836  +6.4143784     2659.166     4270.987     4367.942     78.39064     156.7813     313.2513      1.665     4.25     846.9392     55.21015     390.6907        22     1.473     0.878 -45.49   0
       251    511.7253    631.9830 307.7113081  +6.4251694     558.3101     730.1474    -87.92254     78.01646     156.4075     313.0956      1.333     4.38     850.0653     55.21015     92.74493         6     1.062     0.514 -40.14   0
       252     32.5361    639.0916 307.9100538  +6.4061664     1090.863     1753.431     1684.094     78.51498     156.8435     313.2825      1.715     4.84     847.9715     55.21015     155.4842        15     1.380     0.842 -36.64   0
       253     81.9550    625.7988 307.8899804  +6.4133148     1303.138     1973.508     2080.567     77.89133     156.2828     312.8151      1.497     4.45     847.7855     55.21015     168.5551        14     1.274     0.729 -32.77   0
       254    478.7717    619.0691 307.7254254  +6.4293983     60705.47     94963.67     100025.3     78.26611     156.6568     313.1579      1.664     3.97     849.5611     55.21015     8520.412        79     1.721     1.105 -37.64   0
       255     21.9417    620.8505 307.9150669  +6.4133408     1560.468     2572.961     2752.963     78.51498     156.6568     313.2202      1.905     6.07      847.715     55.21015      234.904        20     1.821     0.813 -34.32   0
       256    153.3505    613.8878 307.8607342  +6.4206298     1678.839     2530.126     2818.954     78.51498     156.4699     313.3447      1.632     4.30     846.4838     55.21015     216.2676        15     1.290     0.753 -38.95   0
       257    948.6449    611.4744 307.5305480  +6.4482206     669.7143     963.2635     757.0805     78.39065     156.7191     313.2513      1.539     4.25     847.3943     55.21015     113.0276         7     0.971     0.531 -57.40   0
       258    432.5121    611.9101 307.7448756  +6.4308055     835.2482     1349.265     1510.967     78.26611     157.1541     313.3136      1.632     4.21     848.6968     55.21015     140.6336         8     1.155     0.486 -28.84   0
       259    624.7177    610.5764 307.6651017  +6.4377849     830.8814     1296.522     1098.892     78.39065     156.4075     313.1579      1.724     5.26     849.6392     55.21015     142.6459        10     1.371     0.669 -35.93   0
       260    506.6031    610.2035 307.7141647  +6.4339897     472.3599     658.0732     923.0648     77.89133     156.2204     313.0333      2.128     4.59      849.345     55.21015     71.66174         5     1.363     0.439 -59.68   0
       261    664.9005    616.1214 307.6482290  +6.4368381     818.1945     1287.721      1497.08     78.26611     156.9057     313.2513      1.831     5.12     849.7518     55.21015     127.6975         9     1.284     0.578 -33.51   0
       262    324.2516    608.5166 307.7899465  +6.4285799     2096.319     3484.549     4003.457     78.51498     156.5945     313.3136      1.879     4.30     846.7169     55.21015     286.4403        19     1.356     0.919 -39.71   0
       263    476.4370    606.6952 307.7268095  +6.4344287     727.7016     1014.188     1237.204     78.63911     156.5322     313.3447      1.582     5.11     849.1467     55.21015     133.2233         8     1.101     0.670 -50.61   0
       264    750.7550    602.6710 307.6130244  +6.4452575     5141.188     7921.361     7894.187     78.51498     156.6568     313.2202      1.652     4.38     849.6877     55.21015     731.5833        30     1.577     0.908 -34.47   0
       265    804.4053    597.8502 307.5909048  +6.4490378     13316.61      20857.6     21882.51     77.89133     156.4699     312.8463      1.664     4.22     849.3115     55.21015     1995.677        39     1.609     0.969 -35.69   0
       266    546.4326    597.9614 307.6980343  +6.4403760     1122.598     1689.841     2008.658     78.14139     156.4699     313.0021      1.514     4.27     848.8085     55.21015     162.1296        14     1.353     0.698 -41.76   0
       267   1021.7610    598.0018 307.5006319  +6.4562172     804.4536     1193.156     1183.593     77.64047      148.276     264.2716      1.489     5.31      846.173     55.21015     128.0745        10     1.140     0.699 -26.85  24
       268    628.3500    595.9427 307.6640828  +6.4439477     2779.997     4304.947     4130.428     78.51498     156.6568     313.2202      1.628     4.28     849.1533     55.21015     404.3173        21     1.465     0.813 -38.37   0
       269     49.5316    597.2516 307.9044044  +6.4240104     570.9471     931.8389     1169.047     78.39065     156.5322     313.1579      1.739     3.39      847.364     55.21015      90.4704         5     0.757     0.439 -67.31   0
       270    945.4349    592.1581 307.5325253  +6.4560885     1168.918     1941.163     2838.503     78.26611     156.6568     313.0645      1.934     5.21     846.9103     55.21015     136.3169        11     1.183     0.734 -46.29   0
       271    386.7860    589.5164 307.7646151  +6.4385192     941.8188     1353.881     1505.695     78.14139     156.4075     313.0333      1.667     5.43     846.9971     55.21015     139.9481        13     1.427     0.668 -44.61   0
       272    240.4938    589.6497 307.8253615  +6.4335605     1153.246     2027.095     2349.706     78.39065     156.5322     313.3447      1.949     5.06     845.5399     55.21015     169.4995        13     1.350     0.747 -29.02   0
       273    880.4054    581.1044 307.5599010  +6.4584854      2793.83      4311.71     4877.746     78.26611     156.3452      312.971      1.659     4.15     847.8386     55.21015     390.7378        21     1.457     0.861 -35.00   0
       274    175.2106    580.9544 307.8527634  +6.4349596     833.3165     1398.591     1956.073     78.01646     156.5322     312.9398      1.843     6.04     845.3796     55.21015     114.3747        12     1.348     0.760 -24.77   0
       275    839.3510    578.4186 307.5770407  +6.4582256     2504.945     3833.171     3754.463     78.01646     156.7191     313.0021      1.663     4.35     848.3535     55.21015     362.9988        23     1.496     0.879 -40.54   0
       276    267.1582    573.5029 307.8148308  +6.4411208     7481.919     11985.99     12466.98     78.51498     156.5322     313.4381      1.710     4.20       845.28     55.21015     1029.171        37     1.661     0.980 -42.57   0
       277    810.1329    574.4902 307.5893062  +6.4588731     2400.773     3812.627     4790.004     78.63911     156.7813     313.2202      1.714     4.24     848.5602     55.21015     352.9759        17     1.418     0.727 -41.88   1
       278    752.5305    575.2595 307.6132029  +6.4566337     725.0269      950.895     1626.385     78.63911     156.6568     313.1891      1.731     5.23      848.917     55.21015     138.6495         7     1.151     0.671 -32.64   0
       279    201.3229    568.0059 307.8423550  +6.4411816     55937.73     89519.32     96733.11     78.14139     156.1579     313.0645      1.720     4.08       845.02     55.21015     8045.528        94     1.844     1.200 -38.46   0
       280    819.7377    569.7356 307.5854761  +6.4611563     152069.3     236801.4     250571.2     78.51498     156.6568     313.2513      1.702     4.08     848.3549     55.21015     20964.94       127     1.773     1.226 -36.79   0
       281    125.3137    564.2938 307.8740439  +6.4401624     5970.315     9724.366      10135.3     78.51498     157.0921     313.3136      1.736     4.19      845.855     55.21015      789.363        35     1.694     0.983 -35.86   0
       282    990.8025    561.7297 307.5146982  +6.4701618     1311.323     1986.021     1849.909     78.01646     156.2828     313.0333      1.619     4.19      844.814     55.21015     205.4766        14     1.226     0.774 -37.39   0
       283   1011.5152    560.3114 307.5061432  +6.4714369     689.0352     865.3652     864.6854     78.26611     156.9057     313.3136      1.283     4.22      844.121     55.21015     99.88098         7     0.958     0.530 -31.17   0
       284    856.3655    557.0062 307.5706893  +6.4676331     4170.082     6685.134     6676.015     77.76601     156.4075     313.0021      1.684     4.16     847.7643     55.21015     615.0695        27     1.518     0.946 -42.00   0
       285    239.3669    560.0325 307.8268242  +6.4457498     723.9532     1195.696     1845.059     78.01646     156.4075      312.971      2.009     5.50     844.8737     55.21015     135.5533        10     1.332     0.640 -27.69   0
       286    374.7656    555.1586 307.7707593  +6.4523009     16216.49      25577.2     26723.95     78.26611     156.6568     313.0333      1.680     4.01     845.3018     55.21015     2192.482        46     1.650     1.023 -39.97   0
       287    465.1281    555.1711 307.7332323  +6.4553216     667.2732     966.3921     1224.625     78.39064     156.6568     313.1891      1.336     2.25     846.4574     55.21015     136.3382         6     0.723     0.546  41.92   0
       288    176.7995    554.1440 307.8530046  +6.4460812      1869.66     3160.751     4660.948     77.76601     156.4075     312.9086      2.275     4.29     844.6874     55.21015       274.79        17     1.334     0.794 -35.86   0
       289    251.6959    551.7472 307.8219825  +6.4495838     929.9322     1296.666     785.8051     78.39065     156.6568     313.4692      1.526     5.03     844.7665     55.21015     123.4481        10     0.988     0.723 -52.04   0
       290    810.2585    550.3490 307.5900603  +6.4688440     5672.748     8758.399     9263.705     78.51498     156.6568     313.2202      1.660     4.16     847.8967     55.21015     838.3749        29     1.551     0.896 -33.97   0
       291    114.0776    551.0949 307.8791537  +6.4452339     832.3694     1145.865     980.0688     78.26611     156.8435     313.2513      1.533     4.76     845.8293     55.21015     126.6291         9     1.299     0.495 -38.43   0
       292    541.1158    550.0348 307.7018471  +6.4599844      6323.18      9680.26     10371.68     78.51498     156.5945     313.1891      1.593     4.01     846.5642     55.21015     906.1066        27     1.533     0.854 -37.20   0
       293    399.4138    546.8766 307.7608009  +6.4565457     1269.087      2171.38     2374.112     78.14139     156.3452     313.0333      2.013     6.18     844.9774     55.21015     177.2461        17     1.586     0.786 -37.86   0
       294    188.1398    543.2071 307.8486628  +6.4509770     6336.696     10341.19     10955.61     77.89133     156.4699      312.971      1.753     4.03     844.4383     55.21015     831.3512        37     1.669     1.015 -41.50   0
       295     59.7300    541.9222 307.9020311  +6.4471948     4627.672      7757.55      8230.32     78.76305     156.9057     313.1891      1.788     4.26     846.4456     55.21015     604.8567        36     1.592     1.146 -42.44   0
       296    585.9139    543.1141 307.6834741  +6.4643396      2289.12     3628.262     3828.463     78.26611     156.7813     313.2513      1.704     4.74     847.2214     55.21015     354.7561        20     1.565     0.725 -35.95   0
       297    283.3467    539.6661 307.8092441  +6.4556328     82654.55     130863.9     138873.7     78.51498     156.5945     313.1891      1.718     4.05     844.5972     55.21015     12005.43        94     1.753     1.194 -37.44   0
       298    827.0079    542.4713 307.5833671  +6.4726550      1407.27      2091.84      2142.69     78.01646     156.2204     313.0956      1.515     4.16     847.5677     55.21015     209.4733        12     1.173     0.670 -34.14   0
       299    573.1668    536.8783 307.6889768  +6.4664878      833.208     1283.393     1283.094     78.39064     156.6568     313.2202      1.592     5.05       846.71     55.21015     133.0223         8     1.174     0.616 -43.73   0
       300    267.1089    534.7089 307.8161538  +6.4571348       1418.4     2472.095     2892.173     78.51498     157.1541     313.3136      1.869     4.66     844.3588     55.21015     210.5009        18     1.457     0.884 -31.84   0
       301    806.5118    532.1293 307.5922248  +6.4762411     15459.51     23806.46      25008.4     78.63911     156.9057     313.2202      1.660     4.00     847.3883     55.21015      2089.19        47     1.667     0.997 -36.57   0
       302    983.1984    533.1411 307.5188094  +6.4817116     1499.607     2227.016     2242.463     77.89133     156.3452     312.9398      1.521     4.18     844.0569     55.21015      212.474        14     1.301     0.680 -25.28   0
       303    510.1286    530.5092 307.7153700  +6.4670090     38033.93     65504.69     70409.52     78.39064     156.8435     313.2202      1.879     4.42     845.8553     55.21015     5261.779        76     1.811     1.270 -30.38   0
       304    660.4450    529.1645 307.6529876  +6.4725893      1028.08     1713.792     1456.618     78.26611     156.5945     313.1268      1.784     5.72      846.364     55.21015     140.9144        13     1.533     0.653 -41.32   0
       305     57.9786    527.0443 307.9032590  +6.4532779     1202.424      1958.93     1958.038     78.01646     156.5322     313.0333      1.691     5.46      846.252     55.21015     174.4315        16     1.577     0.885 -54.11   0
       306    669.9379    525.5031 307.6491675  +6.4744180     2790.487     4440.216     4396.838     78.26611     156.7191     313.2825      1.723     4.53     846.1358     55.21015     391.0725        23     1.663     0.781 -39.74   0
       307    222.6514    526.7179 307.8348848  +6.4589424     1720.387     2888.714     2979.186     78.51498     156.6568     313.2825      1.822     4.91     844.1443     55.21015     227.1248        18     1.499     0.774 -33.24   0
       308    680.2217    525.4771 307.6448974  +6.4747722      1460.08     2132.742      1958.96     78.14139     156.4699     313.1579      1.595     4.52     846.1721     55.21015     202.6556        12     1.249     0.667 -37.08   0
       309    732.2208    524.3185 307.6233401  +6.4769868     1272.509      1988.82     2256.963     78.26611     156.3452     313.1579      1.605     4.99     846.8881     55.21015     196.0999        14     1.355     0.751 -38.72   0
       310     89.3556    522.6959 307.8903752  +6.4561274     577.2525      1126.87     1429.381     78.51498     156.5945     313.3447      2.399     5.11     845.6507     55.21015      114.941         6     1.218     0.605 -43.97   0
       311    407.9670    521.1011 307.7581131  +6.4674734     1727.033     2435.876     2618.777     78.51498     156.5322     313.3447      1.448     3.56     844.1067     55.21015     287.1544        15     1.309     0.729 -39.56   0
       312    339.3432    519.3687 307.7866705  +6.4658895     3683.497     5695.629     5659.346     78.39065     156.6568     313.1268      1.664     3.98      843.695     55.21015     503.1024        26     1.489     0.929 -38.50   0
       313    154.4519    518.0381 307.8634986  +6.4602367     24472.17     38668.92     40987.02     78.26611     156.7191     313.2202      1.694     4.05     844.4658     55.21015     3383.522        53     1.666     1.084 -35.72   0
       314    519.3674    518.8605 307.7119233  +6.4721271     1916.385     3034.719     3279.786     78.26611     156.7191     313.1579      1.631     3.90     845.5063     55.21015     326.4586        19     1.361     0.884 -41.64   0
       315    882.5725    518.0660 307.5611047  +6.4845832     1525.282     2082.779     1793.088     78.14139     156.5945     313.1268      1.447     4.04     845.8764     55.21015     218.7833        12     1.225     0.623 -30.99   0
       316    119.6595    516.2342 307.8780079  +6.4598130     2570.944     4071.073     3912.391     78.39065     156.6568     313.1579      1.663     3.92     844.9647     55.21015      359.671        22     1.425     0.915 -35.21   0
       317      1.1917    515.3314 307.9272352  +6.4562043     770.9152     844.1528      668.181     65.95708     122.0831     233.2562      1.085     2.36     847.2458     55.21015     217.5378         6     0.952     0.390 -86.45  24
       318    980.0853    512.6329 307.5207861  +6.4900748     4750.609     7571.591     7834.063     78.51498     156.4699     313.1891      1.708     4.12     843.7485     55.21015     684.2194        33     1.641     0.970 -38.71   0
       319    356.2458    514.6880 307.7798080  +6.4683883     1095.283     1698.449     2162.346     78.51498     156.5322     313.2513      1.703     4.61     843.5402     55.21015     196.5323        13     1.433     0.620 -30.47   0
       320    553.2188    505.1717 307.6983229  +6.4789107     1364.533     2126.727     2103.815     78.14139     156.4699     313.1579      1.605     4.93      845.395     55.21015     186.9615        16     1.502     0.672 -44.64   0
       321     18.6648    502.3831 307.9204150  +6.4621373     23969.03     38344.43     40199.39     78.01646     156.5945     313.0956      1.730     4.05     846.8755     55.21015     3099.759        53     1.668     1.080 -37.58   0
       322    451.4476    499.1872 307.7407901  +6.4779762     40505.08     64299.07      67915.8     77.89133     156.5322     312.9398      1.699     4.07     843.9901     55.21015     5411.475        69     1.712     1.118 -39.67   0
       323    659.4922    498.8454 307.6543974  +6.4850746     11759.42     18154.18     19269.71     78.51498     156.5945     313.3447      1.671     4.21     845.3704     55.21015     1721.896        43     1.670     0.980 -40.70   0
       324      2.0926    496.2970 307.9275019  +6.4640925     159561.3     204829.9     211083.3     76.50143     135.7047     247.8143      1.386     4.20     847.3394     55.21015     25104.62        74     1.427     1.051 -70.29  24
       325    299.4025    499.4451 307.8039265  +6.4727759     923.8668     1628.397     1346.519     77.89133     156.2828     312.8774      1.639     3.90     842.8132     55.21015     145.6375        11     1.177     0.627 -44.36   0
       326    216.6055    496.7838 307.8384012  +6.4710974     17560.62     30369.74     32190.33     78.14139     156.3452     313.0645      1.833     4.11      843.685     55.21015     2306.647        57     1.692     1.277 -33.89   0
       327    182.1077    497.8911 307.8526907  +6.4694825     1472.612      2291.18     1826.425     78.51498     157.1541     313.2513      1.540     4.99     844.0623     55.21015      229.524        16     1.530     0.705 -33.35   0
       328    993.3320    497.3108 307.5157952  +6.4968417     1116.569     1544.738     1546.151     78.63911     156.8435     313.1891      1.416     3.74     843.2364     55.21015     188.9821        10     1.178     0.557 -37.81   0
       329    921.5034    496.9171 307.5456413  +6.4946120     684.8954     1154.314     1209.763     78.39064       157.03     313.2825      1.739     5.15     844.2984     55.21015     87.07477         8     1.200     0.624 -27.41   0
       330    833.5855    496.7200 307.5821630  +6.4917628      1036.15     1584.566      1184.61     78.14139     156.4075     313.0333      1.690     5.49      845.812     55.21015     124.5779        10     1.026     0.830 -48.72   0
       331    581.2638    495.6896 307.6869928  +6.4837631     2680.657     3971.818     3789.537     78.39065     156.8435     313.2513      1.536     3.77     845.2971     55.21015     419.8214        19     1.434     0.747 -39.19   0
       332    955.1513    492.8337 307.5318023  +6.4974187     4385.953     6943.732     7442.833     78.26611     156.6568     313.1579      1.673     4.27     843.6802     55.21015     617.8837        27     1.543     0.900 -35.46   0
       333    628.2214    491.2035 307.6676405  +6.4871848     6194.517     9574.875     10255.33     78.14139     156.3452     313.0021      1.664     4.14     845.1677     55.21015     868.8516        29     1.570     0.857 -37.70   0
       334    115.6668    491.6855 307.8804916  +6.4698134     1040.369     1684.838      1730.13     78.63911     156.9057     313.2513      1.735     6.05     844.5173     55.21015      151.447        14     1.514     0.680 -31.24   0
       335    977.7524    485.1064 307.5226729  +6.5013616     3117.651     4966.478     4817.727     78.39064     156.5945     313.3447      1.647     4.24     843.2105     55.21015     384.3918        26     1.582     0.891 -34.51   0
       336    540.3887    482.4802 307.7044113  +6.4878497     6848.438     10821.12     11209.84     78.14139     156.4075     313.0645      1.701     4.28     844.6654     55.21015     1041.169        34     1.542     1.000 -38.68   0
       337    386.2606    482.8565 307.7684105  +6.4825352     2471.001     4091.549     3813.863     78.63911     156.6568     313.2513      1.739     4.91      842.569     55.21015     349.6874        22     1.569     0.829 -39.09   0
       338    416.3567    484.1312 307.7558685  +6.4830170     641.7433     929.7939     1521.642     78.51498     156.5945     313.2825      1.543     4.65     843.0189     55.21015     119.9154         7     1.015     0.723 -25.30   0
       339    109.9865    481.6028 307.8831897  +6.4737850     615.2726     852.3385     1019.596     78.14139     156.3452     313.0645      1.683     4.78     844.3175     55.21015     86.29138         7     1.158     0.559 -58.85   0
       340    896.9468    478.2701 307.5564627  +6.5014922     3091.613     4686.833     5243.193     78.39064     156.5322     313.1579      1.622     4.05     843.9156     55.21015     456.1726        19     1.408     0.786 -35.95   0
       341    245.2556    477.1481 307.8271625  +6.4801650     495.0502     729.5372     550.6237     78.51498     156.6568     313.1891      1.796     4.52     842.7159     55.21015     71.66296         7     1.101     0.526 -21.03   0
       342    904.5223    472.7027 307.5535021  +6.5040431     2053.753     3034.398     2990.838     78.14139     156.8435     313.2825      1.585     4.27     843.7161     55.21015     326.2963        16     1.211     0.847 -51.29   0
       343    943.8586    471.7787 307.5371949  +6.5057352     1178.776     1814.133     2042.354     78.14139     156.5322     313.0333      1.544     5.15     843.2291     55.21015     181.6643        11     1.350     0.560 -30.22   0
       344    123.5316    472.1500 307.8778824  +6.4781424     668.6895     965.5086     894.9069     78.39064     156.5945     313.2202      1.464     4.32     844.1083     55.21015     101.5414         7     1.183     0.450 -40.85   0
       345    728.3824    468.6289 307.6267958  +6.4998501     2921.882      4399.88     4885.821     78.14139     156.4699     313.1579      1.678     4.39     844.0909     55.21015       428.77        19     1.405     0.800 -34.80   0
       346     90.2778    467.5572 307.8918470  +6.4789213     1717.987     2755.286     2852.714     78.39065     156.6568     313.2825      1.747     4.48     844.3151     55.21015     248.3835        21     1.624     0.817 -36.29   0
       347    399.2362    466.7632 307.7635613  +6.4896138     3460.583     5715.722     5977.406     78.26611     156.5322     313.0021      1.738     4.21        841.8     55.21015     534.2922        26     1.626     0.932 -40.82   0
       348    439.3564    467.0029 307.7468906  +6.4908584     939.4037     1440.853     1625.409     77.89133     156.2204     312.8774      1.725     5.12     842.3196     55.21015     137.9565         9     1.321     0.562 -21.07   0
       349    626.9011    463.4448 307.6691177  +6.4986007     9510.849     15179.24     16398.28     78.51498     156.5945     313.4381      1.699     4.36     843.7595     55.21015     1249.013        38     1.670     0.954 -36.39   0
       350    789.9647    459.6342 307.6015189  +6.5056188     15424.81     24240.68     26721.58     78.26611     156.4075      312.971      1.721     4.60     844.6896     55.21015     2095.245        57     2.240     0.982 -44.99   0
       351    309.5065    460.2155 307.8010471  +6.4893101     2573.753     4010.522     3994.819     78.26611     156.4699     313.0956      1.677     4.46     840.9498     55.21015     347.9681        23     1.587     0.848 -33.98   0
       352    432.8820    459.8464 307.7498195  +6.4935961     651.0974     1154.292     1451.191     78.51498     156.6568     313.2202      1.839     4.60     841.7818     55.21015     124.2767         7     1.348     0.595 -27.21   0
       353    818.8972    456.9529 307.5895916  +6.5076908     1275.257     1706.288     2165.544     78.51498     156.5322     313.3759      1.534     4.94     844.4463     55.21015     189.0615        13     1.326     0.686 -54.85   0
       354    392.5804    456.8782 307.7666571  +6.4934718     1475.246     2409.712     2880.196     78.14139     156.3452     313.1891      1.688     4.80     841.1213     55.21015     206.2214        19     1.523     0.837 -34.32   0
       355    974.8333    454.7926 307.5248961  +6.5137796     1826.998     2812.098     2750.489     78.01646     156.5322     313.0333      1.573     4.70     842.3051     55.21015     272.8582        17     1.477     0.794 -39.46   0
       356    723.4742    453.8352 307.6293289  +6.5057938     517.7335     958.1818     1546.154     78.39064     156.7191     313.1891      1.959     3.89     843.6086     55.21015      108.995         6     1.349     0.322 -47.44   0
       357    381.3882    452.6038 307.7714488  +6.4948615     670.1489      1133.17     1507.115     78.14139     156.3452     313.0956      1.738     5.71     840.7908     55.21015     93.49854         8     1.414     0.650 -57.57   0
       358    127.2643    451.8232 307.8770157  +6.4866593     4175.544     6795.822     7316.612     78.14139     156.6568     313.1268      1.704     4.13     843.7259     55.21015     648.8013        28     1.508     0.940 -36.48   0
       359    765.4249    450.9635 307.6120010  +6.5083796     2261.538     3477.761     3821.628     78.14139     156.4699      312.971      1.667     4.20     843.8993     55.21015     331.1615        18     1.401     0.767 -36.28   0
       360    285.1988    448.7073 307.8115288  +6.4932460     1305.759     2161.233     2667.425     78.01646     156.2828      312.971      1.841     4.91     840.4772     55.21015     188.6144        17     1.522     0.859 -35.08   0
       361    363.0144    446.6858 307.7792784  +6.4966891      2944.73     4740.771     4430.986     78.14139     156.4075     313.0956      1.689     4.25     840.3423     55.21015     463.5773        25     1.616     0.849 -33.13   0
       362    719.0375    444.4209 307.6314863  +6.5095323     1656.859     2767.893     3202.437     78.14139     156.4075      312.971      1.780     3.97     843.2668     55.21015     238.7418        15     1.360     0.666 -40.59   0
       363    251.0518    442.4164 307.8259218  +6.4946979     665.6545      1197.05     1215.232     78.01646     156.7191     312.9398      2.002     5.60      840.882     55.21015     117.0721         8     1.568     0.563 -48.73   0
       364    422.8233    441.9106 307.7545985  +6.5006639     522.6774     824.3893     909.0909     78.51498     156.4699     313.0956      1.588     4.32      840.423     55.21015     84.50507         5     0.763     0.696 -72.94   0
       365    461.5830    438.3905 307.7386185  +6.5034149     511.5461     844.6929     502.1677     78.26611     156.4075     313.0956      1.607     4.02     840.9916     55.21015     87.63983         5     1.169     0.395 -52.81   0
       366    560.7530    437.1547 307.6974713  +6.5072431     876.2087     1485.286     1866.589     78.51498     156.5322     313.2513      1.852     4.31     842.1063     55.21015     166.7522         9     1.345     0.539 -32.63   0
       367    482.6763    435.4712 307.7299556  +6.5053262     1268.298     2206.309     2431.804     78.76305     156.9057     313.2202      1.933     5.76      841.261     55.21015     178.7628        18     1.659     0.852 -50.24   0
       368    845.1548    434.6042 307.5794319  +6.5177932      1367.11     2142.242     2390.968     77.89133     156.3452     312.9086      1.602     4.28     843.2745     55.21015     230.7766        17     1.404     0.842 -42.46   0
       369    830.8046    433.6221 307.5854251  +6.5177201     1672.486     2350.276     2367.702     78.14139     156.4075     313.0021      1.443     4.34     843.3048     55.21015      234.197        16     1.481     0.662 -37.95   0
       370    728.1202    431.7010 307.6281391  +6.5150869     14155.29     22074.87     22943.09     78.39064       157.03     313.2513      1.671     4.12     842.9067     55.21015     2086.561        41     1.619     0.992 -39.84   0
       371    630.8522    433.0978 307.6684921  +6.5112614     721.8652      1130.89     1342.077     78.39064     156.6568     313.4381      1.629     4.57     842.1775     55.21015       110.46         8     1.176     0.504 -44.82   0
       372    649.3047    427.5693 307.6610130  +6.5141604     2402.915     3870.438     4788.791     78.63911     156.4075     313.2825      1.820     4.45     842.1365     55.21015     334.8458        24     1.530     0.964 -29.13   0
       373    624.5477    424.5940 307.6713952  +6.5145615     5173.898     8528.125     9365.295     78.01646     156.4699     312.8774      1.804     3.99     841.6711     55.21015     709.3381        32     1.662     0.992 -35.27   3
       374    620.6772    422.1402 307.6730850  +6.5154452     13943.24     21888.95     23170.08     78.63911     156.7191     313.1891      1.672     4.14     841.4515     55.21015     1837.262        41     1.660     0.996 -41.08   3
       375    722.1597    425.8961 307.6308089  +6.5172845     619.5288     817.0698     1737.942     78.51498     156.5322     313.3759      1.513     4.74     842.6748     55.21015     105.0312         7     1.159     0.549 -39.36   0
       376    953.3434    421.7154 307.5349252  +6.5267199     3515.016     5486.958     5748.601     78.51498     156.6568     313.3447      1.667     4.34     841.9554     55.21015     523.3088        24     1.540     0.859 -35.70   0
       377    392.5380    417.5321 307.7679944  +6.5097140     27597.62     43788.87     46421.86     78.51498     156.5945     313.2202      1.733     4.12     838.7255     55.21015     3872.338        63     1.709     1.150 -36.29   0
       378    909.1541    417.1978 307.5534304  +6.5271128     1206.263     2014.985     2106.512     77.89133     156.3452     312.8463      1.674     4.46     842.6805     55.21015     176.5851        16     1.346     0.826 -34.84   0
       379    138.5530    416.8705 307.8735028  +6.5014680     2368.521      3744.69     3529.539     78.51498     156.5945     313.2202      1.645     4.07     842.9343     55.21015     348.6967        20     1.525     0.806 -46.09   0
       380    922.2624    411.9797 307.5481599  +6.5297039     4703.685     7247.385      7782.05     78.14139     156.6568     313.0956      1.618     3.72     842.4896     55.21015     813.0576        28     1.539     0.898 -38.82   0
       381    906.1144    413.1703 307.5548274  +6.5286743     747.5422     1296.473     2111.604     78.63911     156.4075     313.0956      2.586     6.01     842.5306     55.21015      94.1629         9     1.073     0.946  75.52   1
       382    603.2176    413.3724 307.6806302  +6.5184813     550.6047     663.3218     460.7472     78.14139     156.4699     313.1268      1.243     3.48     840.8054     55.21015     81.24896         5     0.778     0.449  16.36   0
       383     71.9836    412.3365 307.9013025  +6.5011033     1441.718     2849.173     3140.897     78.01646     156.5945     313.0645      2.155     5.44     843.3036     55.21015     211.3491        19     1.663     0.983 -23.81   0
       384    978.8036    409.8239 307.5247466  +6.5324773     661.4971     1068.885     981.7031     78.14139     156.3452     313.0645      1.740     4.78     840.6246     55.21015      122.324         6     1.332     0.518 -46.57   0
       385    250.0625    408.0915 307.8274856  +6.5088352     12886.73     21022.05      22050.7     78.51498     156.7813     313.3136      1.716     4.15     839.4604     55.21015     1830.928        45     1.677     1.050 -36.08   0
       386     85.7529    402.1527 307.8959266  +6.5057702     845.8285     1563.625      1611.64     78.51498     156.5322     313.2202      1.846     7.12     843.0764     55.21015     112.4263        12     1.340     1.061 -14.75   0
       387    745.1705    401.8004 307.6220568  +6.5280006     725.0363     898.6929     1287.757     77.89133     156.4699     313.0333      1.495     4.42     842.1318     55.21015     124.3936         7     1.158     0.480 -36.53   0
       388    973.5595    400.2477 307.5272442  +6.5362563     1005.302     1418.181     1744.166     78.39065     156.6568     313.0645      1.536     5.47     840.3759     55.21015     156.4742        11     1.393     0.606 -30.16   0
       389    713.2426    400.4953 307.6353619  +6.5274734     638.9641     1156.202     1078.684     78.51498     156.5945     313.3447      1.817     5.81     841.9028     55.21015     114.9888         9     1.530     0.621 -52.15   0
       390    363.0792    397.7168 307.7808945  +6.5169075     1337.306     2354.676      2269.54     78.63911     156.9057     313.3447      1.955     4.41     838.0123     55.21015      176.785        16     1.432     0.808 -45.12   0
       391    195.9372    398.1891 307.8502980  +6.5111069     880.6701     1356.993     1518.838     78.01646     156.4699     313.0333      1.599     5.21      840.796     55.21015     120.4296         9     1.118     0.686 -47.76   0
       392    150.3378    396.6963 307.8692867  +6.5101923     4765.121     7765.938      8279.02     78.26611     156.7191     313.2825      1.753     4.27     842.1072     55.21015     705.6461        32     1.614     0.956 -37.46   0
       393    643.0932    395.3511 307.6646709  +6.5272540     442.5051     657.9943     681.3676     78.39064     156.5322     313.3447      1.685     3.93      840.811     55.21015     87.48035         5     1.276     0.347 -47.51   0
       394    255.0101    395.5348 307.8258525  +6.5141850     1361.749     2074.869     2451.073     78.01646     156.4699     313.0956      1.642     4.47     839.0402     55.21015     178.7026        14     1.329     0.675 -39.95   0
       395    447.9031    395.1428 307.7457500  +6.5208114     641.7318     988.9756     1042.051     78.39064     156.5945      313.407      1.551     3.89     838.5522     55.21015     102.1823         6     0.777     0.557 -40.98   0
       396    172.4086    392.3117 307.8602676  +6.5127435     2254.805     3658.333     3383.335     78.14139     156.3452     313.0021      1.773     4.55     841.3879     55.21015     306.1013        23     1.552     0.912 -53.43   0
       397    836.7995    393.3685 307.5842793  +6.5345388     792.0103     1296.989     1562.209     77.89133     156.4699     313.0021      1.680     5.27     841.8627     55.21015     109.3772         9     1.107     0.709  -6.06   0
       398    567.9926    391.8832 307.6959803  +6.5261753     1002.839     1740.717     1773.335     78.14139     156.3452     313.0645      1.807     5.51     839.6954     55.21015     134.8818        14     1.359     0.806 -48.71   0
       399     14.3245    388.0779 307.9260656  +6.5091795      717.686     1280.632     1255.544     78.76305     156.9057     313.2825      1.740     6.03     842.7582     55.21015     103.4429        11     1.693     0.604 -47.49   0
       400    984.3469    386.6557 307.5232167  +6.5422270     962.2935     1810.672     1694.831     78.63911     156.6568     313.1891      1.867     6.18     839.4414     55.21015      139.812        12     1.552     0.691 -57.91   0
       401    284.1623    387.7303 307.8140067  +6.5183848     836.4089     1098.667     1327.333     78.39064     156.6568     313.3136      1.269     4.96     838.1169     55.21015      125.016        10     1.438     0.485 -48.18   0
       402    395.8863    387.2549 307.7676193  +6.5223258     2015.014     3211.518     3574.796     78.51498     156.5945     313.3759      1.691     4.61     837.5521     55.21015     274.7982        19     1.532     0.758 -41.34   0
       403    449.6719    380.8849 307.7454933  +6.5267568      6959.04     11247.99     11325.34     78.63911     156.9057     313.2513      1.707     4.23     838.0466     55.21015     885.6207        33     1.596     0.955 -41.70   0
       404     46.1057    381.5659 307.9130855  +6.5129364     2897.225     4971.083     5714.089     78.63911     156.5322     313.3136      1.944     4.62     842.6219     55.21015     386.8773        29     1.758     0.991 -43.92   0
       405    782.4403    379.8342 307.6073104  +6.5383131     1958.315     3271.148     3553.542     78.26611     156.5945     313.0333      1.809     4.39     841.5859     55.21015     304.5866        17     1.493     0.743 -39.48   3
       406    790.2797    378.2320 307.6041077  +6.5392361     12427.81     19299.53     19981.62     78.39065     156.6568     313.1891      1.667     4.07     841.5364     55.21015     1721.486        43     1.610     1.024 -37.22   2
       407    353.9203    376.4355 307.7854126  +6.5253863     1038.348     1539.078     1488.076     78.39064     156.7191     313.2202      1.646     4.26     837.1828     55.21015      171.754        13     1.356     0.714 -54.94   0
       408    965.1224    369.6460 307.5317694  +6.5486093     632.8913     939.5635     993.9471     78.39064     156.7191     313.2202      1.600     4.64     839.4493     55.21015     90.94006         7     1.094     0.560 -73.81   0
       409    198.7305    368.8465 307.8501240  +6.5233143      743.312     1396.667     1343.756     78.51498     156.5945     313.2202      1.986     5.22     839.8448     55.21015     143.1799         7     1.071     0.720 -25.60   0
       410      3.9612    367.3828 307.9310665  +6.5173744     970.8402      2495.55     3254.638     78.14139     154.2094     274.0916      3.031     8.77      842.281     55.21015     100.2917        21     2.012     1.067 -42.12  24
       411    538.8094    366.7588 307.7089431  +6.5355717     501.8223     472.4107     380.4458     77.89133     156.4699      312.971      1.264     5.56     838.2619     55.21015     79.81079         6     1.335     0.654 -82.47   0
       412    497.7351    364.7003 307.7260726  +6.5350473     2830.083      4634.49     4378.198     78.51498     156.7813     313.1891      1.698     5.02     838.0852     55.21015     387.1838        25     1.760     0.812 -38.38   0
       413    470.1313    365.0792 307.7375253  +6.5339670     2274.132     3653.996     3772.012     78.63911     156.8435     313.1891      1.715     4.33     837.8274     55.21015     311.2502        21     1.518     0.813 -41.47   0
       414    926.7149    364.4597 307.5478960  +6.5494710     611.9431     917.0342     907.4294     78.51498     156.7191     313.3136      1.719     4.42     840.6448     55.21015     144.8571         7     1.332     0.418 -44.24   0
       415    855.6605    361.1961 307.5775194  +6.5484501     31156.36     50532.91      53834.2     77.89133     156.4699      312.971      1.737     4.08     840.7426     55.21015     4045.991        62     1.741     1.134 -45.07   0
       416     73.2017    357.5640 307.9026397  +6.5237558     594.5395     862.3917     659.0779     77.64048     156.4699     313.0333      1.448     4.10     842.0765     55.21015     108.9055         6     1.162     0.413 -30.62   0
       417    348.0278    356.8612 307.7885169  +6.5332698     862.4114     1340.313     1042.276     78.14139     156.7191     313.1579      1.549     4.89     836.5098     55.21015     136.5134         8     1.292     0.525 -49.36   0
       418    627.5447    353.4766 307.6725304  +6.5440221      2675.48     3955.646     4120.738     78.51498     156.6568     313.1891      1.698     4.61     838.9113     55.21015     406.2875        21     1.514     0.801 -37.88   0
       419     35.6075    354.0064 307.9183734  +6.5239607     1091.528     1726.969     1448.631     77.89133     156.4699     313.0645      1.531     4.86     841.9856     55.21015     145.8846        13     1.364     0.639 -53.11   0
       420    712.1376    347.1621 307.6376042  +6.5494550        75759     118057.4     124600.9     78.51498     156.7191     313.2202      1.648     4.12     840.4628     55.21015     10932.11        84     1.716     1.125 -38.26   0
       421    870.2081    348.4828 307.5719011  +6.5541838     1147.073     1841.923     2509.754     78.14139     156.3452     313.0645      1.709     5.05     840.1726     55.21015     163.0198        12     1.362     0.778 -31.04   0
       422     91.2934    346.5826 307.8954951  +6.5288972     1303.217     2092.609     2036.818     78.39065     156.4699     313.0956      1.724     4.77      841.808     55.21015      215.812        14     1.345     0.705 -39.73   0
       423    953.2368    344.0523 307.5375602  +6.5587798     737.2591     948.7851     646.1263     78.39064     156.6568     313.2513      1.420     5.05     838.7878     55.21015     130.4677         9     1.424     0.507 -42.72   0
       424    574.5547    343.9029 307.6948613  +6.5462031     2506.988     3933.492     4123.922     78.51498     156.5322     313.3759      1.720     4.05     837.4532     55.21015     429.6775        21     1.553     0.781 -32.05   0
       425    111.7519    342.6862 307.8871290  +6.5311932     5867.243     9314.466     9975.556     78.51498     156.5945     313.2513      1.714     4.20      841.309     55.21015     768.6545        31     1.624     0.933 -39.37   0
       426    401.7455    344.2490 307.7666283  +6.5402765     480.0208     487.1348     765.8418     78.51498     156.6568     313.2825      1.252     4.31     836.0012     55.21015     76.50031         5     0.859     0.615 -44.74   0
       427    557.9011    340.0540 307.7019076  +6.5472352     6853.945     10605.67        11210     78.39064     156.6568     313.4381      1.616     3.90     837.1448     55.21015     973.3732        33     1.564     0.937 -37.95   0
       428    286.8683    337.7378 307.8145616  +6.5391142     2561.601     4203.198     4295.357     78.51498     156.5945     313.2513      1.744     4.39     836.9197     55.21015     365.9702        18     1.482     0.737 -40.39   0
       429    420.7279    335.2311 307.7590462  +6.5446353     24899.87     39758.15     41741.58     78.39065     156.6568     313.2202      1.708     4.12     835.6892     55.21015     3377.285        59     1.688     1.120 -37.11   0
       430    528.3314    333.9956 307.7143928  +6.5487472     1029.414     1574.781     1280.141     78.01646     156.2828     313.0021      1.485     5.74     836.7427     55.21015     148.5187        13     1.564     0.594 -27.88   0
       431    599.6367    334.3631 307.6847624  +6.5509802     728.2455     949.1133     474.8701     78.26611     156.5322     313.0333      1.329     4.29     837.2025     55.21015      146.884         7     0.962     0.545 -32.38   0
       432    401.0094    332.9779 307.7673121  +6.5449050      1101.86      1888.43     2950.607     78.14139     156.4075     313.0645      2.057     4.97     835.6417     55.21015     142.3655        15     1.474     0.832 -29.87   0
       433    500.3476    330.3784 307.7261376  +6.5493042      1200.12     1755.929     2165.707     78.01646     156.6568     313.0333      1.616     4.31     836.4422     55.21015     200.4203        12     1.217     0.647 -43.74   0
       434    815.4574    327.9229 307.5953303  +6.5608462     892.8314     1406.304     1270.082     78.51498     156.5945     313.1579      1.558     4.33     839.4378     55.21015     135.8319        12     1.191     0.718 -46.80   0
       435    651.4573    327.8473 307.6634554  +6.5554021     558.6428     959.1006     680.0063     78.51498     156.6568     313.3447      1.573     5.49     838.4233     55.21015     95.00586         8     1.472     0.577 -20.96   0
       436    509.8377    325.6471 307.7223543  +6.5515751     8264.399     13051.54     13851.13     78.39064     156.5945     313.0645      1.680     4.21     836.3065     55.21015     1114.261        37     1.583     0.998 -42.11   0
       437    397.5961    327.8144 307.7689030  +6.5469223      831.352     1323.226     2514.933     78.14139     156.3452     313.0956      1.924     4.98     835.4979     55.21015     131.1093         9     1.162     0.605 -50.41   0
       438    778.8649    324.3664 307.6106491  +6.5610936      2975.65     4737.498     4772.682     78.39064     156.6568     313.1891      1.645     4.55     839.2373     55.21015     426.0276        23     1.491     0.888 -40.57   0
       439    934.6733    323.9680 307.5459413  +6.5664532     802.0377     1051.103      1150.09     78.39064     156.6568     313.2202      1.595     5.07     838.4668     55.21015     114.2772         9     1.217     0.597 -45.62   0
       440    727.0070    323.9665 307.6322034  +6.5595277     685.0938     1118.495     854.2676     78.01646     156.5322     313.0333      1.635     4.07     839.2126     55.21015     102.0944         7     0.945     0.502 -44.42   0
       441    336.5082    322.3788 307.7944590  +6.5471193     1092.731      1766.53     1388.866     78.39065     156.4699     313.0645      1.671     4.92     835.9355     55.21015     142.8749        12     1.353     0.692 -32.30   0
       442    171.6177    316.1746 307.8631557  +6.5441486     967.6326     1696.418     1656.718     78.14139     156.5322     313.1579      1.806     5.74     839.0709     55.21015     183.1483        13     1.646     0.564 -39.07   0
       443    618.8444    314.7545 307.6774403  +6.5597175     471.5664     798.3734     999.9377     78.51498     156.6568     313.1579      1.633     3.44     836.6775     55.21015     67.64203         5     0.990     0.346 -44.28   0
       444    399.8021    309.8108 307.7685907  +6.5544288      7075.29     11264.23     11937.53     78.14139     156.3452     313.0333      1.679     3.98     834.8967     55.21015      981.871        37     1.623     1.002 -42.19   0
       445    255.5540    310.1119 307.8284961  +6.5494687      1979.99     3354.507     3879.282     78.51498     156.5322     313.2513      1.855     4.79     837.0843     55.21015     247.6042        22     1.550     0.888 -39.74   0
       446    767.6073    305.6900 307.6159496  +6.5684284     52007.15     80434.54     84907.44     78.14139     156.3452     313.0021      1.680     4.20     838.2086     55.21015     7597.709        75     1.692     1.116 -38.96   0
       447    753.2045    309.6379 307.6218004  +6.5663178     908.9548     1441.902     1585.918     77.64048     156.4075      312.971      1.659     4.56     838.4518     55.21015     155.6956        10     1.111     0.632 -37.87   0
       448    439.1996    305.0280 307.7523865  +6.5577229     2285.983      3438.99     3368.172     78.01646     156.4075     313.0333      1.550     4.26     834.6975     55.21015      317.645        20     1.475     0.794 -37.75   0
       449   1002.5784    302.5805 307.5184472  +6.5775447         1601     2436.653     2891.155     78.26611     156.5945     313.1579      1.785     5.16     835.0859     55.21015       190.64        16     1.357     0.785 -29.03   0
       450    943.5996    301.7270 307.5429755  +6.5759328     2151.318     3142.188     3244.086     77.76601     156.0954     313.0645      1.630     4.16     837.0244     55.21015     283.4149        17     1.421     0.770 -38.46   0
       451    585.6252    302.3755 307.6916534  +6.5637176     1271.798     1903.142     1605.528     78.01646     156.4699     313.1579      1.640     5.50     835.6758     55.21015     168.5341        17     1.394     0.827 -28.03   0
       452    476.2101    301.6086 307.7371279  +6.5603737     945.5103     1592.576     2115.613     78.01646     156.4699     313.1268      1.847     6.29     834.8652     55.21015      130.059        13     1.435     0.774 -38.45   0
       453    425.7530    300.7942 307.7581139  +6.5590204     1800.784     3072.969     2970.885     77.89133     156.4699     312.8774      1.746     4.58     834.4278     55.21015      258.733        21     1.585     0.828 -30.54   0
       454    306.2996    300.4870 307.8077415  +6.5551442     663.2847     1121.131     1317.719     78.51498     157.1541     313.2825      1.832     5.55     836.0847     55.21015     81.49329         6     1.233     0.704 -37.71   0
       455    847.1417    295.1082 307.5832650  +6.5754504     985.5949     1673.998     1641.001     78.39064     156.5945     313.3136      1.778     5.69      837.879     55.21015     128.0588        13     1.509     0.604 -39.98   0
       456    202.3486    292.1745 307.8511982  +6.5550883     2146.951     3432.626     3534.289     78.14139     156.6568     313.1268      1.705     4.21     837.7155     55.21015     290.9908        20     1.431     0.896 -53.73   0
       457    766.0822    290.3264 307.6170966  +6.5747203     5872.109     9206.559      9947.46     78.76305     156.9678     313.2825      1.668     4.39      837.291     55.21015     761.0212        33     1.566     1.000 -40.06   0
       458    456.6657    292.1623 307.7455629  +6.5636192     1146.865     1600.394     1757.668     78.39064     156.5945     313.2825      1.601     3.74     834.2509     55.21015     161.6765        12     1.065     0.742 -33.15   0
       459    356.0900    289.9701 307.7874131  +6.5611551     644.6127     1208.832     890.6823     78.63911     156.4075     313.1891      1.742     5.22     835.0115     55.21015     114.1367         7     1.282     0.761 -18.84   0
       460    237.7639    290.2705 307.8365520  +6.5570629      789.325     1213.658     1042.326     78.39065     156.6568     313.2513      1.637     4.76     836.9227     55.21015     118.6099         9     1.062     0.606 -30.88   0
       461     98.5279    289.3901 307.8944146  +6.5527509     1105.165     1808.208     1725.362     78.01646     156.2828     313.0333      1.639     5.32     840.2463     55.21015     167.8597        13     1.279     0.772 -35.11   0
       462    782.4817    288.1274 307.6103578  +6.5761754     2565.717     3888.797     4440.577     78.76305     156.9678     313.2513      1.691     4.04     837.1891     55.21015     356.4206        21     1.424     0.836 -31.40   0
       463    371.6684    282.8466 307.7811813  +6.5646180     1618.568     3468.094     3668.509     78.51498     156.5945     313.1891      2.199     6.45     834.6332     55.21015     195.7503        27     1.802     1.046 -12.01   0
       464     85.4711    283.4046 307.9000392  +6.5547831     1355.092     2129.532     2347.769     78.14139     156.2828     313.0645      1.619     3.53     840.1959     55.21015     200.9982        14     1.115     0.811 -30.69   0
       465   1020.5966    279.1214 307.5117445  +6.5878296     5417.519      9029.37     9799.688     78.01646     156.1579     279.7276      1.795     4.19     833.7835     55.21015     710.9667        34     1.687     0.978 -34.45  24
       466    498.6436    279.0550 307.7285654  +6.5704356     2036.693     3108.564     3169.164     78.51498     156.6568     313.2202      1.649     4.16     834.1558     55.21015     289.0142        21     1.479     0.866 -27.08   0
       467    261.2869    274.5331 307.8273100  +6.5643491     5485.887      8801.39     9648.027     78.51498     156.8435     313.2513      1.758     4.33     836.3544     55.21015     778.7538        35     1.668     0.981 -35.10   0
       468    929.2712    273.4141 307.5498723  +6.5871445     674.0371     994.0934     1475.617     78.01646     156.5322     313.1268      1.565     4.41     836.2797     55.21015     107.3703         6     1.030     0.543 -30.14   0
       469    780.6495    267.9330 307.6117938  +6.5844515     808.3613      1241.09     1482.191     78.39064     156.5322     313.2202      1.619     4.93     836.7191     55.21015     124.3638        10     1.125     0.612 -26.65   0
       470    237.9581    267.2648 307.8372443  +6.5665669     598.6549     1019.852     1056.604     78.51498     156.5945     313.2825      2.067     5.29     836.5276     55.21015     75.34088         8     1.448     0.546 -35.40   0
       471    395.4809    265.2459 307.7718807  +6.5726821     1526.672     2657.717      2679.81     78.51498     156.6568     313.2202      1.760     5.34     834.0104     55.21015     200.7573        18     1.451     0.830 -40.99   0
       472    982.2911    264.1918 307.5281549  +6.5927180     981.9971     1194.476     1482.742     78.14139     156.3452     313.0021      1.355     4.33       834.58     55.21015     134.9216        11     1.166     0.633 -35.88   0
       473    202.0262    262.6396 307.8523249  +6.5672704     486.8575     614.1806     46.92307     78.14139     156.4699     313.0645      1.224     3.80     837.1321     55.21015     85.95105         5     1.280     0.324 -48.60   0
       474    317.6795    261.0643 307.8043382  +6.5718008     1150.416     1889.294     1750.605     78.76305     156.7191     313.1891      1.676     4.37     835.2516     55.21015     176.6013        13     1.383     0.691 -54.87   0
       475    165.2531    261.0899 307.8676514  +6.5666755     1732.715     2755.821      3114.26     78.51498     156.4699     313.3447      1.756     3.99     837.8754     55.21015     266.0978        18     1.392     0.802 -42.37   0
       476    574.8530    256.8729 307.6976519  +6.5821427     2118.447      3377.34      3149.38     78.39064     156.6568     313.2202      1.577     4.06     834.1429     55.21015     320.8033        18     1.339     0.824 -40.24   0
       477    918.7094    256.0459 307.5548394  +6.5939629     1486.544     2444.927     2869.259     78.51498     156.5945     313.3447      1.828     4.87     835.8336     55.21015     205.9576        19     1.529     0.869 -39.08   0
       478    738.4894    254.5153 307.6297558  +6.5885837     4859.787     7585.751     7931.966     78.26611     156.9057     313.3447      1.670     3.95     836.3876     55.21015     704.0605        30     1.581     0.952 -40.29   0
       479    976.7677    253.9709 307.5307903  +6.5967537     666.0624     1118.219     964.2408     78.01646     156.4075     313.0021      1.929     4.90     834.4653     55.21015       133.49         8     1.111     0.765 -89.69   0
       480    679.3111    254.2438 307.6543479  +6.5867195     1978.194     2978.935     3004.942     78.51498     156.5945     313.2513      1.645     4.34     835.9044     55.21015     291.7921        18     1.463     0.766 -42.89   0
       481    394.4478    248.5948 307.7728684  +6.5795216     814.2192     1318.071     1165.272     77.89133     156.4699     312.9086      1.565     4.90     833.8346     55.21015     115.9927        11     1.159     0.814 -53.17   0
       482    934.4714    246.4352 307.5486124  +6.5984559     835.1757     1030.067     1164.984     78.39065     156.6568     313.2202      1.599     5.25     835.2197     55.21015     122.4211        10     1.275     0.611 -33.42   0
       483    238.1155    239.6175 307.8381080  +6.5779859     2239.873     3570.479      3731.96     78.14139     156.4075     313.1579      1.695     4.41     836.0718     55.21015     291.0358        20     1.485     0.821 -33.64   0
       484    880.5699    238.7767 307.5712597  +6.5998213     1609.919     2589.499      2834.66     78.01646     156.5322     313.0645      1.747     4.84     835.8303     55.21015     208.3834        18     1.496     0.782 -30.30   0
       485    770.9885    238.1024 307.6168041  +6.5964445     1521.853     2475.062     2059.343     78.26611     156.4075     313.0333      1.541     5.50     835.9967     55.21015      216.807        16     1.488     0.700 -36.20   0
       486    591.2086    234.6368 307.6916024  +6.5918696      472.614      591.601     142.8312     77.76601     156.4075      312.971      1.430     4.11      833.813     55.21015     101.0494         6     1.168     0.412 -31.72   0
       487    259.8795    233.3174 307.8292793  +6.5813170     585.0787     950.3371     701.3434     78.63911     156.9057     313.3447      1.628     6.02     835.6259     55.21015     93.40308         8     1.456     0.701 -74.62   0
       488    471.9163    229.5692 307.7413265  +6.5899706      21961.1     34916.39     36950.96     78.51498     156.4699     313.0956      1.715     4.08     832.6777     55.21015     2845.361        59     1.736     1.077 -38.62   2
       489    477.7610    224.1225 307.7390812  +6.5924148     1424.222     2344.734     2085.259     78.39064     156.7191     313.2202      1.630     4.89     832.4484     55.21015     218.0909        15     1.367     0.826 -29.25   3
       490    333.1811    231.1466 307.7989036  +6.5846716     571.5307     899.9174     451.0241     78.01646     156.6568     313.0333      1.481     3.67     834.5739     55.21015     100.4077         5     1.356     0.286  78.77   0
       491    797.9683    228.7156 307.6059100  +6.6012202     12647.93     20349.01     22165.26     78.51498     156.4699     313.1268      1.738     4.20     835.8343     55.21015     1725.211        49     1.799     1.057 -32.06   0
       492    160.2664    222.8458 307.8710089  +6.5822963     2294.924     3727.219     3895.529     78.51498     156.5945     313.2513      1.727     4.21     837.0464     55.21015     355.8814        19     1.411     0.798 -38.23   0
       493    134.7218    221.9579 307.8816494  +6.5818048     1001.941     1632.899     1540.236     78.39064     156.6568     313.2513      1.682     5.06     837.6517     55.21015      151.537        12     1.478     0.639 -40.14   0
       494    790.0609    221.1858 307.6094465  +6.6040649     560.3677     1060.832     1548.467     78.01646     156.5322      312.971      2.799     4.23     835.5378     55.21015     87.63165         5     0.907     0.657  22.16   0
       495    187.2595    220.5187 307.8598747  +6.5841634     620.0727     1076.217      1807.04     78.63911     156.6568     313.2202      1.925     4.02     836.5758     55.21015     116.7338         6     1.131     0.422 -32.48   0
       496    934.2289    219.0847 307.5496259  +6.6097395     1372.051      2134.71     1947.522     78.51498     156.3452     313.0645      1.547     4.91     834.1031     55.21015     200.2222        15     1.517     0.663 -43.69   0
       497    595.9691    215.3978 307.6902690  +6.5999714     4446.252     7033.278     7302.428     77.89133     156.4699     313.0021      1.644     4.35     833.4297     55.21015     609.4644        28     1.552     0.888 -41.29   0
       498    316.4082    215.9906 307.8063798  +6.5903661     1106.471     1699.184     1558.668     78.01646     156.4699     313.0956      1.615     4.26     834.7158     55.21015     152.4943        12     1.142     0.714 -46.64   0
       499    558.5762    215.3452 307.7058042  +6.5987427      2028.39     3362.437     3463.578     78.14139     156.6568     313.0333      1.702     4.09     832.4893     55.21015     292.6943        18     1.485     0.744 -34.65   0
       500    400.4840    214.4092 307.7715080  +6.5938369     1507.392     2197.536       1640.7     78.14139     156.3452     313.0645      1.503     3.71     833.2944     55.21015     211.6728        15     1.231     0.800 -21.24   0
       501    956.9183    212.3385 307.5404252  +6.6132805     2347.698     3732.659     3879.421     78.63911     156.6568     313.2202      1.636     4.38     833.3084     55.21015       344.71        20     1.564     0.732 -42.24   0
       502    903.0435    211.8808 307.5628216  +6.6116744     10505.57     16548.75      17078.6     78.51498     156.6568     313.1891      1.658     4.11     834.1225     55.21015     1507.917        37     1.645     0.949 -38.11   0
       503    330.3905    212.6718 307.8006830  +6.5922050     851.9346     1567.113     1857.039     78.01646     156.2828     313.0333      1.826     4.25     834.5559     55.21015     112.7701         7     1.132     0.454 -30.64   0
       504    989.7143    209.7033 307.5268886  +6.6154607     9031.632     14357.34     14994.58     78.51498       157.03     313.2825      1.720     4.16      832.734     55.21015     1202.953        40     1.626     1.020 -41.43   0
       505    578.3317    211.6763 307.6977205  +6.6009181     893.8884      1501.88     1445.603     78.63911     156.7813     313.1891      1.747     4.26      832.884     55.21015     150.8787         8     1.273     0.488 -37.57   0
       506    701.0786    209.5493 307.6468006  +6.6058984     2725.379     4370.247     4712.912     78.51498     156.7191     313.2202      1.676     4.47     834.9073     55.21015     379.3073        23     1.514     0.826 -40.10   0
       507     29.1064    208.4564 307.9259741  +6.5838286     24431.07     39293.83     42157.48     78.39064     156.6568      313.407      1.737     4.18     840.4175     55.21015     3242.374        62     1.747     1.132 -38.31   0
       508    275.2812    209.2888 307.8236888  +6.5917534     1052.939     1793.908     1637.893     78.26611     156.8435     313.3136      1.723     6.08     835.2282     55.21015     150.9608        15     1.516     0.685 -40.72   0
       509    509.8688    204.6052 307.7263977  +6.6015470     1946.445     3382.616     3445.185     78.01646     156.2828     313.0333      1.748     4.67     831.7581     55.21015     286.9487        23     1.670     0.864 -42.74   0
       510    521.5306    200.5708 307.7216884  +6.6036028     2542.414     4119.941     4368.052     78.26611     156.6568     313.1579      1.744     4.13     831.6259     55.21015     389.5552        25     1.629     0.873 -40.20   0
       511    893.8022    200.3471 307.5670458  +6.6161280     1877.506     3024.029     3355.671     77.89133     156.4075     312.8151      1.761     4.35     833.4544     55.21015     265.0406        19     1.475     0.775 -39.05   0
       512    841.5674    201.1737 307.5887181  +6.6140451     2007.687     3031.595     2944.486     78.01646     156.4075     313.0333      1.635     4.60     834.1808     55.21015     265.7118        20     1.529     0.820 -35.26   0
       513    427.4695    201.8724 307.7607186  +6.5999165     491.9515     595.6069     716.1068     78.63911     156.7813     313.2202      1.566     3.42     832.5297     55.21015     79.69104         5     1.241     0.273 -35.73   0
       514    809.8076    201.4085 307.6019042  +6.6128888     383.7029     370.6816      230.081     77.89133     156.4699     313.0956      1.010     3.45     834.4452     55.21015     74.14191         5     0.788     0.437 -20.09   0
       515    753.1774    197.8703 307.6255482  +6.6124597     37974.14     59711.02     62553.59     78.14139     156.5322     313.1891      1.668     4.08      834.764     55.21015     5763.184        65     1.683     1.077 -38.09   0
       516    356.2375    197.2435 307.7904641  +6.5994408     5773.354     11818.08     13158.96     78.26611     156.6568     313.0645      2.154     6.34      834.273     55.21015     656.9669        44     2.063     1.119 -61.36   0
       517    986.9579    196.6623 307.5284686  +6.6207529         2635     3980.778     4345.149     78.51498     156.5945     313.3136      1.613     4.44     832.0779     55.21015     340.9951        18     1.403     0.775 -34.68   0
       518    921.0746    194.9236 307.5558970  +6.6192760     7229.396     11355.91     12015.49     78.76305     156.9057     313.2825      1.659     4.14     832.6776     55.21015     1035.953        38     1.589     1.039 -45.14   0
       519    464.5822    193.9494 307.7455674  +6.6044302     4747.164     7531.533     7826.729     78.01646     156.7191      312.971      1.676     4.04     831.6423     55.21015     649.9285        29     1.530     0.999 -34.60   0
       520    240.0735    190.2941 307.8389521  +6.5984138     665.3287      1141.26     1032.257     78.39064     156.7813     313.2202      1.711     3.48     835.6161     55.21015     105.4796         5     1.026     0.340 -43.66   0
       521    121.9571    185.3007 307.8881849  +6.5965090     4805.455     7618.331     7818.896     78.51498     156.5322     313.4381      1.684     4.33     837.2863     55.21015     584.9639        29     1.593     0.940 -37.72   0
       522    941.1500    184.4312 307.5479071  +6.6242767     793.0323     1085.107     1314.495     78.26611     156.6568     313.1579      1.655     5.14     831.7119     55.21015     128.5096         8     1.341     0.561 -35.02   0
       523    292.2189    182.0645 307.8175673  +6.6035606     32183.34     52019.89     54688.84     78.14139     156.6568     313.0645      1.707     4.15     834.9931     55.21015     4482.389        61     1.710     1.115 -39.90   0
       524    267.4536    183.1810 307.8278174  +6.6022690     6442.053     10565.35     11077.43     78.01646     156.6568     313.0333      1.759     4.20     835.2732     55.21015     884.0659        39     1.667     1.040 -37.58   0
       525    619.2382    183.3798 307.6816747  +6.6139677     577.5387     896.1346      1253.04     78.14139     156.4699      312.971      1.472     3.52     833.1564     55.21015     105.2087         5     0.752     0.474  10.11   0
       526    416.3131    177.5334 307.7661696  +6.6095908     48154.21     76516.94     80296.98     78.51498     156.8435     313.2513      1.713     4.12     832.2487     55.21015     6646.379        71     1.705     1.145 -39.80   0
       527    721.1460    181.3431 307.6394076  +6.6182134     771.8214     1292.162      1344.26     78.63911     156.6568     313.2202      1.745     5.64      834.345     55.21015     104.5107        12     1.466     0.610 -35.24   0
       528    172.1783    178.8203 307.8675413  +6.6008712      3801.92     6191.275     6405.177     78.26611     156.5945     313.1579      1.733     4.40     835.9728     55.21015     528.8063        27     1.583     0.896 -37.69   0
       529    433.8551    178.0227 307.7588660  +6.6099764     1377.025     2443.988     2627.146     78.14139     156.6568     313.0333      1.851     4.26     831.8314     55.21015     195.8602        16     1.432     0.764 -44.11   0
       530    320.2748    175.2576 307.8061414  +6.6073116     17551.43     28122.79     30451.87     78.51498     156.6568     313.2202      1.733     4.16     834.7435     55.21015     2288.779        50     1.750     1.021 -38.66   2
       531    327.8098    175.1024 307.8030165  +6.6076284      2084.43     3846.875         4976     78.26611     156.2828     313.0645      2.353     6.69     834.6727     55.21015     260.2296        28     1.993     1.098 -57.90   3
       532    755.6010    173.7478 307.6253478  +6.6224994     31634.87     49509.84     52052.57     77.89133     156.2204     312.7839      1.687     4.27     833.9301     55.21015     4389.677        57     1.666     1.057 -39.81   0
       533    586.4603    177.1921 307.6954986  +6.6154263     546.3346     874.5619     1150.458     77.89133     156.4699     313.0021      1.623     4.38     832.1092     55.21015     101.8097         7     1.215     0.450 -25.15   0
       534    803.7762    174.4562 307.6053105  +6.6238147     1094.278     1703.092     1871.797     78.14139     156.6568     313.0333      1.691     5.61     833.0897     55.21015     155.7653        13     1.439     0.617 -34.12   0
       535     42.7466    174.1070 307.9214649  +6.5984675     549.8796     1004.639     1118.923     78.39064     156.5945      313.407      2.151     3.82     839.9122     55.21015     98.42114         6     1.184     0.353 -28.66   0
       536     72.3093    171.0003 307.9092894  +6.6007440     8592.163      13813.3     14360.01     77.76601     156.1579     313.0021      1.704     4.16     838.7648     55.21015     1192.599        39     1.637     1.019 -38.58   0
       537    579.6107    171.5809 307.6985321  +6.6175138     503.5379     769.5916     936.2971     78.14139     156.3452     313.0956      1.305     3.31     831.7728     55.21015     103.9356         5     1.015     0.314 -67.26   0
       538    106.4976    169.0604 307.8951531  +6.6026939     1289.678     2213.008     1920.278     78.26611     156.6568     313.3136      1.778     4.62     837.4753     55.21015     182.1632        17     1.333     0.922 -22.51   0
       539   1014.2831    168.0312 307.5180716  +6.6334831      940.594      1427.19     1837.517     78.51498     156.4699     313.0956      1.739     5.47     830.4359     55.21015     142.3119        14     1.338     0.979 -40.75   0
       540    982.1161    166.9114 307.5314725  +6.6328743     598.3478     750.2971     1079.878     78.26611     156.8435     313.2825      1.262     2.66     830.4836     55.21015     118.7835         6     0.751     0.546 -51.69   0
       541    337.2546    161.8605 307.7995376  +6.6134116     2138.484     2150.268       2450.1     78.63911     156.5945     313.1891      0.793     1.75     834.6341     55.21015     839.7285         6     0.698     0.406  73.74   0
       542    703.6729    175.5441 307.6468604  +6.6200239     974.4589     1548.173     1519.343     78.39065     156.5322     313.1891      1.794     5.49     834.1129     55.21015     149.5142        11     1.332     0.638 -45.50   0
       543    589.5839    158.4542 307.6948286  +6.6232666     654.7488     1028.545     708.2502     77.89133     156.6568     312.9398      1.669     4.72     831.6877     55.21015     109.5147         7     1.274     0.497 -50.88   0
       544   1015.0476    154.3893 307.5182089  +6.6391406      2030.37     3303.432     3865.098     78.01646     156.5322     312.9086      1.718     4.14     829.8344     55.21015     271.6933        19     1.343     0.918 -29.64  16
       545      5.6807    156.2995 307.9374614  +6.6045722     705.8077     969.7608     427.6344     78.51498     157.0921     294.1411      1.448     4.10     841.3404     55.21015      118.679         7     1.085     0.443 -29.06  16
       546    606.4523    150.0047 307.6881038  +6.6273189     1981.156     2962.346     3271.921     77.89133     156.4075     312.8463      1.630     4.01       831.86     55.21015     280.1702        20     1.482     0.818 -40.78   0
       547    598.1094    151.7255 307.6915121  +6.6263295     1123.751     1579.365     1948.178     78.51498     156.8435     313.2513      1.494     3.97     831.7079     55.21015     186.6388        11     1.192     0.638 -39.93   0
       548    350.4201    149.9808 307.7944673  +6.6187574     892.8203     1365.081     1459.138     78.26611     156.5945     313.1579      1.525     5.42     834.5762     55.21015     140.3022        12     1.353     0.613 -33.40   0
       549     36.4568    146.8105 307.9249967  +6.6095246     4222.154      7080.12      7375.83     77.89133     156.5945     312.9398      1.799     4.46     839.7978     55.21015     528.0068        29     1.515     1.037 -38.13   0
       550    722.8937    144.8740 307.6399013  +6.6333277     7630.222     12108.97     12747.94     78.39064     156.7813     313.2202      1.630     4.24     832.9114     55.21015     1081.362        33     1.562     0.980 -40.60   0
       551    200.2818    146.2168 307.8569633  +6.6152744     941.3539     1416.502     1535.092     78.14139     156.3452     313.1268      1.662     4.76     835.1408     55.21015     142.2461         9     1.225     0.525 -46.92   0
       552    276.8411    143.1976 307.8252611  +6.6190902     737.9525     1150.001     903.3726     77.89133     156.4075      312.971      1.804     5.67     835.0009     55.21015     95.41962        10     1.194     0.758 -30.92   0
       553    133.5789    142.0608 307.8848120  +6.6147499     4664.251     7495.292      7716.66     78.14139     156.5945     313.1579      1.697     3.97     835.5457     55.21015      633.381        29     1.579     0.937 -34.33   0
       554    291.0630    148.3356 307.8191805  +6.6174462     29173.37     47440.85     50739.96     78.51498     156.6568     313.2513      1.749     4.30     834.9485     55.21015     3767.604        73     1.914     1.156 -36.23   0
       555    472.7462    139.2030 307.7440116  +6.6273048     1273.766     2027.497      1969.88     77.89133     156.4075     312.8463      1.629     4.22     830.1744     55.21015     177.9236        13     1.335     0.699 -37.10   0
       556    404.3070    138.0929 307.7724804  +6.6254710     3686.461     6402.921     6928.976     78.51498     157.1541     313.1891      1.861     4.38     831.9611     55.21015     448.9898        32     1.584     1.109 -54.31   0
       557    661.1162    138.8987 307.6657661  +6.6337309     724.4287     1090.653     575.4421     78.51498     157.0921     313.3136      1.481     5.32     832.2097     55.21015     112.9453        10     1.435     0.574 -39.36   0
       558    368.7187    136.8654 307.7873059  +6.6247851     3069.614     4888.238     4877.433     78.76305     156.8435     313.2202      1.689     4.13      833.772     55.21015     404.0974        22     1.536     0.837 -39.96   0
       559    123.2421    136.6486 307.8892880  +6.6166369     1767.526     2698.274     2554.099     78.51498     156.5945     313.1579      1.617     4.54     835.6657     55.21015     218.2643        18     1.419     0.813 -46.92   0
       560    580.8055    136.6890 307.6992043  +6.6319585     646.1296     1035.029     1137.363     78.01646     156.3452      312.971      1.744     4.82      830.708     55.21015     92.46899         7     1.017     0.646  67.42   0
       561    759.3190    134.8566 307.6251036  +6.6386795     482.9277     834.2413     625.0341     78.63911     156.6568     313.2202      1.349     3.92     831.9634     55.21015     79.17853         6     1.224     0.359 -29.31   0
       562    685.0306    134.3573 307.6559831  +6.6364048      667.572     1057.109     1421.567     78.14139     156.5945     313.0645      1.433     4.31     832.1504     55.21015     104.6824         7     0.890     0.594 -27.04   0
       563     61.6754    133.0938 307.9149828  +6.6160351     439.1189     707.0455     183.0398     78.39064     156.8435     313.2202      1.643     3.82     838.1073     55.21015     72.12415         5     1.512     0.277 -49.26   0
       564   1015.5125    130.9596 307.5187971  +6.6488289     1272.174     2154.762     2179.779     78.51498     156.5945     313.2513      1.791     5.14     828.9321     55.21015     181.7231        16     1.510     0.862 -46.37  16
       565    220.5425    125.8620 307.8492310  +6.6243576     5373.063      8292.09     8104.122     78.63911     156.5945     313.2513      1.635     3.94     834.8516     55.21015     741.8604        27     1.540     0.885 -39.48   0
       566    103.3457    125.6898 307.8979219  +6.6204924      2187.55     3406.911     3556.201     78.51498     156.4699     313.3447      1.789     4.86     835.8132     55.21015     281.3424        22     1.646     0.828 -40.84   0
       567    682.2973    124.6958 307.6574419  +6.6403022     6023.899     9147.196     9569.078     78.51498     157.2162     313.0645      1.622     4.25     831.6431     55.21015     820.7265        28     1.569     0.862 -35.23   0
       568    830.0554    124.6347 307.5960577  +6.6452599     774.3932     1177.275     1125.491     78.39064     156.6568     313.2202      1.463     6.08     830.4611     55.21015     110.2692        12     1.581     0.657 -30.76   0
       569    634.5640    121.9222 307.6773654  +6.6398522     8966.087     14340.61     15449.52     78.39064     156.7191     313.2202      1.708     4.25     830.9828     55.21015     1230.568        41     1.642     1.020 -39.93   3
       570    638.0512    113.4696 307.6761995  +6.6434583     50986.13     80942.85      85542.6     78.39064     156.5322     313.2513      1.699     4.36     830.5709     55.21015     6878.421        69     1.727     1.086 -39.17   2
       571    269.6091    122.3025 307.8289674  +6.6274737      620.431     1102.665      1537.77     78.26611     156.2828     313.0021      1.723     4.44     834.8552     55.21015     84.03546         7     1.244     0.451 -50.48   0
       572     33.2098    121.0677 307.9272125  +6.6200425     867.8999     1466.344     1212.325     78.01646     156.4699     313.0956      1.810     5.84     839.2657     55.21015     102.0322        11     1.317     0.729 -44.75   0
       573    361.7552    117.7192 307.7908414  +6.6324559     3600.982     5971.218     6590.854     78.51498     156.6568     313.1891      1.789     4.50     834.1353     55.21015     499.0414        32     1.799     0.933 -44.26   0
       574    543.5662    116.8896 307.7153383  +6.6388868     1650.216     2642.111     2639.778     78.63911     156.5322     313.2202      1.670     4.50     829.5888     55.21015     224.5981        16     1.467     0.706 -46.64   0
       575   1008.1522    116.3573 307.5223420  +6.6546124      724.677     1281.218     1673.969     78.51498     156.5945     313.1579      1.777     4.44     828.4462     55.21015     121.4442         5     1.113     0.503 -52.93   0
       576    317.1927    107.2429 307.8097058  +6.6352868     3346.456     5642.537     6508.597     78.01646     156.4075     312.9398      1.801     4.19     834.7722     55.21015     459.2722        26     1.489     0.948 -41.22   0
       577     14.5811     90.2970 307.9359874  +6.6321187     732188.2      1632175      1804075     78.39065     156.5322      312.971      2.252     7.14     839.2112     55.21015      62089.1       472     2.361     1.836 -42.29  20
       578    512.3168    104.8577 307.7287239  +6.6428084     529.4914     1032.108     844.5184     78.51498     156.6568     313.2825      1.699     4.27     829.5934     55.21015     97.93951         5     1.113     0.467 -32.73   0
       579    717.2769    101.4109 307.6436886  +6.6510835     947.3982     1642.835     1394.357     78.14139     156.2828     313.0645      1.772     5.56      830.326     55.21015     131.2274        11     1.192     0.731 -26.82   0
       580    688.4362    100.6113 307.6556974  +6.6504503     1285.093     1796.219     1678.748     78.01646     156.4699     312.9398      1.549     5.32     830.3165     55.21015     183.7098        13     1.504     0.717 -59.14   0
       581    702.5765     97.3327 307.6499324  +6.6522762     3105.342     4665.721     4727.668     78.14139     156.5945     313.1579      1.671     4.11     830.0931     55.21015     416.8879        23     1.510     0.848 -37.10   0
       582    444.1675     88.4020 307.7575880  +6.6473202     3935.407     6330.654     6453.521     77.76601     156.4699     313.0021      1.692     4.51     830.0358     55.21015     523.9237        29     1.568     0.937 -37.51   0
       583    898.8284     84.7703 307.5688167  +6.6640109      2000.43      3148.93     3155.017     78.01646     156.4075      312.971      1.589     4.10     828.7367     55.21015     301.9627        20     1.473     0.834 -50.90   0
       584    916.8251     83.8923 307.5613689  +6.6649732     3643.116     5772.835     6352.304     78.63911     156.4075     313.0645      1.626     4.33     828.6552     55.21015     470.6359        22     1.488     0.831 -44.09   0
       585    596.8634     84.4488 307.6942829  +6.6540622     626.4435     952.4614     1007.698     78.39064     156.5945     313.2825      1.546     4.68      829.121     55.21015     97.25732         6     1.194     0.520 -45.03   0
       586    608.9919     82.3400 307.6893146  +6.6553384     1709.351     2396.809     1921.728     77.89133     156.4699      312.971      1.502     3.97        829.1     55.21015     238.2698        15     1.312     0.711 -33.19   0
       587    628.6152     82.1627 307.6811679  +6.6560675     439.1619     557.8116     406.2754     78.14139     156.4699      312.971      1.398     3.46     829.2406     55.21015     67.17102         5     0.793     0.436 -70.99   0
       588    254.3457     81.7735 307.8366701  +6.6436930     821.5442     1340.095      1806.48     78.14139     156.7813     313.0645      1.754     4.53     834.2598     55.21015     101.6744         8     1.116     0.522 -32.20   0
       589    407.8132     80.1357 307.7729685  +6.6495151     1902.734     3018.672     2799.626     78.01646     156.4699     313.0956      1.622     3.79     831.0854     55.21015     272.6362        18     1.337     0.808 -44.69   0
       590    155.4840     77.1857 307.8778947  +6.6422678     3176.635     4958.545     5308.787     78.14139     156.4075     313.0645      1.664     4.17     832.5042     55.21015     431.1508        22     1.497     0.817 -39.63   0
       591     37.3408     75.0079 307.9270476  +6.6391958     11692.03     19164.69     20498.49     77.89133     156.5322     312.9398      1.731     4.12     836.9165     55.21015      1616.63        46     1.639     1.114 -39.70   0
       592    304.1703     75.3698 307.8161862  +6.6480082     1194.443     2159.607     2884.537     78.01646     156.4075      312.971      2.190     4.91     834.7684     55.21015     171.4005        15     1.401     0.800 -36.76   0
       593    576.9636     74.7754 307.7028744  +6.6573903     649.0126     937.5245     612.3804     78.14139     156.4699      312.971      1.707     4.11     828.8383     55.21015     112.7638         7     1.157     0.418 -54.29   0
       594    564.3550     74.0754 307.7081362  +6.6572575     800.0447     1000.919     471.4929     78.39064     156.7191     313.2513      1.556     4.80     828.7843     55.21015     124.3979        10     1.321     0.613 -43.10   0
       595    958.2220     73.3800 307.5445204  +6.6706926     608.4441     765.2975     470.2552     78.26611     156.5322     313.1579      1.480     4.17     827.4714     55.21015     102.7289         6     0.934     0.532 -40.82   0
       596    839.0454     69.6111 307.5941612  +6.6682759      5962.46     9222.527     9996.618     78.01646     156.5322     312.9398      1.668     4.21       828.23     55.21015     806.5312        32     1.633     0.913 -38.02   0
       597    784.2872     70.0028 307.6168986  +6.6662872     3019.255     4742.829     5055.659     77.89133     156.2828      312.971      1.651     4.31     828.4143     55.21015     446.8679        22     1.452     0.850 -39.53   0
       598    429.4931     70.0285 307.7643008  +6.6544139     1032.375     1630.479     1666.894     78.63911     156.4075     313.1268      1.704     3.78     830.3755     55.21015     178.7626        12     1.197     0.851 -38.03   0
       599    771.1654     69.2356 307.6223759  +6.6661660      610.546     1019.633     2074.962     78.26611     156.4075      312.971      3.810     5.52     828.5058     55.21015      93.9707         8     1.017     0.844 -44.36   0
       600    546.5353     67.9604 307.7157444  +6.6591859     1169.039     1855.047     2078.707     78.51498     156.5945     313.3136      1.716     4.42     828.6046     55.21015      178.406        14     1.345     0.673 -50.73   0
       601     77.6839     66.8198 307.9105638  +6.6439326     3100.094     4834.304     4888.493     78.14139     156.3452     313.1891      1.659     4.56     834.4646     55.21015     412.9773        21     1.473     0.824 -41.55   0
       602     62.7027     67.4265 307.9167670  +6.6431785     944.4296     1590.982      1404.72     78.63911     156.4075     313.1579      1.765     5.90     835.1644     55.21015     151.6013        12     1.274     0.788 -35.34   0
       603    666.3879     67.3190 307.6659717  +6.6634580     632.3394     952.5181       747.21     78.14139     156.3452     313.0645      1.416     3.93     828.9726     55.21015     124.1032         6     1.012     0.575 -32.15   0
       604    439.0097     66.3544 307.7604703  +6.6562494     846.7959     1118.708     952.6611     78.01646     156.5322     312.9086      1.461     5.21     830.1851     55.21015     127.6568        10     1.194     0.642 -33.71   0
       605    601.6512     63.3258 307.6930012  +6.6629427      1352.88     2187.763      2216.71     78.51498     156.7191     313.2513      1.758     5.69     828.5751     55.21015     173.9667        15     1.392     0.747 -51.60   0
       606     20.0864     62.1780 307.9346476  +6.6439119     2436.111     4085.387     4997.011     78.51498     156.4699     313.0956      1.822     4.18     836.7905     55.21015     328.5394        22     1.458     0.886 -37.79   0
       607    778.8307     57.4070 307.6195867  +6.6713052     1833.431     2971.912      3801.52     77.89133     156.4699     313.0021      1.947     4.24     827.9247     55.21015     271.2863        19     1.405     0.885 -45.08   0
       608    419.7874     57.6242 307.7687492  +6.6592097     1121.265     1672.327     1285.272     78.14139     156.4699     313.1579      1.629     5.00     830.7129     55.21015     159.5616        13     1.264     0.905 -28.40   0
       609     92.6546     57.8742 307.9046457  +6.6481288     753.3252     1205.857     1174.479     78.39064     156.5945     313.1579      1.762     5.12      833.415     55.21015      122.045        10     1.103     0.672 -49.10   0
       610    116.6139     56.3142 307.8947448  +6.6495780     835.9092      1136.57     1194.994     78.14139     156.4699     313.1268      1.511     5.18      832.895     55.21015      131.925        11     1.625     0.466 -34.23   0
       611    105.4127     51.0504 307.8995753  +6.6513746     8930.751      14445.1     15123.98     77.89133     156.5945     312.9398      1.714     4.08     832.8985     55.21015     1176.004        41     1.651     1.050 -40.81   0
       612    434.6451     50.8006 307.7628054  +6.6625243     2420.995     3777.711     3740.868     77.89133     156.2828     312.8151      1.669     4.09     830.3618     55.21015     315.2565        23     1.548     0.897 -37.21   0
       613    648.2551     43.1650 307.6743138  +6.6728237     17669.13     27672.75     29263.18     78.39064     156.6568     313.2513      1.671     4.18     828.1017     55.21015       2432.2        47     1.657     1.038 -39.46   0
       614    272.0698     45.2098 307.8305355  +6.6593822      1661.88     2749.751     4251.353     78.01646     156.4075     313.0645      2.159     5.10     834.1937     55.21015     204.6655        20     1.540     0.857 -37.91   0
       615    548.0136     39.2020 307.7160939  +6.6711078     4768.515     7716.408       8090.4     78.14139     156.3452     313.0021      1.697     4.22      827.918     55.21015     693.8651        33     1.599     0.980 -38.02   0
       616     15.3772     37.6505 307.9374302  +6.6538788     1178.799     2104.361     2032.021     78.01646     156.7191     313.1268      1.795     5.18     835.1251     55.21015     185.1394        20     1.579     0.929 -37.63   0
       617    453.5501     34.8065 307.7554877  +6.6697604     21889.12     34888.37     36348.14     78.01646     156.4699     312.8463      1.711     4.06     829.7587     55.21015     3014.708        52     1.677     1.070 -40.84   0
       618    634.3139     32.8481 307.6804515  +6.6766170     3107.168     5186.647     6622.426     78.51498     156.5945     313.2513      1.879     4.27     827.7755     55.21015      457.882        27     1.562     0.976 -42.43   2
       619    274.1403     35.2218 307.8300109  +6.6635750     8744.578     14509.77     16153.37     78.14139     156.5945     313.0956      1.797     4.26     834.1832     55.21015     1174.793        43     1.700     1.053 -37.37   0
       620    931.3330     34.9321 307.5569757  +6.6856696     1833.782     2824.143     2409.759     78.51498     156.7191     313.2513      1.608     4.01      826.746     55.21015     283.0422        17     1.429     0.737 -47.81   0
       621    266.3203     39.3670 307.8331204  +6.6616014     1899.358     3542.711     5222.023     78.39065     156.6568     313.2202      2.265     4.05      833.919     55.21015     277.0847        24     1.494     1.016 -29.09   1
       622    334.3300     35.1632 307.8050069  +6.6656180     934.1646     1597.257     2018.742     78.39064     156.7191     313.2825      1.972     5.05     834.7684     55.21015     134.4826         9     1.285     0.561 -45.82   0
       623     39.3594     34.9030 307.9275597  +6.6558197     2291.536      3582.09     3607.849     78.51498     156.5322     313.4381      1.633     4.66     834.1606     55.21015     317.7007        20     1.558     0.789 -39.75   0
       624    566.9477     34.3187 307.7083910  +6.6737572     709.0818     993.1304     408.6003     78.51498     156.6568     313.2513      1.560     5.55     827.8003     55.21015     94.09088         9     1.023     0.848 -47.10   0
       625    262.0909     31.8481 307.8351302  +6.6645634     2923.059     4726.258     5952.742     78.51498     156.5322     313.3759      1.753     4.41     833.6729     55.21015     383.5267        23     1.619     0.838 -44.96   0
       626    314.8541     29.9951 307.8132718  +6.6670985     1012.354     1717.356     1823.187     77.89133     156.4075     312.9086      1.752     4.10     834.7684     55.21015     181.3195        13     1.303     0.831 -36.17   0
       627    952.4189     24.7730 307.5485538  +6.6905663     905.6285     1556.996      1356.58     78.14139     156.4699     313.1268      1.778     6.02     825.4654     55.21015     130.8823        12     1.360     0.749 -57.30   0
       628    703.4865     24.2996 307.6519979  +6.6824575     1668.671     2572.959     2156.515     78.51498     157.1541     313.2825      1.591     4.06     827.1732     55.21015     243.8669        17     1.452     0.719 -36.42   0
       629    108.1236     25.1230 307.8993217  +6.6621690     634.1894     901.0435     1104.102     78.76305     156.9057     313.2825      1.562     3.78     832.0562     55.21015     97.31384         8     0.856     0.647 -43.57   0
       630    214.3680     20.3189 307.8553444  +6.6677212     900.5541     1331.802     759.9305     78.39065     156.5945     313.1891      1.529     5.00     831.8383     55.21015     127.0519        10     1.293     0.629 -29.26   0
       631    269.2436     19.3592 307.8325783  +6.6699592     775.0101      1268.56     1603.945     78.26611     156.6568     313.0956      1.861     5.97     833.8215     55.21015     133.0759        11     1.568     0.640 -26.50   0
       632    762.5955   1019.3956 307.5941893  +6.2736070     1026.297     1884.009      2009.38     77.89133     156.2204     293.2112      1.964     6.51     857.9538     55.21015     136.9285        16     1.571     0.877 -38.52  16
       633    969.7064   1013.6689 307.5083965  +6.2828734     5407.978     10549.78     11457.32     78.39065     156.7813     313.2513      2.070     4.63     854.8768     55.21015     593.9043        46     1.800     1.326 -30.84  16
       634    724.1457   1014.2998 307.6103221  +6.2744279     945.1735     1583.893     2339.201     78.26611     156.6568     313.5003      1.861     5.46     858.8015     55.21015     104.6472        11     1.132     0.744 -27.79   3
       635    729.5399   1011.7603 307.6081675  +6.2756564     2401.552     4332.596     5243.308     78.51498     156.6568     313.2825      2.135     4.38     858.5505     55.21015      308.103        27     1.699     0.960 -39.10   2
       636    452.9595   1012.3721 307.7229685  +6.2661617      830.332     1271.749     1364.648     78.14139     156.4699     313.0645      1.581     4.78      860.693     55.21015     131.0528        11     1.293     0.578 -42.18   0
       637    745.1973   1010.6834 307.6017032  +6.2766234      964.973     1780.042      2046.56     77.89133     156.2828     312.9086      1.877     5.15     858.1518     55.21015     133.4192        15     1.398     0.849 -11.50   0
       638    376.1131   1009.1952 307.7549767  +6.2649009     1797.117     2811.187     3161.484     78.01646     156.3452     312.9086      1.645     4.58     860.1514     55.21015     230.5742        17     1.428     0.772 -41.94   0
       639    254.0193   1013.5824 307.8055145  +6.2589989      1208.56     2138.325     2046.379     78.26611     156.4699     313.1579      1.618     5.92      860.066     55.21015     177.9813        15     1.605     0.764 -18.08  16
       640    792.0253   1001.4170 307.5825715  +6.2820112     172.8183     217.3741     309.6895     78.26611     156.4699     313.1579      0.999     3.42     857.2617     55.21015     73.10535         5     1.719     0.196  35.43   0
       641    762.9326    998.7056 307.5947401  +6.2821602     6961.061     11954.57     12692.43     78.39064     156.8435     313.2513      1.835     4.12     857.7323     55.21015     810.5965        37     1.656     1.107 -35.89   0
       642    558.3947    999.2728 307.6796361  +6.2750958     3835.302     6493.591     6860.839     78.14139     156.2204     313.1268      1.798     4.17     861.3435     55.21015      464.598        30     1.572     1.033 -42.15   0
       643    528.8870   1000.5538 307.6918434  +6.2735805      1122.12     1589.936     1070.905     78.51498     156.5322     313.2202      1.537     5.08     861.1683     55.21015     156.5141        14     1.320     0.768 -24.91   0
       644    308.7088    997.9493 307.7833357  +6.2672858     13932.54     23242.19     25567.79     78.51498     156.4699      313.407      1.842     4.23     859.8621     55.21015     1769.813        62     1.984     1.177 -36.76   0
       645    433.1572    998.7109 307.7316468  +6.2711389     882.3309     1576.664     1335.597     78.51498     156.5322     313.2513      2.012     3.78     860.4807     55.21015     157.4794        10     1.182     0.773 -64.38   0
       646    824.2097    998.1994 307.5693172  +6.2844128     987.8176     1774.368     2108.072     77.89133     156.3452      312.971      2.181     6.60     856.8558     55.21015     123.2013        15     1.253     0.975 -44.42   0
