#   1 NUMBER                 Running object number                                     
#   2 X_IMAGE                Object position along x                                    [pixel]
#   3 Y_IMAGE                Object position along y                                    [pixel]
#   4 ALPHA_J2000            Right ascension of barycenter (J2000)                      [deg]
#   5 DELTA_J2000            Declination of barycenter (J2000)                          [deg]
#   6 FLUX_APER              Flux vector within fixed circular aperture(s)              [count]
#   9 FLUXERR_APER           RMS error vector for aperture flux(es)                     [count]
#  12 FLUX_RADIUS            Fraction-of-light radii                                    [pixel]
#  13 FWHM_IMAGE             FWHM assuming a gaussian core                              [pixel]
#  14 BACKGROUND             Background at centroid position                            [count]
#  15 THRESHOLD              Detection threshold above background                       [count]
#  16 FLUX_MAX               Peak flux above background                                 [count]
#  17 ISOAREA_IMAGE          Isophotal area above Analysis threshold                    [pixel**2]
#  18 A_IMAGE                Profile RMS along major axis                               [pixel]
#  19 B_IMAGE                Profile RMS along minor axis                               [pixel]
#  20 THETA_IMAGE            Position angle (CCW/x)                                     [deg]
#  21 FLAGS                  Extraction flags                                          
         1    163.4463     25.3121 307.8651040  +6.6680517     10539.67     16955.93     18273.43     78.25571     156.0153     312.2169      1.754     4.29     843.9002     55.02784     1367.056        39     1.648     1.025  54.69   0
         2    973.8486     19.2929 307.5284739  +6.6977006     1905.182     3312.067     3148.902     78.13179     156.0153       312.31      1.843     4.25     826.9398     55.02784     259.3964        21     1.451     0.891  54.48   0
         3    693.2175     15.9439 307.6452318  +6.6897014      7264.39     11349.36     12086.82     77.75884     156.0774     311.9375      1.648     4.02     831.9715     55.02784      962.043        36     1.594     0.995  50.97   0
         4    613.4148     15.1440 307.6784283  +6.6873588     3603.518      5646.32     5331.589     77.63412     156.0153     311.9064      1.677     4.62     833.7405     55.02784     508.5842        25     1.614     0.839  55.02   0
         5    315.4855     14.7050 307.8022727  +6.6775422     858.2716     1501.571     1921.991     78.25571     156.5114      312.248      1.814     5.27     842.5477     55.02784      126.832        10     1.379     0.569  54.63   1
         6    369.5292     13.1389 307.7798637  +6.6800042     741.7622     1050.246     813.1602     78.37943     156.1395      312.279      1.540     5.22     840.1288     55.02784     118.8856         9     1.269     0.731  74.26   0
         7     14.5502     10.8299 307.9274771  +6.6690112     8271.679     13397.57     13991.17     77.88335     156.2016     312.0928      1.751     4.53     842.7322     55.02784     1076.499        40     1.730     0.996  53.60  16
         8    413.5597     11.2602 307.7616268  +6.6822581     6158.807      9691.84     10211.54     78.25571     156.1395      312.248      1.725     4.48     837.2709     55.02784     818.9347        32     1.655     0.926  51.92   0
         9    660.7959     10.1506 307.6589029  +6.6910063     888.9363     1520.165     1368.349     77.63412     155.9532     311.8443      1.662     6.11      832.371     55.02784     116.1898        14     1.463     0.718  48.97   0
        10    489.4840      8.2508 307.7301716  +6.6860480     1005.004     1526.448      1498.09     78.25571     156.0774     311.7821      1.604     3.66     833.7482     55.02784      162.847        12     1.237     0.653  49.40  16
        11    310.1443      6.2147 307.8047798  +6.6808659     12121.31     20006.11     21380.36     77.63412     156.0153     298.0214      1.740     4.48      842.673     55.02784     1534.337        43     1.710     1.031  49.91  16
        12     83.6013      6.4024 307.8989291  +6.6731652     2386.095     3923.981     3783.195     77.63413     155.7045     299.6426      1.713     4.74     843.8306     55.02784     311.2732        21     1.604     0.780  50.73  16
        13    404.8162      6.1885 307.7654322  +6.6840572     667.0911     1062.867     1280.536     78.00767     155.8289     297.8262      2.272     5.49     837.8371     55.02784     107.1499         9     1.521     0.558  57.89  16
        14    778.6131      4.9834 307.6101062  +6.6970816     719.2949     1147.328     1222.993     78.00767     155.8289     285.5685      1.731     5.00     831.0555     55.02784     103.0057         8     1.094     0.648  51.97  16
        15    445.3798      4.8344 307.7486183  +6.6859777     750.3381     1256.382      1223.51     77.75884     155.9532     283.8327      1.753     4.49     835.5837     55.02784     135.7076        10     1.355     0.653  52.13  16
        16     75.1715      5.3354 307.9024688  +6.6733214     1533.862      2365.42     2494.941     78.00767     156.1395     289.4109      1.670     4.46     843.5944     55.02784      217.813        17     1.362     0.821  46.22  16
        17    376.3558      4.1185 307.7773313  +6.6839556     2380.011     3700.292     3665.677     78.25571     154.7056     275.3065      1.641     4.43     839.6537     55.02784     311.5189        17     1.381     0.767  49.64  16
        18    637.8244      1.4053 307.6687458  +6.6938455     4687.424     5442.144     4996.327     68.76499     124.9799      235.961      0.994     1.94     832.8134     55.02784     1374.076        13     0.971     0.593   2.15  24
        19    582.2965    996.9799 307.6582681  +6.2811765     1386.846     2235.875     1974.527     78.13179     155.9532     311.9996      1.551     4.86     865.7748     55.02784     208.8953        14     1.352     0.715  50.23   0
        20    941.1357   1021.6249 307.5084067  +6.2830033     5814.727     10332.04     10158.47     77.88335     149.2868     265.4875      1.856     4.66     862.6578     55.02784     752.7368        34     1.762     1.038  44.13  24
        21    695.8030   1022.3945 307.6102718  +6.2744886     902.2238     1727.605     1859.343     77.63413     141.1461      254.531      2.023     6.99     865.6665     55.02784     125.5062        14     1.702     0.805  54.98  24
        22    225.7543   1021.5861 307.8055101  +6.2590619     1248.448     1893.704     1561.483     77.63413      149.611      265.998      1.629     5.35     866.5933     55.02784     185.9307        13     1.266     0.746  58.07  24
        23    623.2747    995.0435 307.6413144  +6.2833476     1443.544     2426.502     2322.367     78.13179     156.2016     312.2169      1.696     5.19     865.5697     55.02784     181.9312        17     1.536     0.748  57.84   0
        24    513.9555    995.5375 307.6866996  +6.2794821     3987.698     6754.257     7681.603     78.25571     156.0774      312.248      1.917     4.56     866.2194     55.02784     529.8604        39     1.944     1.100  27.50   0
        25    466.9790    992.1433 307.7063239  +6.2793080     2105.307     3436.587     3388.154     77.88335     156.1395     311.9996      1.758     4.47     866.5809     55.02784     314.1896        20     1.543     0.788  51.03   0
        26     47.9945    993.5137 307.8802804  +6.2646662     929.6109     1448.658     2018.543     77.75884     155.8289     311.9064      1.753     5.67     863.2538     55.02784     125.1437        12     1.453     0.624  45.21   0
        27    901.2196    984.0844 307.5262451  +6.2971618     39516.91     68736.99     73504.22     77.88335     155.8289     312.1549      1.854     4.48     861.9596     55.02784     4634.903        73     1.841     1.200  52.50   0
        28    306.9854    985.8157 307.7729838  +6.2765505     550.2983     819.5818     1273.669     78.00767     155.8289     312.1238      1.623     3.85      866.606     55.02784      92.3717         5     0.845     0.503  66.65   0
        29    208.3110    982.2647 307.8140832  +6.2747006     1572.197     2791.213      2383.86     78.13179     156.3875     312.2169      1.775     6.41     865.8295     55.02784     194.9414        17     1.498     0.784  46.58   0
        30     97.0498    981.9494 307.8602999  +6.2710889     649.1853     898.5981     760.2201     78.25571     156.0153     312.1238      1.369     4.83     863.7361     55.02784     103.1099         7     1.041     0.635  84.40   0
        31    747.3220    975.7824 307.5904427  +6.2954457     6091.381     10309.58     11728.34     77.75884     155.8911     312.1238      1.876     4.34     864.1651     55.02784     819.0841        37     1.755     1.138  68.76   0
        32    607.4523    980.6401 307.6483707  +6.2887612     808.9183     1555.601     976.9733     78.13179     156.2016     312.1859      1.814     5.34     865.4965     55.02784     108.7336         9     1.477     0.545  63.55   0
        33    799.1892    977.9030 307.5688293  +6.2963045     2118.085     3397.788     3830.663     78.00767     155.7667     311.9996      1.729     4.44     862.8761     55.02784     298.8748        21     1.517     0.849  53.90   0
        34    534.0534    974.8099 307.6790511  +6.2887085     846.0881     1571.582     1441.344     77.63412     156.0774     311.9064      1.942     6.47     865.5361     55.02784     125.3422        14     1.443     0.814  48.92   0
        35    216.6611    974.7204 307.8108705  +6.2780943     1408.635     2371.535     2295.035     78.37943     156.1395     312.1859      1.760     6.23     865.8134     55.02784     180.4924        16     1.405     0.777  53.32   0
        36    181.4250    974.3751 307.8255156  +6.2770523     784.7446     1370.214     1541.021     77.75884     155.9532     312.0617      1.784     6.35     865.3373     55.02784     101.4785        11     1.589     0.712  54.58   0
        37     41.5826    972.7172 307.8836473  +6.2730314     2542.704     4055.549      4426.85     77.88335     155.8289     312.1238      1.736     4.16     863.1935     55.02784     341.8469        25     1.536     0.932  52.76   0
        38    935.5703    970.8325 307.5124228  +6.3037768     6336.949     10671.82     10892.76     77.75884     155.8911     311.9064      1.794     4.30     860.5433     55.02784     813.6771        34     1.709     0.986  50.56   0
        39    192.0059    967.0363 307.8213695  +6.2804362     607.3889     1111.904     1107.805      77.3841     155.8911     311.9686      1.798     3.75     865.3221     55.02784     94.81476         5     0.671     0.602 -89.86   0
        40    618.1788    965.8469 307.6444138  +6.2952246     629.3591     992.0496     1091.861     77.88335     156.1395     312.0307      1.484     4.00     865.1941     55.02784     125.9875         6     1.114     0.412  61.17   0
        41    909.3416    962.6876 307.5235901  +6.3062623     2039.299     3499.535     3227.998     78.25571     156.1395       312.31      1.807     5.51     861.0388     55.02784     287.0211        25     1.754     0.887  49.08   0
        42    242.2109    958.5189 307.8008071  +6.2856381     4304.452     7034.918     7385.325     77.88335     155.8911     312.0307      1.747     4.26     865.8782     55.02784      575.447        31     1.560     1.036  50.12   0
        43    768.9784    958.8964 307.5820158  +6.3031376     1267.991      1971.62     1825.091     78.13179     155.9532     311.9996      1.576     5.17     863.3722     55.02784     167.0972        17     1.419     0.816  50.51   0
        44    630.0335    958.3747 307.6397418  +6.2987048     4447.812      7036.36     7238.727     77.63412     155.8911     311.9996      1.681     4.26     864.9262     55.02784     578.7145        27     1.582     0.910  50.20   0
        45    979.1498    958.3361 307.4947418  +6.3103875     698.9588     1151.531       1142.7     78.25571     156.0774     312.2169      1.619     5.23     858.1391     55.02784      87.6651         8     1.174     0.790  87.86   0
        46     10.9661    956.2112 307.8969210  +6.2788112     1971.565     3111.542     3388.949     77.75884     155.9532     311.9996      1.671     4.73     862.8906     55.02784     259.7501        20     1.520     0.929  58.98   0
        47    452.4105    956.6551 307.7135711  +6.2934632     1119.315     1746.432     1301.852     77.63413     156.0774     311.8754      1.678     5.10     866.2244     55.02784     160.9306        14     1.245     0.897  51.05   0
        48    861.7246    955.1124 307.5436218  +6.3077982     917.7234     1348.897     1200.727     78.25571     156.4495      312.279      1.543     4.76     862.2595     55.02784     131.3279        10     1.020     0.898  19.08   0
        49    933.2350    952.6124 307.5140043  +6.3112173     651.3764     1208.468     628.8509     77.75884     155.9532     312.0307      1.767     6.12     859.7907     55.02784     126.8907         9     1.514     0.895  55.10   0
        50    278.5970    952.6895 307.7858926  +6.2892659     914.6134     1314.974     1889.492     77.63413     155.8289     311.8754      1.771     4.42     866.2461     55.02784     158.9419        12     1.291     0.658  65.74   0
        51    954.1871    952.7970 307.5052958  +6.3118404     531.7336     784.0674     753.4988     77.88335     155.8289     312.0617      1.524     4.31     858.9704     55.02784     79.81677         5     0.767     0.690  36.70   0
        52    554.7349    950.9186 307.6712666  +6.2992599     1729.829     2634.532     2645.517     78.50296     156.2636     312.1859      1.640     4.49     864.8768     55.02784     228.5357        18     1.368     0.857  48.59   0
        53    985.3339    950.4921 307.4924364  +6.3138306     772.1471     1352.305     1584.415     78.25571     156.3256     312.1859      1.836     5.03     857.6803     55.02784     119.0998         8     1.101     0.651  41.41   0
        54    594.0146    947.5567 307.6550658  +6.3019628     1247.546     1761.903     2128.706     77.50922     155.9532     311.9375      1.575     4.48     864.9942     55.02784     171.9121        16     1.343     0.820  63.47   0
        55     43.6778    947.4834 307.8836316  +6.2835139     775.1297     1406.256     2418.994     78.37943     156.4495      312.279      2.185     5.23     863.2119     55.02784     102.9441        10     1.254     0.617  56.56   0
        56    273.4936    944.9246 307.7882745  +6.2922985     1421.418     2177.271     3023.981     78.13179     156.3256     312.1859      1.754     5.62     866.0968     55.02784     201.3594        19     1.586     0.908  35.05   0
        57    541.8149    943.3334 307.6768882  +6.3019569     721.2805     1202.456     1037.687     77.75884     156.0153     312.1238      1.426     3.27     864.7112     55.02784     144.8444         5     0.924     0.353  44.01   0
        58    740.9435    941.3177 307.5942508  +6.3094540     919.6801     1645.828     1967.002     78.25571     156.1395      312.279      2.098     4.93     863.5331     55.02784     157.8978        11     1.210     0.643  69.32   0
        59    878.3027    937.7509 307.5373193  +6.3155159     6548.262     10787.94     11217.47     78.25571     156.0774     312.3411      1.763     4.76     861.4944     55.02784     787.7619        35     1.741     0.981  55.92   0
        60    116.2514    938.9065 307.8537821  +6.2894955     641.1658     1000.449     908.2374     78.13179     155.9532     312.3721      1.468     4.69     863.8193     55.02784      96.9751         8     1.276     0.488  66.71   0
        61    414.0925    934.7119 307.7302257  +6.3012325     2070.324     3346.026      3458.25     78.25571     156.5733      312.279      1.681     4.60     866.2817     55.02784     268.8534        21     1.595     0.790  53.92   0
        62    315.7278    933.1122 307.7711329  +6.2985911     9120.598     14615.48     15345.86     78.37943     156.3875     312.1859      1.716     4.28      866.229     55.02784     1219.423        34     1.599     0.965  53.23   0
        63    235.8223    932.0264 307.8043558  +6.2963549     6688.588     10735.21     10908.51     77.75884     155.9532     312.1238      1.688     4.34     865.4513     55.02784     890.7037        32     1.558     0.975  53.22   0
        64    154.9226    931.1929 307.8379826  +6.2939791     502.4358     877.2819     1294.088     77.88335     155.6422     311.9996      1.984     3.90      863.799     55.02784     90.69788         6     0.934     0.467  35.74   0
        65    748.2484    926.3891 307.5917188  +6.3158584      720.163     977.2819     1356.574     77.75884     156.0153     311.8754      1.392     3.54     863.0692     55.02784     133.9451         8     1.039     0.537  53.28   0
        66    563.7261    926.4534 307.6683565  +6.3096564     1204.049     1832.112     1630.467     78.13179     156.1395     312.1549      1.663     5.25     864.4099     55.02784     175.3009        13     1.320     0.792  43.52   0
        67    894.1309    922.9124 307.5312433  +6.3221675     993.9306     1637.884     1543.604     78.25571     156.3875     312.2169      1.573     5.80     860.3252     55.02784     170.0764        11     1.508     0.628  46.25   0
        68    126.9900    922.5250 307.8498766  +6.2966161     638.1882     1081.586     1642.237     77.88335     155.7667     311.9996      2.136     5.77     863.6906     55.02784     84.28455        10     1.356     0.690  74.26   0
        69    393.5112    922.0629 307.7392005  +6.3057614      567.908     1026.295       1368.4     78.25571     156.2636     312.2169      1.780     4.09     865.9937     55.02784     79.41052         5     1.120     0.427 -25.27   0
        70    849.8561    921.2222 307.5496898  +6.3213863     715.9018     1110.644     1023.422     77.88335     156.1395     311.9996      1.605     3.98     861.8144     55.02784     134.5731         6     1.113     0.407  31.43   0
        71    961.7018    919.0089 307.5033084  +6.3260337      901.666     1469.894     1942.855     78.00767     155.7667     311.9686      2.001     5.80     857.5786     55.02784      133.213        10     1.230     0.770  20.31   0
        72    554.4172    916.8083 307.6725478  +6.3133244     583.8413      972.565     416.2059     77.88335     155.8911     312.0307      1.624     4.46     864.1861     55.02784     121.2967         7     1.161     0.488  86.24   0
        73    730.1511    915.7775 307.5995924  +6.3196320     1646.672     2836.726     3098.438     77.88335     156.2016     312.0928      1.710     5.07     862.8513     55.02784     231.3112        21     1.631     0.839  47.28   0
        74    823.2175    916.3919 307.5609165  +6.3224895     596.1703     802.1309     604.0286     77.88335     155.8911     312.0307      1.415     3.39     861.8725     55.02784     98.67865         5     0.750     0.445  19.51   0
        75    961.9368    911.8544 307.5034509  +6.3289938     1222.865     2277.174     2676.891     78.25571     156.0774     312.1549      2.131     5.17     857.4391     55.02784     225.4119        17     1.613     0.899  49.13   0
        76    594.3179    912.2271 307.6561297  +6.3165513     895.5443     1266.371     839.1962     78.13179     155.9532     312.1238      1.461     5.19      864.029     55.02784     153.8743        10     1.029     0.739  29.59   0
        77    515.4346    911.5835 307.6889149  +6.3141741     1114.517     1736.568     2162.384     77.88335     155.8911     312.0307      1.729     5.07     864.6227     55.02784     158.8576        11     1.388     0.642  37.24   0
        78    649.0105    909.2410 307.6335139  +6.3196145     2419.864     3826.597     4235.179     77.63412     155.9532     311.9064      1.678     4.56     863.2614     55.02784     335.3992        19     1.457     0.795  51.80   0
        79     45.5042    905.1058 307.8843081  +6.3010613     2834.636     4797.583     5298.787     78.25571     156.7589     312.1238      1.836     4.79     862.6945     55.02784     370.1627        28     1.699     0.945  59.19   0
        80    809.4956    905.6053 307.5669784  +6.3264821     797.2747     1320.886     1185.604     78.00768     155.8289     311.9686      1.716     5.16     861.6252     55.02784     114.1876         8     1.040     0.725  58.36   0
        81     62.9060    904.5939 307.8770983  +6.3018583     1863.682     2851.719     3320.056     77.88335     155.8289     311.9996      1.711     5.34     862.9312     55.02784     230.2314        19     1.582     0.783  54.91   0
        82    927.5485    904.8686 307.5179689  +6.3307288     605.0119      917.932     1204.238     78.13179     156.0153     312.1238      1.841     4.26     858.2975     55.02784     112.0278         6     1.227     0.498  48.97   0
        83    188.8691    903.9534 307.8248053  +6.3063603     2138.248     3476.084     3747.279     78.25571     156.0774     312.1859      1.693     3.94      864.139     55.02784     335.3286        23     1.485     0.936  44.63   0
        84    945.9549    901.8235 307.5104258  +6.3325997     536.1531     740.1547     1168.641     77.75884     156.1395     312.0617      1.619     4.90     857.7041     55.02784     87.80975         5     0.889     0.764  19.21   0
        85    222.5066    901.1678 307.8109291  +6.3086405     727.1537     1342.161      1561.28     78.37943     156.0153      312.248      2.306     6.40     864.5569     55.02784     97.57526        10     1.225     0.976 -82.38   0
        86    643.4584    898.2678 307.6361894  +6.3239567     7004.084     10847.22     11478.73     78.37943     156.0774     312.1859      1.698     4.45      862.858     55.02784     947.9828        35     1.617     0.959  53.04   0
        87    328.1743    900.4081 307.7670679  +6.3125037     916.8138     1016.409     833.8911     77.88335     155.9532     312.0307      1.362     4.56     865.3192     55.02784     152.7932         9     1.128     0.704  45.55   0
        88    780.9878    898.6610 307.5790528  +6.3283948     730.8146     1360.127     1810.947     77.75884     155.9532     311.8754      1.829     5.92     861.6642     55.02784     127.8494         9     1.622     0.609  44.35   0
        89      3.6093    896.3504 307.9020040  +6.3032631     1074.727     1655.562     1444.697     77.75884     151.3496      268.572      1.594     4.65     861.8412     55.02784     146.0955        14     1.060     0.987 -76.25  16
        90    881.2512    894.5104 307.5375468  +6.3334574     2723.767     4304.759     4773.391     78.25571     155.9532       312.31      1.680     4.41     859.9629     55.02784     378.3243        23     1.527     0.887  49.29   0
        91    432.9741    896.2344 307.7236817  +6.3177430     424.8173     625.8669     81.24307     77.63412     155.8911     311.9375      1.262     3.85     864.9986     55.02784     69.31305         5     0.840     0.507 -54.37   0
        92     16.5181    894.6354 307.8967010  +6.3044055     939.0427     1555.457     1525.969     78.25571     156.1395     312.1549      1.732     5.91     862.0156     55.02784     113.4899        12     1.251     0.784  53.95   0
        93    326.5085    891.3563 307.7680655  +6.3161829     16063.33     24975.42     26452.56     78.25571     156.0774       312.31      1.695     4.33     865.0472     55.02784     2312.993        45     1.663     0.993  53.24   0
        94     61.0942    892.1014 307.8782737  +6.3069520     1245.867     1930.185     2097.324     78.25571      156.697     312.0307      1.677     4.58     862.6479     55.02784     205.7798        13     1.271     0.683  48.97   0
        95    376.9376    891.1439 307.7471276  +6.3179634     613.9061     1049.374     1083.398     78.37943     156.1395     312.2169      1.718     5.71     864.8929     55.02784      85.5022         8     1.338     0.687  61.50   0
        96    197.6082    890.9120 307.8216168  +6.3120354     1301.847     2012.161     2275.666     77.88335     155.8289     311.9375      1.665     4.30     864.0859     55.02784     181.5895        14     1.324     0.696  55.59   0
        97    404.4448    882.6367 307.7359899  +6.3223968     998.2465     1360.833     1233.615     78.00768     156.1395     312.0928      1.569     5.43     864.6089     55.02784     151.8743        11     1.385     0.643  58.01   0
        98     89.9650    882.0621 307.8666230  +6.3120662     1599.437     2379.651     2625.456     78.13179     156.1395     312.1549      1.505     4.78     862.9745     55.02784     213.6766        16     1.451     0.725  50.72   0
        99    871.7659    876.2886 307.5420987  +6.3406598     1860.754     2818.337     2708.746     78.37943     156.0774     312.1859      1.643     4.33     859.5779     55.02784     284.0984        20     1.516     0.866  52.56   0
       100    657.7831    878.2213 307.6309144  +6.3327081     910.2315     1422.165     2182.376     78.00767     155.8911     312.1238      1.575     5.54     861.7742     55.02784     126.3353        12     1.400     0.618  35.84   0
       101    485.1997    879.3449 307.7025597  +6.3264635     590.0441     990.2328     1645.247     77.50922     155.7667     311.8754      1.639     3.88     864.2925     55.02784     101.4886         5     0.837     0.664 -73.74   0
       102    842.4492    875.9548 307.5542872  +6.3398182     1882.579     2969.468     3248.307     78.25571     156.0153     312.1859      1.582     4.17      860.083     55.02784     273.9248        17     1.533     0.718  47.51   0
       103    805.6282    875.0869 307.5696105  +6.3389461     2965.869       5188.9     5243.347     78.37943     155.8911     312.0617      1.764     4.36      860.475     55.02784     419.0457        31     1.660     1.050  46.28   0
       104     73.3401    875.5492 307.8737482  +6.3141941     2351.781     3933.202     4609.201     78.25571     156.0774     312.1859      1.826     4.77     862.5629     55.02784     324.4401        22     1.575     0.835  54.64   0
       105    541.6207    866.5947 307.6795549  +6.3336157     327973.7     512040.9     538327.4     77.88335     155.8911     311.9996      1.717     4.31     863.5211     55.02784     46878.51       178     1.820     1.249  52.41   0
       106    629.6066    869.8214 307.6429006  +6.3352311      1172.17     1650.824     1292.902     77.88335     155.9532     311.9996      1.590     4.90     861.7554     55.02784      194.679        12     1.434     0.585  54.20   0
       107    329.0609    867.5377 307.7678097  +6.3260969     12189.46     19174.42     19941.42     78.25571     156.1395     312.2169      1.685     4.24     864.3208     55.02784     1591.844        43     1.671     1.014  53.27   0
       108    647.4199    863.9501 307.6356993  +6.3382501     3448.244     5414.315     5812.685     77.75884     156.2016     312.0307      1.676     4.35     861.3145     55.02784     477.8704        24     1.540     0.890  52.06   0
       109    879.9503    862.7497 307.5391540  +6.3465198     5049.766     8342.326     8665.606     78.25571     156.0153     312.1238      1.701     4.36     858.8664     55.02784     692.1364        27     1.563     0.892  50.34   0
       110    719.2538    860.4559 307.6059796  +6.3420956      696.982     839.2768     439.9892     78.37943     156.1395     312.1859      1.424     4.27     860.8047     55.02784     111.9179         7     0.996     0.521  58.26   0
       111   1013.3527    856.9437 307.4839365  +6.3533677     4236.876     7213.245     7422.148     78.25571     156.1395      312.279      1.795     4.52     854.8119     55.02784      510.088        30     1.615     1.025  49.42  16
       112    622.1931    857.8151 307.6463842  +6.3399372     3227.004     5367.872     6102.888     77.88335     155.8911     312.0307      1.814     4.49     861.5074     55.02784       419.45        26     1.570     0.945  47.30   0
       113    164.9742    858.2869 307.8362740  +6.3244000     592.7384     910.3492     721.4918     78.37943     155.9532     312.1238      1.481     4.36     863.6581     55.02784     90.17303         6     1.151     0.470  67.55   0
       114    810.8090    857.1591 307.5680612  +6.3465170     1497.473      2361.61     2373.476     77.63412     155.9532     311.9064      1.613     5.34       859.91     55.02784     201.0938        13     1.318     0.701  53.46   0
       115    612.7971    857.1552 307.6503091  +6.3398949     1013.156     1616.043     1500.963     77.63412     155.7045     311.8443      1.645     5.73     861.6007     55.02784     143.8796        11     1.280     0.723  60.59   0
       116    937.9475    856.1951 307.5152834  +6.3511608     708.4434     1027.333     1458.193     77.63412     155.8911     311.8132      1.418     5.68     857.1107     55.02784     105.6754        10     1.399     0.649  43.17   0
       117    385.8168    869.2034 307.7441802  +6.3273147     7606.286     12050.61     12892.36     77.88335     155.7667     312.0307      1.679     4.36     864.1118     55.02784     1059.845        37     1.598     1.020  55.34   0
       118    615.3616    852.4486 307.6494024  +6.3419229     1975.678     3489.253     3412.598     78.13179     156.2016     312.0617      1.885     4.79     861.5015     55.02784     284.1894        21     1.675     0.819  55.29   1
       119    898.8013    850.6470 307.5317301  +6.3521434     3005.485     4846.072     5218.835     77.63412     155.8289     311.7511      1.763     4.54     858.0882     55.02784     356.7556        25     1.623     0.876  52.92   0
       120    309.1921    851.5225 307.7766030  +6.3320380     1094.553     1758.231     1535.276     77.88335     155.6422     311.9996      1.722     4.79     864.2168     55.02784      165.015        10     1.183     0.644  49.40   0
       121    356.9235    846.4523 307.7569491  +6.3357328     2517.858     4226.061     4675.105     78.37943     156.2016     312.1859      1.799     4.96     863.7826     55.02784     317.7922        21     1.574     0.826  46.10   0
       122    326.0125    838.9995 307.7700397  +6.3377702     550.7762     836.9053     685.7208     77.88335     155.8289     311.9996      1.756     4.50     863.8827     55.02784     80.62683         6     1.023     0.564  46.45   0
       123    493.3278    836.2040 307.7006383  +6.3445374     3041.333     4687.162     4619.908     77.75884     155.7045     312.0307      1.655     4.17     862.8949     55.02784     449.1444        24     1.454     0.987  49.31   0
       124    837.6374    835.2586 307.5576533  +6.3564505     984.3441     1473.388     1489.999     78.25571     156.2016     312.2169      1.681     5.19     859.0284     55.02784     163.3696        13     1.396     0.722  52.51   0
       125    558.0554    833.6165 307.6738399  +6.3477744     701.8642     1150.695     1090.086     77.75884     156.0774     311.9375      1.794     5.33     862.2715     55.02784     135.6007         9     1.513     0.530  40.86   0
       126    540.0314    832.4478 307.6813658  +6.3476527     5925.718     9064.868     9934.306     78.00767     156.1395     312.0928      1.621     4.14     862.4829     55.02784     817.3902        28     1.536     0.881  52.80   0
       127    546.9796    831.6913 307.6785053  +6.3481977     1139.748     1853.674     2220.281     78.13179     155.9532     312.0307      1.561     4.20      862.417     55.02784      222.006        14     1.431     0.699  48.42   0
       128    457.6408    831.3224 307.7156259  +6.3453552     1438.617     2320.447     1775.995     78.13179     156.1395     312.2169      1.700     5.57     863.1207     55.02784     188.9141        18     1.533     0.904  54.54   0
       129    252.1113    832.7115 307.8009471  +6.3378824     624.2702     977.4374     745.0096     78.00767     156.6352      312.279      1.558     3.54     863.7086     55.02784     102.0113         5     1.042     0.346  45.95   0
       130    875.6235    830.5822 307.5420317  +6.3596491     1181.304     1944.354     1931.155     77.88335     156.0774     312.0928      1.764     5.13     858.1473     55.02784     198.1315        12     1.516     0.524  51.47   0
       131     99.5215    830.5769 307.8643966  +6.3336318     1319.812     2008.194     1505.552     77.88335     155.9532     312.1549      1.610     4.59     862.2182     55.02784     175.2181        16     1.408     0.783  51.06   0
       132    675.4395    829.4915 307.6252208  +6.3534069     818.4352     1401.986      1602.06     78.37943     156.0774      312.248      1.631     5.20     860.3065     55.02784     108.4484        10     1.352     0.566  51.32   0
       133    510.7350    826.2907 307.6937421  +6.3492115     19616.03     30511.44     31850.62     78.13179     156.3256     312.2169      1.682     4.30     862.4577     55.02784     2793.444        43     1.627     0.969  52.00   0
       134    924.3577    824.5867 307.5219896  +6.3637503     3618.923     5738.204     5785.108     77.63413     155.9532     311.9375      1.707     4.62     857.1249     55.02784     481.0995        27     1.636     0.893  54.59   0
       135    157.7119    825.9697 307.8403836  +6.3374906     684.9974     903.7679     646.2607     78.37943     155.9532     312.1238      1.351     4.33     863.3011     55.02784     108.4913         8     0.985     0.602  24.43   0
       136    396.6282    822.7120 307.7412588  +6.3468614     642.7855     1016.023     1328.105     78.37943     155.8911     312.0617      1.821     5.78     863.6086     55.02784     77.58362         8     1.141     0.823  43.53   0
       137     20.9560    816.6434 307.8974997  +6.3367360     1362.591     2240.583     2537.074     78.25571     156.1395     312.0617      1.722     5.14     860.6754     55.02784     164.1466        14     1.436     0.664  63.06   0
       138    565.5227    815.7586 307.6713399  +6.3553934     500.3605     998.1448     929.4938     78.13179     156.1395      312.248      2.231     5.20     861.6639     55.02784     82.24683         7     1.619     0.472  83.93   0
       139    303.3585    814.9438 307.7802617  +6.3469356     3214.136     5094.859     5201.957     78.13179     156.0774     312.2169      1.649     4.30     863.5886     55.02784     457.6156        24     1.493     0.878  49.47   0
       140    768.8990    810.9139 307.5870245  +6.3641989     53528.51     84176.16     88115.74     78.25571     156.5733      312.248      1.631     4.33     859.6964     55.02784     7426.065        72     1.705     1.090  52.13   0
       141      3.4132    813.0600 307.9049073  +6.3376237     2043.547     3316.146     3429.827     77.63412     149.7405      265.998      1.749     4.92     860.3519     55.02784     319.9645        21     1.529     0.837  51.40  24
       142    707.6245    813.1243 307.6124026  +6.3612376     670.9957     1062.044     1314.542     77.88335     156.0153     312.1549      1.518     3.76     859.9657     55.02784       103.82         6     0.738     0.644  29.71   0
       143    225.6673    787.1599 307.8134706  +6.3557895     758925.7      1793350      1994169     78.13179     156.0774      312.279      2.345    10.02      862.748     55.02784     63456.55       666     2.795     2.174  72.42   4
       144    412.3303    809.4454 307.7351845  +6.3528625     950.5485     1231.938     1073.982     78.25571     156.0774     312.1859      1.548     6.35     863.5145     55.02784     111.4991        13     1.296     0.875  66.52   0
       145    894.1769    806.2006 307.5351438  +6.3703296     8234.517     13291.43     14072.52     77.88335     155.8289     311.9686      1.691     4.34     857.2658     55.02784     1124.075        38     1.674     0.960  49.27   0
       146    697.1048    805.5162 307.6170283  +6.3640250     21147.58     34058.25     36997.08     78.13179     156.5114      312.279      1.742     4.42     859.8387     55.02784     2894.073        50     1.776     1.033  53.04   3
       147    690.8196    801.9399 307.6197595  +6.3652905     85640.58     136074.7     144104.8     77.88335     156.0153     312.0617      1.672     4.30     859.7629     55.02784     12308.46        78     1.730     1.081  53.04   3
       148    335.7021    802.7747 307.7672384  +6.3530431     20325.26     32223.11     33697.77     78.37943     155.8911     312.0928      1.695     4.25     863.3571     55.02784      2810.93        53     1.668     1.090  49.27   0
       149    624.7248    802.4156 307.6471981  +6.3628820     756.7353     1098.348     667.0838     77.75884     155.8911     312.0617      1.311     5.89     860.5811     55.02784     114.0042        11     1.588     0.614  59.80   0
       150    384.9833    803.0317 307.7467600  +6.3545913     1377.331     2236.665     2040.924     77.88335     155.8911     312.0617      1.550     4.57     863.4135     55.02784     221.4014        15     1.453     0.719  53.46   0
       151    397.5816    800.6155 307.7416086  +6.3560111     21911.32     34426.34      35971.3     78.00768     155.8289     312.0928      1.723     4.44     863.4215     55.02784     3040.004        54     1.694     1.044  51.40   0
       152    934.7731    799.5088 307.5185050  +6.3744463     2105.534     3435.302     3150.543     78.37943     155.8911     312.0617      1.740     4.45     856.5194     55.02784     306.5661        23     1.525     0.944  59.68   0
       153    891.0530    797.5242 307.5367328  +6.3738056     6611.197     10471.79     11188.82     78.25571     156.1395     312.2169      1.712     4.36     857.1489     55.02784     863.9673        35     1.692     0.916  50.38   0
       154    863.5952    798.3291 307.5481117  +6.3725564     507.3687     673.0745     726.4952     77.88335     155.7667     312.0617      1.269     3.51     857.4857     55.02784     108.8992         5     1.021     0.349  68.90   0
       155    631.6810    796.6246 307.6445037  +6.3655044     6438.805     9897.069     9844.154     78.00768     155.8911     312.1549      1.659     4.32     860.3036     55.02784     931.2418        30     1.566     0.916  52.04   0
       156    145.3973    794.0234 307.8465793  +6.3502582     852.6019     1303.079     1298.748     77.88335     155.8289     311.9996      1.747     6.57     862.5033     55.02784     114.1388        13     1.612     0.752  68.22   0
       157    420.2851    794.2657 307.7323925  +6.3593931     1530.711     2368.547     2210.745     78.37943     156.3875      312.248      1.600     5.38     863.0884     55.02784     230.7317        16     1.559     0.705  51.42   0
       158   1014.7041    789.5727 307.4856352  +6.3812133     920.5329     1334.204     1498.596     78.37943     155.8911     312.1238      1.699     4.45     853.4639     55.02784      141.915         8     1.082     0.521  57.00   0
       159    859.8767    788.5567 307.5499846  +6.3764647     616.2206     1410.761     1488.284     78.13179     156.1395     312.2169      2.112     5.29     857.4791     55.02784     81.03979         9     1.729     0.457  45.73   0
       160    666.6905    786.7661 307.6302931  +6.3707443     2467.744     3950.799     3707.631     78.37943     156.0153     312.1859      1.708     4.81     859.4534     55.02784      342.046        22     1.475     0.942  51.26   0
       161    584.6942    788.4965 307.6642950  +6.3672850     877.3114      1376.92     1457.579     78.25571      156.697     312.0928      1.534     5.55     860.5127     55.02784     156.4114        11     1.415     0.613  46.99   0
       162    111.0125    787.1776 307.8610929  +6.3519261     1042.914     1705.464     1993.019     78.00767     155.9532     312.0928      1.677     5.40     861.6021     55.02784     155.9667        15     1.522     0.717  70.70   0
       163    136.0415    787.2652 307.8506939  +6.3527321     942.4959     1684.569     1592.748     78.25571     156.0774      312.279      1.919     5.83     862.0974     55.02784     131.5529        11     1.198     0.866  52.48   0
       164    400.5352    783.2925 307.7409665  +6.3632583     53042.26     82747.21      86613.3     78.25571     156.3256     312.2169      1.702     4.33     862.6644     55.02784     7494.467        71     1.678     1.131  50.24   0
       165    943.0513    784.7634 307.5155613  +6.3808072     790.2214     1203.176     978.0599     78.13179     156.1395     312.1549      1.844     4.91     855.9345     55.02784     114.2121         8     1.130     0.603  63.78   0
       166    518.2508    782.3610 307.6921013  +6.3675905     6977.433     10915.85     11479.98     78.00768     156.1395     312.1549      1.662     4.18     860.9205     55.02784     1002.212        33     1.558     0.975  55.68   0
       167    435.0452    780.9590 307.7267105  +6.3653790     4374.978     6626.637      7734.89     78.13179     156.1395     312.0307      1.608     4.11     862.2716     55.02784     566.6395        27     1.543     0.870  50.00   2
       168    431.6526    774.3575 307.7283425  +6.3679892     2270.688     3575.369      3256.81     78.25571     156.2016     312.2169      1.716     4.66     862.0691     55.02784     284.4216        21     1.567     0.836  50.53   3
       169    763.5148    778.9919 307.5903346  +6.3771913     11137.19     17811.56     18699.16     77.88335     155.8289     312.0307      1.679     4.38      858.924     55.02784     1535.038        43     1.620     1.027  48.71   0
       170    657.5538    776.3711 307.6344384  +6.3747279     343.9878     628.7047      682.054     77.75884     156.2016     312.0617      1.988     5.43     859.2515     55.02784     77.73578         5     1.243     0.670  44.79   0
       171    785.0680    773.1909 307.5815765  +6.3803056      1181.06     1797.139     1897.948     77.75884     155.9532     312.0928      1.752     6.00     858.5527     55.02784     174.1901        15     1.445     0.734  47.85   0
       172    121.2438    770.8725 307.8573951  +6.3589982      11102.5     17844.93     19378.76     78.13179     156.2016     312.2169      1.691     4.26     861.4242     55.02784     1445.559        41     1.615     1.060  52.39   1
       173    129.2745    771.1561 307.8540498  +6.3591514     2814.206     5046.801     5934.145     78.13179     156.2016     312.2169      1.876     5.05     861.5345     55.02784     419.0841        26     1.677     0.872  48.16   0
       174    908.9700    767.5494 307.5302968  +6.3867728     6129.298     9564.352     10087.46     77.88335     156.2636     312.0928      1.689     4.24     856.3982     55.02784     817.2338        30     1.600     0.888  53.79   0
       175    113.3251    768.2822 307.8607719  +6.3598006     2883.614     4755.275     5395.239     78.50296     156.4495      312.248      1.810     4.66     861.2524     55.02784     389.5396        28     1.730     0.962  49.07   3
       176    113.5350    761.7457 307.8609059  +6.3625048     1981.599     3163.787     3507.146     78.25571     156.0774     312.1549      1.697     4.84     861.1398     55.02784     261.6171        24     1.650     0.904  51.06   3
       177    958.2062    767.4882 307.5098458  +6.3884416     1529.164     2199.327     2596.365     77.75884     155.8289     311.9686      1.557     4.70     855.0844     55.02784     203.8656        15     1.350     0.733  45.20   0
       178    664.4445    765.1576 307.6319535  +6.3795857     1677.339     2667.859     2657.109     78.13179     156.1395     312.0307      1.672     4.91     858.8647     55.02784     238.6709        18     1.561     0.757  51.72   0
       179    551.5000    764.2970 307.6788989  +6.3761586     2230.702     3364.095     3766.817     78.25571     156.6352     312.0307      1.629     4.16     859.5968     55.02784     345.8986        20     1.528     0.787  59.06   0
       180    399.4178    763.7891 307.7420889  +6.3712686      1221.04     1892.776     1498.803     77.88335     155.8289     312.0928      1.623     3.27     861.8572     55.02784     174.3869        14     1.097     0.821  33.27   0
       181    932.7079    759.1686 307.5207173  +6.3910236     2922.687     4614.796     4741.343     78.37943     155.9532     312.2169      1.702     4.48     855.7547     55.02784     397.2307        24     1.641     0.826  49.10   0
       182    903.2526    759.6218 307.5329381  +6.3898532     3010.231     4725.261     4900.212     77.75884     156.1395     311.9996      1.697     4.24     856.3597     55.02784     397.6924        26     1.587     0.889  46.69   0
       183    963.7981    759.1249 307.5078036  +6.3920792     1724.242     2697.693     2849.624     77.75884       155.58     312.0617      1.687     4.28     854.7457     55.02784     239.6179        18     1.396     0.780  51.53   0
       184    655.5270    758.9082 307.6358682  +6.3818660     1473.021     2292.462     2791.121     78.13179     156.2636     312.2169      1.767     4.98     858.7588     55.02784     224.2557        15     1.531     0.676  49.58   0
       185    802.8201    757.0541 307.5747448  +6.3875577     1066.059     1438.233     1352.523     77.75884     156.1395     311.9996      1.408     4.94     857.8375     55.02784     163.3408        11     1.344     0.647  44.33   0
       186    878.1527    754.5247 307.5435361  +6.3911183     767.1901     1269.285      1714.21     78.13179     156.2016     312.1859      1.831     4.33     856.7295     55.02784      106.348         7     1.235     0.431  64.77   0
       187    228.2937    753.9275 307.8135032  +6.3695904     1869.612     3029.558     3920.061     78.13179     156.2636     312.2169      1.804     4.70     861.4965     55.02784     255.2643        20     1.425     0.896  44.33   0
       188    665.0279    750.8807 307.6321918  +6.3854965     619.3363     1095.348     1474.807     78.13179     155.9532     312.1549      1.434     4.67     858.4565     55.02784     89.52765         8     1.340     0.462  55.70   0
       189    920.8696    749.1678 307.5259709  +6.3947552     929.2685     1532.041      1448.23     78.13179     156.1395     312.2169      1.603     5.66     855.8291     55.02784     146.8023        10     1.289     0.700  43.82   0
       190    248.4806    749.0307 307.8052836  +6.3722895     738.4392     1113.199     1089.215     78.13179     156.0774     312.1549      1.306     5.01     861.3098     55.02784     130.5079         9     1.338     0.530  55.05   0
       191    143.7628    748.8726 307.8487860  +6.3688336      697.077     1044.695      901.576     78.13179     156.1395      312.248      1.659     3.98     861.0342     55.02784     136.5609         6     1.251     0.481  67.66   0
       192    894.7115    747.9755 307.5368774  +6.3943738     1174.688     1621.175     1896.468     78.37943     155.9532     312.0617      1.531     5.36     856.3093     55.02784     166.9802        13     1.407     0.626  51.77   0
       193    947.5958    746.7226 307.5149506  +6.3966563     2345.293     3775.083     4021.556     77.88335     155.6422     311.9996      1.687     4.54     855.0393     55.02784     319.6278        21     1.497     0.857  46.81   0
       194    667.1218    746.2026 307.6314795  +6.3874969     862.5914     1468.312     1737.035     77.63412     155.6422     311.9686      1.467     5.52     858.3031     55.02784     183.8879        10     1.559     0.551  45.35   0
       195   1021.5235    740.9760 307.4844326  +6.4014940     6891.066     11046.44      11479.3     77.88335     150.1282     266.8708      1.694     4.37     852.6509     55.02784     911.1667        33     1.614     0.970  51.56  24
       196    458.5725    741.5717 307.7182665  +6.3824207     552.0684      517.525      464.494     77.75884     155.9532     312.0307      1.273     3.91     860.8259     55.02784     149.1544         6     1.091     0.633  45.36   0
       197    388.5605    741.7438 307.7473430  +6.3800008     620.6644     892.0789     1107.401     78.25571     156.2016     312.1549      1.411     3.50     860.9243     55.02784     96.38049         5     0.778     0.454  71.49   0
       198    989.4274    740.1985 307.4977920  +6.4007443     1789.786     2702.092     2810.988     77.75884     155.8911     311.9686      1.606     4.37     853.6505     55.02784     240.3276        17     1.395     0.770  47.45   0
       199    615.5994    740.0805 307.6530882  +6.3882983     672.1716     1228.114     1699.383     77.50922     155.5177     311.9375      1.902     4.31     858.3524     55.02784     97.69183         8     1.518     0.349  47.03   0
       200    790.5569    738.6819 307.5804567  +6.3947290     1151.509     1680.779     1664.604     78.25571     156.1395     312.1549      1.526     4.53     857.3855     55.02784     191.1267        12     1.426     0.625  42.31   0
       201    876.9490    736.1993 307.5446517  +6.3986400     1578.228     2303.327     2659.967     77.63412     155.7045     311.7511      1.584     5.19     856.4832     55.02784     204.1765        17     1.483     0.771  53.38   0
       202    851.4905    731.0788 307.5553996  +6.3999026     864.5595     1413.141     1092.514     78.00767     156.3875      312.248      1.705     6.03     856.7029     55.02784     121.7047        12     1.369     0.747  36.01   0
       203    834.0004    727.5546 307.5627838  +6.4007725     1488.126     2305.018     1787.397     77.50922     155.8911     311.7511      1.644     5.39     856.7524     55.02784     222.9318        16     1.431     0.788  57.19   0
       204     97.1640    725.4338 307.8689351  +6.3769369     895.4149      1910.89     2087.525     78.00767     155.8911     311.9375      2.326     7.74     860.3188     55.02784     128.9341        18     1.900     0.882  65.21   0
       205     32.9903    726.2516 307.8955634  +6.3744388     2408.836     3665.819     3799.601     77.63412     156.0153     311.9375      1.579     4.29     860.4272     55.02784     347.0257        22     1.458     0.860  55.37   0
       206    688.5217    718.1985 307.6235325  +6.3997687     586.1335     902.5418     1128.844     77.50922       155.58     311.9686      1.667     4.30     857.5861     55.02784     106.9524         6     1.084     0.486  35.18   0
       207    645.5864    714.9055 307.6414792  +6.3996905     6188.977     9631.463     9847.512     78.00767     155.8911     312.0307      1.650     4.49     857.6766     55.02784     874.1316        29     1.595     0.883  50.94   0
       208    592.4457    714.2650 307.6635760  +6.3981754     1423.023     1940.707     2024.006     78.25571     156.0774     312.1859      1.569     4.75     857.8672     55.02784     206.0493        15     1.396     0.705  50.49   0
       209    514.1136    714.8506 307.6960960  +6.3953090     738.1516     1014.054     786.3262     78.25571     156.0153      312.248      1.547     3.90     858.6946     55.02784      141.185         6     0.939     0.463  33.35   0
       210    108.6103    710.7368 307.8646781  +6.3833865     3613.678     5904.605     6358.953     77.75884     155.9532     311.9996      1.772     4.49     859.9968     55.02784     485.3582        28     1.729     0.869  49.08   0
       211    619.4014    710.5721 307.6525027  +6.4006020     2012.854     2985.104     3289.773     77.75884     155.8911     311.9686      1.643     4.20     857.7561     55.02784     271.5026        20     1.437     0.859  50.52   0
       212    295.2681    710.9394 307.7871362  +6.3895792     869.1223     1393.222     1521.952     78.37943     156.0774     312.1859      1.779     5.96     860.0101     55.02784     108.0266        11     1.301     0.767  58.32   0
       213    982.7173    710.1525 307.5015879  +6.4129188     2473.658     4022.668     4240.884     78.25571     156.1395     312.2169      1.719     3.87     853.5279     55.02784     352.8517        21     1.490     0.807  43.68   0
       214    231.1550    710.4672 307.8137841  +6.3876195     801.8344     1250.713     1595.877     78.25571     156.0774     312.2169      1.712     4.51     859.7584     55.02784     141.9035         8     1.057     0.613  56.61   0
       215    762.4318    707.0214 307.5932051  +6.4068531     19686.97     30955.69     32055.12     77.75884     155.9532     312.0307      1.662     4.20     857.0005     55.02784     2802.086        50     1.667     1.019  48.41   0
       216    461.5067    707.1066 307.7182103  +6.3967406       1387.3     1944.346     1954.458     78.25571     156.6352     312.1549      1.578     4.27     859.3451     55.02784     202.0935        17     1.420     0.771  62.51   0
       217    444.5630    709.0224 307.7251841  +6.3953818     653.3244     825.2721     353.5233     77.88335     155.8911     311.9686      1.507     4.77     859.6019     55.02784     93.67035         5     1.093     0.589  13.82   0
       218    892.4888    706.6441 307.5391891  +6.4113548     3739.288     6011.811     6403.738     78.25571     156.0153     312.2169      1.752     4.50     855.3592     55.02784     517.5015        27     1.579     0.912  56.19   0
       219    490.1713    707.0962 307.7063032  +6.3977061     972.3881     1628.316     1441.743     78.37943     155.8911     312.1859      1.677     5.04     858.9492     55.02784     135.4491        12     1.229     0.796  61.02   0
       220    307.0181    706.3445 307.7824106  +6.3918698     671.8527     910.5308     978.1006     77.75884     156.0774     311.9375      1.561     5.36     859.8376     55.02784     99.69696         8     1.179     0.689  70.92   0
       221    264.0120    706.6000 307.8002664  +6.3903196     555.8858     796.7645     761.8315     77.75884     155.8289     311.9996      1.525     5.45     859.7807     55.02784      73.3504         7     1.353     0.620  44.51   0
       222    235.9334    700.6230 307.8121321  +6.3918421     6044.035     9578.179     10197.14     77.88335     156.1395     312.1238      1.687     4.16     859.4203     55.02784     810.4911        31     1.576     0.981  49.17   0
       223    642.9786    699.7902 307.6430715  +6.4058404     6782.315      10861.6     11844.67     77.88335     155.8911     311.9996      1.693     4.26     857.3906     55.02784     881.8553        32     1.579     0.960  51.57   0
       224    625.5327    701.1887 307.6502717  +6.4046792     788.0289     1380.259     1764.484     77.75884     156.0153     312.0307      1.853     4.43     857.5276     55.02784     117.3841         7     1.218     0.459  49.69   0
       225    338.5075    699.4580 307.7695626  +6.3957690     718.7875     826.4699     995.4698     78.13179     156.0774       312.31      1.357     4.68     859.5897     55.02784     109.5021         7     1.003     0.629  46.57   0
       226    902.8636    692.4974 307.5353543  +6.4175388     1230.766     1894.003     1781.747     78.13179     156.2636     312.2169      1.612     5.75     854.6787     55.02784       166.61        14     1.387     0.731  51.12   0
       227    714.6760    688.2010 307.6136771  +6.4130220     3502.855     5780.642     5707.888     77.50922       155.58     312.0307      1.755     4.43     856.8552     55.02784     498.2811        27     1.677     0.878  58.27   0
       228    670.0318    688.8349 307.6322020  +6.4112665     1021.949      1589.41     1475.764     77.88335     155.8911     311.9375      1.505     4.81     856.9537     55.02784     144.9156        13     1.460     0.638  42.02   0
       229    981.1114    684.8483 307.5031043  +6.4233069     8740.183     13529.61     14434.85     78.25571     156.0153      312.279      1.619     4.06     853.3078     55.02784     1177.147        36     1.576     1.027  44.60   0
       230      1.4182    685.3213 307.9100645  +6.3902640     1134.505     1490.296     1707.638     68.90576     125.2896     236.4123      1.204     3.69     859.9804     55.02784     224.6199        11     1.248     0.590  88.08  24
       231    919.4427    685.1495 307.5287136  +6.4211244     2393.079     3567.679     3724.498     78.37943     156.1395     312.1859      1.574     4.91     854.0909     55.02784     358.9963        17     1.441     0.718  51.64   0
       232     58.3761    679.5109 307.8866019  +6.3945799     24820.67     39573.69     41449.48     78.25571     155.9532     312.0617      1.740     4.27     859.5289     55.02784     3296.803        52     1.673     1.084  53.96   0
       233    519.6207    680.5420 307.6949651  +6.4096506     2033.907     2991.218     2929.623     77.88335     156.0153     311.9996      1.597     4.38     857.5001     55.02784     288.5046        17     1.441     0.757  54.15   0
       234    257.1513    680.7368 307.8039906  +6.4007609     450.8455     701.3167     1314.122     78.13179     156.0774      312.248      1.382     3.48     858.7961     55.02784     77.43597         5     1.006     0.348  45.31   0
       235    488.5655    678.0034 307.7079515  +6.4096570     1283.412     1861.717     1987.491     77.38409     155.9532     311.9375      1.620     4.28     857.6047     55.02784     181.2837        13     1.196     0.793  57.90   0
       236    909.6159    676.9404 307.5330717  +6.4241838     957.5324     1377.671     1454.121     77.75884     156.0774     311.9375      1.505     4.47     854.0758     55.02784     163.2094        11     1.324     0.581  42.52   0
       237    529.1621    674.3451 307.6912103  +6.4125275     952.1556     1543.339     1764.584     78.25571     156.2016     312.2169      1.586     5.40     857.2487     55.02784     125.2404        11     1.434     0.574  58.30   0
       238    704.3650    672.0052 307.6185056  +6.4193601     3306.819     5215.182     5455.434     77.50922     155.9532     311.9686      1.615     4.22     856.4806     55.02784     499.1282        22     1.542     0.839  48.71   0
       239    726.4985    670.2177 307.6093709  +6.4208381     4191.926     6227.654     6587.953     78.25571     155.9532     311.9375      1.633     4.25     856.3933     55.02784     622.9734        24     1.540     0.844  53.57   0
       240    557.9349    668.0935 307.6794683  +6.4160714     3138.133     4944.817     5266.179     78.13179     156.3256     312.2169      1.679     4.09     856.9762     55.02784     485.0189        23     1.481     0.847  48.65   0
       241    394.3710    668.6006 307.7473986  +6.4103771     1337.712     1936.637      2378.78     77.63413     155.9532     311.9996      1.586     4.95     858.6483     55.02784     166.3253        13     1.274     0.754  42.19   0
       242    218.5804    667.6577 307.8204552  +6.4048612     1652.689     2706.917     3214.934     77.88335     156.0153     311.9996      1.886     4.62     858.2377     55.02784     210.4022        20     1.491     0.867  46.94   0
       243    999.2790    666.3410 307.4961779  +6.4315500     4867.678     7903.068     7739.756     78.37943     156.1395     312.1238      1.716     4.17     852.6682     55.02784     701.7655        31     1.576     0.967  47.75   0
       244    964.6866    665.2789 307.5105847  +6.4308341     7947.011     12386.87     12754.93     78.13179     156.4495       312.31      1.662     4.16     852.9513     55.02784     1142.636        36     1.663     0.940  49.50   0
       245    302.0806    666.6907 307.7858015  +6.4080663     1382.709     2185.241     2374.831     78.00767     156.3875     312.2169      1.603     4.12     858.6292     55.02784       214.37        15     1.394     0.667  41.95   0
       246    519.1101    666.1091 307.6956638  +6.4155890     561.2473     602.7473     279.7768     78.25571     156.6352      312.279      1.368     4.35      857.067     55.02784     75.78986         6     1.134     0.476  62.05   0
       247   1013.9142    664.3609 307.4901642  +6.4328553      758.834     1181.023     804.8059     78.25571     156.1395     312.1859      1.694     5.60     852.3923     55.02784     116.4961         9     1.173     0.753  84.51   0
       248    684.6111    664.1346 307.6269769  +6.4219468     1136.697     1639.344     1107.225     77.75884     155.9532     312.0617      1.502     5.16      856.209     55.02784     146.4808        13     1.137     0.943  62.15   0
       249    410.0359    659.5024 307.7411982  +6.4146570      2840.07     4784.956      5275.52     78.25571     156.0153     312.3411      1.786     4.89     858.3073     55.02784      374.547        24     1.615     0.951  61.85   0
       250     76.3931    661.5252 307.8797270  +6.4026078     869.8962     1502.775     2002.629     77.88335     155.6422     312.0617      1.911     5.45     859.1093     55.02784     137.6393        10     1.255     0.666  53.64   0
       251    123.1471    658.4352 307.8604102  +6.4054566     23276.46     36741.59     38501.98     78.13179     156.1395     312.1859      1.700     4.23     858.8504     55.02784     3055.844        55     1.655     1.097  51.11   0
       252    791.8544    659.2558 307.5825885  +6.4275470     1187.544     1761.096     1558.445     78.50296     156.1395     312.1859      1.495     4.65     855.6617     55.02784     213.4141        15     1.480     0.724  36.95   0
       253    342.4459    653.3691 307.7694833  +6.4149189      674.978     1445.501     1180.319     77.88335     156.2016     312.0617      2.103     6.99     858.0828     55.02784     79.48016        11     1.359     1.008  18.81   0
       254    959.6614    648.1802 307.5132464  +6.4377221     6817.093     11313.46     12162.89     77.88335     156.1395     312.0928      1.784     4.43      852.357     55.02784     902.7139        39     1.778     0.970  47.48   0
       255      4.4183    647.4540 307.9101015  +6.4059898     1047.735     1558.085     1852.488     77.75884     156.1395     278.9081      1.775     5.98     859.6812     55.02784     154.3902        13     1.267     0.795  63.42  16
       256   1014.9692    643.3593 307.4904307  +6.4415567     88564.33     140848.5     148581.5     77.75884     155.9532     312.0617      1.684     4.20     850.9727     55.02784     12421.52        94     1.760     1.136  50.52  16
       257    553.1879    643.3687 307.6822737  +6.4261146     46944.43     73452.83     77322.59     77.75884     155.8911     312.0928      1.679     4.10     856.0687     55.02784      6862.43        71     1.691     1.097  51.18   0
       258    918.2599    645.4194 307.5305393  +6.4374794     659.8946     998.8707     858.9114     77.88335     156.0153     312.0617      1.727     6.27     853.1555     55.02784     94.66846         9     1.274     0.866  69.46   0
       259    196.6824    644.8082 307.8303246  +6.4135532     632.0977     786.1849     1241.168     77.88335     155.7667     312.0307      1.204     4.30     858.2375     55.02784     104.3445         6     1.017     0.519  58.71   0
       260    512.1276    643.2104 307.6993367  +6.4248038     812.9203     1347.603     1523.494     77.75884     155.7667     312.0307      1.783     6.04      856.518     55.02784     109.4867        11     1.370     0.749  46.96   0
       261    778.9812    643.3267 307.5884723  +6.4336896      535.183     727.8578     524.7795     77.88335     156.0774     312.0928      1.308     2.73     855.4561     55.02784     126.2131         5     0.792     0.493  57.89   0
       262    483.3893    640.4797 307.7113675  +6.4249670     573.3947     1055.439     1010.767     77.88335     155.8911     312.0307      1.827     5.39     856.8124     55.02784      97.9411         7     1.329     0.617  56.45   0
       263    160.9241    639.8079 307.8453480  +6.4144137     2547.538     4000.874     3785.117     77.88335     155.6422     311.9996      1.658     4.54     858.5374     55.02784      308.887        23     1.433     0.990  52.63   0
       264    964.1605    639.1687 307.5116798  +6.4415909     549.6967     829.3002     492.9197     77.88335     155.9532     312.0307      1.722     4.37     851.9204     55.02784     76.39789         5     0.780     0.696 -43.42   0
       265     53.4080    634.2122 307.8902001  +6.4131038     1326.914     2140.559     2158.042     77.88335     155.9532     312.1238      1.820     4.90     859.0125     55.02784     175.8457        15     1.447     0.739  49.90   0
       266    450.4176    627.1529 307.7255145  +6.4293603     60474.68     95091.12     99791.73     77.75884     156.0774     311.9686      1.690     4.18     856.8303     55.02784     8345.467        75     1.689     1.131  49.32   0
       267     83.7291    627.3530 307.8778369  +6.4169550     503.4025     830.8522     516.2419     78.25571     156.0774     312.1859      1.754     5.27       858.53     55.02784     80.99969         5     1.402     0.560  37.40   0
       268    636.5408    624.1047 307.6482950  +6.4368557     754.1295     1295.274     1091.043     78.13179     156.1395      312.279      1.635     3.61     854.6899     55.02784     127.8881         6     1.089     0.345  41.66   0
       269    124.7974    622.0399 307.8609567  +6.4205297     1433.419     2171.374     1702.994     77.50922     155.8911     311.9375      1.564     5.07      858.259     55.02784     193.7472        16     1.389     0.761  47.74   0
       270    919.5906    620.0159 307.5308398  +6.4480065     686.3737     1090.083     513.1325     78.00767     155.8911     312.0928      1.549     5.71     852.5673     55.02784     120.0543         8     1.286     0.714  52.87   0
       271    404.3398    619.9391 307.7449001  +6.4307910     936.8975     1463.882     1069.382     78.25571     156.1395     312.2169      1.609     5.65      856.792     55.02784     144.6122        11     1.406     0.640  41.41   0
       272    596.2390    618.8173 307.6652162  +6.4376878     780.7487     1119.481     1319.781     77.88335     156.0153     311.9686      1.524     4.08     854.6647     55.02784     114.9196         8     0.939     0.720  75.12   0
       273    304.6848    618.1461 307.7863601  +6.4281847     581.4096     910.3727      717.614     78.25571     156.1395     312.3411      1.362     3.36     857.2048     55.02784     109.1113         5     1.357     0.241  72.71   0
       274    295.8434    616.6110 307.7900849  +6.4285212     1952.825     3271.902     3522.317     77.75884     155.9532     311.9064      1.793     3.87     857.2691     55.02784     277.5923        21     1.333     0.997  53.01   0
       275    448.1118    615.0884 307.7268795  +6.4342612     840.8734     1265.564     1605.051     78.00767     156.6352      312.279      1.435     4.08      856.511     55.02784     151.7667         7     0.973     0.488  47.08   0
       276    722.5110    610.7073 307.6130300  +6.4452612     5310.785     8019.319     7989.042     78.25571     156.5733      312.248      1.632     4.17      854.686     55.02784     740.0065        26     1.520     0.858  50.72   0
       277    776.0173    605.9923 307.5909594  +6.4489963     13329.23      20613.4     21479.65     77.88335     155.8911     312.0307      1.613     4.14      854.712     55.02784     1890.919        38     1.622     0.937  50.46   0
       278    993.0958    606.4009 307.5007584  +6.4560778     1119.113     1627.318     1497.547     77.75884     155.7667     311.8132      1.545     5.22     849.4887     55.02784     176.1771        10     1.361     0.566  56.08   0
       279    518.4526    606.0405 307.6979626  +6.4403534     1073.309     1775.468     2076.662     78.13179     156.2016     312.1859      1.842     5.97     855.4298     55.02784     165.0959        13     1.609     0.624  51.30   0
       280     21.3244    605.5646 307.9044984  +6.4238437     659.2081     1103.161     1130.384     78.13179     156.2016     312.2169      1.624     5.65     859.2287     55.02784     99.07959         7     1.540     0.585  59.34   0
       281   1015.8273    604.9908 307.4913616  +6.4574180     1991.112     3085.855     2591.267     77.88335     155.9532     312.0617      1.585     4.10     848.5633     55.02784     307.3964        17     1.355     0.766  51.19  16
       282    599.9036    604.0745 307.6641905  +6.4438940      2794.84     4199.378     4116.424     78.00767     156.2636     312.2169      1.600     4.10     854.0766     55.02784     390.6536        21     1.467     0.828  46.56   0
       283    917.0892    600.1511 307.5325462  +6.4561201     898.0356     1352.583     1593.674     78.25571     155.9532      312.279      1.473     5.04     852.0871     55.02784     160.7443        11     1.373     0.573  48.92   0
       284    212.6280    597.8128 307.8252902  +6.4334809     1082.225      1561.26     1115.917     77.75884     155.9532     312.0928      1.556     4.54     857.3381     55.02784     188.3761        12     1.360     0.574  52.96   0
       285    176.2122    599.0973 307.8403746  +6.4317262     766.4479     1191.894      2039.61     78.00767     155.8911     311.9686      1.596     4.21     857.7289     55.02784     101.9853         8     0.834     0.672 -51.55   0
       286    358.8291    597.6281 307.7645601  +6.4384695     665.8079     1039.109     1563.348     77.75884     155.8911     311.9375      1.564     4.48     855.9239     55.02784      118.565         7     1.299     0.439  45.55   0
       287    852.0536    589.3024 307.5599306  +6.4584246     2765.538     4274.571     4363.309     78.13179     156.1395     312.4031      1.634     4.38     853.2847     55.02784     421.0566        19     1.501     0.744  46.67   0
       288    147.8578    589.0236 307.8524946  +6.4349290     669.5636     877.2375     455.0228     77.88335     156.1395     312.0307      1.696     4.88     857.7786     55.02784     119.3842         7     1.247     0.574  63.24   0
       289    810.9208    586.6600 307.5771086  +6.4581404     2459.443     3910.695     4048.087     78.37943     156.1395     312.1238      1.697     4.52     853.9144     55.02784      364.092        22     1.495     0.862  53.72   0
       290    781.7160    582.6413 307.5893773  +6.4588224     2470.495     3996.677     4582.665     78.25571     156.0153     312.1238      1.697     4.14     854.0157     55.02784     377.4397        23     1.504     0.905  48.43   0
       291    724.2812    582.8528 307.6132321  +6.4568143     741.8551     1247.488     1714.196     78.25571     156.1395     312.2169      2.785     5.77     854.0594     55.02784     128.3912        10     1.609     0.582  45.77   0
       292    791.4261    577.8843 307.5855031  +6.4611100     155224.6     238691.2     250008.4     78.37943     155.8911     312.0617      1.661     4.10     853.8292     55.02784     22288.57       112     1.737     1.146  51.94   0
       293    173.0374    576.0604 307.8424731  +6.4411250     54822.41     89459.39     95569.52     78.25571     156.2016     312.1859      1.727     4.20     857.3533     55.02784     7238.204        79     1.744     1.203  52.95   0
       294    238.7847    581.5333 307.8149745  +6.4410776     7383.715     12004.93     12370.79     77.75884     156.0153     312.0928      1.755     4.33     856.5507     55.02784     925.1181        38     1.685     1.005  49.85   0
       295     96.9910    572.2756 307.8741929  +6.4401276     5925.342     9745.915     10475.23     77.88335     155.7045     311.9996      1.756     4.26     857.8267     55.02784     788.6923        32     1.614     0.969  47.43   0
       296    962.3002    569.5511 307.5147901  +6.4702562     1331.141     2294.042     2222.856     78.25571     156.0774     312.3411      1.742     4.69     849.5946     55.02784     234.0956        14     1.525     0.608  53.72   0
       297    211.6538    567.5689 307.8267179  +6.4459275     915.2275     1537.147       2067.7     78.13179     156.2016     312.0928      2.020     5.58     856.4427     55.02784     132.4686        11     1.330     0.661  45.56   0
       298    827.9699    565.1561 307.5707483  +6.4675837     4338.869     6620.962     6486.922     77.88335     156.1395     312.0617      1.561     4.18     852.9327     55.02784     646.7061        24     1.520     0.820  52.16   0
       299    346.4203    563.1858 307.7708787  +6.4522648     16025.25     26013.05     27347.02     78.00768     155.8289     312.0928      1.728     4.24     854.6016     55.02784     2133.624        46     1.661     1.067  49.38   0
       300    436.9427    563.4750 307.7332615  +6.4551839     745.1219     1188.099     1036.582     78.37943     156.0774     312.1549      1.655     5.26     854.3675     55.02784     104.5129        10     1.460     0.535  49.91   0
       301    148.3812    562.2032 307.8531850  +6.4460133     1865.901     2890.894     3514.062     77.88335     155.7045     311.9996      1.660     4.37     857.4468     55.02784     241.6715        19     1.406     0.924  51.33   0
       302    223.3820    560.0765 307.8220989  +6.4494135     873.2844     1468.208     2294.984     77.75884     155.8911     312.1549      1.874     5.75     855.9557     55.02784     116.7354        11     1.426     0.676  36.83   0
       303    781.8847    558.4890 307.5901196  +6.4687943     5860.587     9184.818     9552.373     78.00767     156.3875      312.279      1.663     4.16     853.2613     55.02784     772.9313        31     1.576     0.905  50.07   0
       304    512.7887    558.1849 307.7019295  +6.4599105     6314.578     9976.982     10855.24     77.88335     155.7667     312.1238      1.678     4.22     854.0035     55.02784     855.4484        31     1.608     0.914  49.46   0
       305     85.7517    559.1389 307.8793069  +6.4451697     755.7272     1186.249     939.4663     78.25571     156.0774      312.248      1.641     4.39     857.9575     55.02784     131.9716         8     1.242     0.442  50.82   0
       306    371.2173    554.7891 307.7608604  +6.4565621     1360.285     1883.399     1862.873     78.00767     155.8289     312.0617      1.509     4.03     854.1317     55.02784     174.8019        15     1.136     0.949  43.82   0
       307    557.5184    551.1733 307.6835825  +6.4643030     2208.767     4126.453     4267.947     78.13179     155.9532     312.1859      2.029     4.87     853.6338     55.02784     280.8986        29     1.553     1.249  45.58   0
       308    159.7682    551.2133 307.8488264  +6.4509311     6370.873     10342.47     10370.29     77.75884     155.8911     312.1238      1.693     4.28     857.2231     55.02784     875.0264        35     1.636     0.983  53.52   0
       309    798.6218    550.8368 307.5834231  +6.4725115     1327.881      1994.91     2244.418     77.88335     155.8911     311.9686      1.668     4.95     852.9242     55.02784     191.2073        13     1.385     0.657  49.90   0
       310    255.0450    547.7062 307.8093632  +6.4555822     81283.12       132127     138183.4     78.13179     156.0774       312.31      1.731     4.26     855.2065     55.02784     10055.12        89     1.758     1.184  52.06   0
       311    544.5015    545.2796 307.6891893  +6.4662987     806.8896      1305.99     1978.506     78.13179     156.5114     312.2169      1.790     4.46     853.5897     55.02784     129.7639        10     1.131     0.652  49.27   0
       312    238.9741    542.7560 307.8162071  +6.4570846     1429.016     2299.658     2795.048     77.88335     156.2016     312.0617      1.692     5.22     855.1843     55.02784     218.9929        19     1.637     0.807  59.37   0
       313    954.5922    541.6424 307.5189298  +6.4815153     1579.699     2457.775     2411.072     77.75884     155.9532     311.9064      1.681     5.46     848.9486     55.02784     210.9158        20     1.567     0.814  51.68   0
       314    778.1818    540.2721 307.5922708  +6.4761876     15492.57      24100.3     25517.65     77.75884     156.0774     312.1238      1.626     4.20     852.6983     55.02784     2350.349        42     1.624     0.967  49.78   0
       315    481.8008    538.5875 307.7154648  +6.4669580     38404.68     65033.77     70513.19     77.88335     155.8289     311.9996      1.821     4.46     853.4761     55.02784     4783.137        79     1.847     1.274  43.28   0
       316    632.3207    537.2598 307.6529737  +6.4725499     866.7038     1467.509     1576.687     78.37943     156.1395     312.1238      1.654     5.05     853.0015     55.02784     130.1006        12     1.311     0.697  50.81   0
       317     29.7624    535.3004 307.9033741  +6.4531203     1156.955     1641.409     1665.523     78.25571     156.0153     312.4031      1.609     4.87     858.8367     55.02784     173.4384        14     1.385     0.698  54.11   0
       318    704.3311    533.3199 307.6231879  +6.4765861      1308.95     2308.821     2447.625     78.50296     156.3875     312.1549      2.110     6.53     852.8476     55.02784      210.505        17     1.961     0.610  58.14   0
       319    194.0886    534.8641 307.8351215  +6.4588317     1700.193      2879.28     3332.462     78.13179     156.3875     312.2169      1.994     4.69     855.8334     55.02784     213.7357        22     1.492     0.957  51.51   0
       320     81.0543    535.6873 307.8820526  +6.4546882     694.1161     1081.534     856.0095     78.25571     156.0153     312.3411      1.670     4.11     857.7392     55.02784     105.4573         7     1.031     0.509  62.92   0
       321    651.9260    533.8793 307.6449421  +6.4746013      1253.78     1933.417     2070.724     78.50296     156.3875      312.248      1.574     5.65     852.8973     55.02784     183.7417        13     1.424     0.656  55.46   0
       322    641.7629    533.5051 307.6491772  +6.4744154     2927.538     4549.238     5081.607     78.37943     156.0153       312.31      1.664     4.17     852.9139     55.02784     431.8861        23     1.501     0.861  52.03   0
       323     31.4314    549.9440 307.9021845  +6.4471343     4809.346     7921.443     8317.192     78.13179     156.1395     312.1238      1.758     4.44     859.0346     55.02784     650.8226        32     1.626     0.991  54.60   0
       324     60.5066    530.6800 307.8907585  +6.4560624     821.3785     1504.994     1651.075     78.00768     156.3256      312.248      2.009     4.96     858.0533     55.02784     129.0758        11     1.292     0.691  43.44   0
       325    379.4446    529.0812 307.7583106  +6.4674462      1703.26     2669.438     3012.938     78.25571     156.1395     312.1549      1.673     4.83     853.3089     55.02784     246.7229        18     1.477     0.833  51.13   0
       326    310.9502    527.4991 307.7868205  +6.4657988     3709.154     5866.493     6108.639     78.25571     156.1395     312.3721      1.660     4.06     853.9119     55.02784     497.0345        28     1.586     0.939  54.61   0
       327    126.1555    526.0697 307.8636415  +6.4601749     24344.35     39272.25     41067.96     78.25571     156.0774     312.1859      1.705     4.22     856.7493     55.02784     3095.632        56     1.696     1.106  53.35   0
       328    490.9038    526.8083 307.7120802  +6.4721238     1929.292     3210.292     3408.074     78.00767     155.7667     311.9996      1.748     4.45     853.2489     55.02784     274.4998        21     1.462     0.920  61.71   0
       329    854.1693    526.3554 307.5611675  +6.4844699     1505.059     2259.793     2286.514     77.88335     156.2016     312.0307      1.589     4.18     851.2361     55.02784     253.4684        14     1.377     0.648  47.89   0
       330     91.2737    524.2350 307.8781950  +6.4597577     2615.544     4274.658     4124.543     78.13179     156.1395     312.1549      1.725     4.73     857.1809     55.02784     324.7926        25     1.560     0.957  52.29   0
       331    328.1750    522.6667 307.7798276  +6.4683714     963.8901     1451.379     1371.371     77.88335     156.0153     312.0928      1.579     5.66     853.5609     55.02784     123.2392        12     1.199     0.751  64.24   0
       332    951.7470    520.8724 307.5208094  +6.4899910     5112.117     7801.598     7881.249     78.13179     156.1395     312.1549      1.585     4.09     848.4735     55.02784     780.7855        28     1.555     0.866  48.67   0
       333    524.7837    513.1754 307.6984640  +6.4788851     1317.408     1941.974     1608.039     78.00767     156.0153     312.1238      1.504     4.67     852.9839     55.02784     222.9755        15     1.481     0.651  50.18   0
       334    423.1311    507.2816 307.7408965  +6.4779077     40006.05     64071.36     67060.87     78.50296     156.3875     312.2169      1.705     4.21      852.749     55.02784     5417.262        61     1.695     1.104  51.91   0
       335    631.1743    506.9686 307.6544704  +6.4850108     11431.12     18171.71     18749.89     77.75884     155.8911     312.0307      1.639     4.23     852.2938     55.02784     1637.197        36     1.611     0.955  50.33   0
       336    271.2385    507.4487 307.8039967  +6.4727378     975.0215     1788.907     1908.652     78.25571     156.2016     312.0617      1.782     5.95     853.7137     55.02784     134.7659        14     1.599     0.640  54.09   0
       337    188.2944    504.7951 307.8385461  +6.4710440     18071.27     30435.57     31857.87     78.00767     155.8289     311.9375      1.804     4.46     854.7698     55.02784      2298.35        52     1.809     1.075  48.86   0
       338    154.0527    505.6671 307.8527424  +6.4695322     1520.809     2502.483     2115.993     78.25571     156.0774     312.0928      1.737     4.88     855.5923     55.02784     214.1149        17     1.422     0.815  53.03   0
       339    965.3234    505.4606 307.5156860  +6.4968037     1299.622      1767.64     2253.397     78.50296     156.2016     312.1549      1.496     4.91     847.7219     55.02784      177.459        13     1.327     0.690  45.38   0
       340    894.0211    505.2328 307.5453194  +6.4945173      702.476     865.9753     789.6728     77.75884     155.9532     311.9996      1.512     5.00     849.6022     55.02784     102.9755         8     1.241     0.570  43.89   0
       341    805.1411    504.8062 307.5822626  +6.4917236     1022.672      1466.53     1823.702     77.63412     156.0153     311.9375      1.575     4.58     850.8576     55.02784     187.2423        11     1.259     0.667  52.39   0
       342    552.9592    503.7885 307.6870743  +6.4837028     2584.022     4043.607     4091.006     77.63412     155.9532     311.9064      1.632     4.31     852.7417     55.02784     324.6201        22     1.522     0.831  52.98   0
       343    926.8773    501.0095 307.5318097  +6.4973571       4664.8     7207.796      7176.08     77.88335     155.7045     311.9996      1.578     4.22     848.5557     55.02784     739.2609        26     1.584     0.815  56.32   0
       344    600.0529    499.3383 307.6676579  +6.4871171     5953.564     9419.137     10002.76     78.25571     156.0774     312.1549      1.660     4.25     852.2017     55.02784     810.8877        29     1.524     0.920  54.04   0
       345     87.8001    499.8335 307.8804645  +6.4697093     1156.734     1905.384     1867.206     77.25878     155.8911     311.9375      1.650     5.10     856.5809     55.02784      194.858        16     1.588     0.687  57.22   0
       346    949.5247    493.2983 307.5226588  +6.5012951     3445.647     5157.453     5075.855     77.88335     156.2636     312.1549      1.582     4.07      847.771     55.02784     513.7144        21     1.485     0.782  49.93   0
       347    512.1788    490.5301 307.7044648  +6.4878068     6928.936     11004.72     11853.97     77.88335     156.0153     312.1549      1.707     4.21     852.5674     55.02784      917.296        34     1.609     0.997  47.55   0
       348    388.1147    492.2855 307.7559512  +6.4829203     717.0959     1085.396     1305.826     78.00767     156.2636      312.248      1.444     3.91     852.4135     55.02784     115.7903         6     0.912     0.480  32.76   0
       349    358.2190    490.8808 307.7684194  +6.4824962     2425.729     3909.028     3817.523     77.88335     155.8289     312.1238      1.685     4.20     852.4026     55.02784     335.2589        18     1.412     0.792  50.54   0
       350    728.1561    490.9384 307.6147157  +6.4948715     619.4003     1031.395     820.7348     78.25571     156.0774       312.31      1.533     4.66     851.5756     55.02784     118.7667         6     0.989     0.623  47.41   0
       351    868.5392    486.4434 307.5565385  +6.5014194     3136.285     4828.347     5640.954     78.25571     156.1395       312.31      1.740     4.45     849.6848     55.02784     464.5305        25     1.609     0.888  46.83   0
       352    521.6580    487.2394 307.7006374  +6.4894824     807.5389     1067.999     1457.319     78.25571     156.2016      312.248      1.488     3.28     852.4917     55.02784      156.653         9     1.056     0.600  53.78   0
       353    876.0038    480.7513 307.5536283  +6.5040176     2182.657     3555.115     3962.406     77.63412     155.9532     311.8132      1.709     4.28     849.3337     55.02784      305.313        19     1.445     0.795  56.93   0
       354    915.6102    480.3665 307.5371847  +6.5054991      1243.79     1959.186     1978.985     77.75884     155.9532     312.0307      1.793     5.33     848.2233     55.02784     195.0695        12     1.239     0.648  44.66   0
       355     95.5396    479.6759 307.8779319  +6.4782873     622.1398      1096.54     1152.201     78.50296     156.1395     312.1549      1.769     6.19     855.7993     55.02784     94.88483        10     1.438     0.748  75.26   0
       356    700.1061    476.9850 307.6268400  +6.4996907     2761.659     4131.091     3846.461     78.00767     155.8911     312.0307      1.551     4.11     851.2693     55.02784     412.4305        18     1.415     0.768  50.38   0
       357     61.7539    475.6772 307.8921038  +6.4787996     1943.679     3115.559     3427.163     78.13179     156.2016     312.1859      1.671     4.79     856.6618     55.02784     253.3532        20     1.539     0.844  55.86   0
       358    411.2449    475.3450 307.7469132  +6.4906868      1026.15     1717.231     2237.805     78.25571     156.1395     312.1859      2.316     5.77     851.7285     55.02784     159.4412        14     1.509     0.772  61.71   0
       359    370.9331    474.8925 307.7636771  +6.4895203     3472.882     5495.959     5679.315     78.13179     156.3256     312.2169      1.690     4.66     851.7339     55.02784     497.2986        26     1.527     0.927  54.63   0
       360    598.6212    471.5274 307.6691900  +6.4985449     9416.237     14861.04     15480.05     77.88335     155.9532     312.1549      1.702     4.24     851.3984     55.02784     1244.587        36     1.648     0.963  51.24   0
       361    761.3012    468.1600 307.6017107  +6.5053795     15793.24     24631.15     25767.86     78.25571     156.0153     312.4031      1.670     4.15     850.1134     55.02784     2329.126        44     1.646     0.982  49.35   0
       362    281.1629    468.4510 307.8011919  +6.4891628     2443.312     3954.936      4054.18     78.00767     156.0774     312.1238      1.648     4.73       852.05     55.02784     350.3054        23     1.638     0.838  55.67   0
       363    790.3840    465.3453 307.5897214  +6.5075134     1219.132     1995.297     2369.692     77.63413     156.1395     311.9064      1.861     4.26     849.4502     55.02784     208.3562        16     1.430     0.779  54.18   0
       364    364.2896    465.0316 307.7667704  +6.4933662      1496.09     2308.199      2735.64     78.37943     155.9532     312.1549      1.678     4.76     851.0383     55.02784     199.3157        16     1.373     0.756  48.56   0
       365    380.3253    465.5698 307.7600897  +6.4936825     648.6146     937.2623     930.2396     78.13179     156.1395     312.2169      1.630     3.43     851.1025     55.02784     84.85248         5     1.067     0.319  21.85   0
       366    946.5615    463.0027 307.5249076  +6.5136975     1975.898     2873.833     2645.845     77.38409     155.8911     311.9375      1.532     4.03     846.8822     55.02784     332.1123        17     1.415     0.743  53.13   0
       367    765.6220    463.1612 307.6000836  +6.5075867     1479.745     2453.552     2692.642     77.88335     155.8911     311.9686      1.770     5.44     849.8079     55.02784     235.6412        17     1.358     0.988  59.02   0
       368    695.4995    462.4785 307.6292424  +6.5055225     571.5783     690.9882     579.2266     78.00768     156.3875     312.2169      1.218     3.61     850.5113     55.02784     101.8991         6     0.937     0.399  69.22   0
       369    352.6700    461.1777 307.7717283  +6.4945662     767.9196     1350.812     1463.999     77.88335     156.0774     312.1549      1.841     5.30     850.7646     55.02784     110.8593        10     1.134     0.700  54.32   0
       370     98.8240    459.7880 307.8772410  +6.4866041     4024.022      6890.38     8305.906     77.88335     155.9532     312.1238      1.938     4.49     855.1791     55.02784     530.3722        35     1.654     1.194  50.21   0
       371    736.9114    459.1035 307.6121494  +6.5083008     2194.199     3293.485     3201.421     78.25571     156.5114     312.2169      1.614     4.38     850.1336     55.02784     327.8552        18     1.448     0.759  53.53   0
       372   1000.6745    457.9050 307.5025941  +6.5176069      4085.28     6799.395      6720.89     78.00767     156.3256     312.1859      1.756     4.84     845.4244     55.02784     536.0867        29     1.768     0.866  42.49   0
       373    256.7374    457.1146 307.8117234  +6.4930196      1442.82     2039.256     2401.273     78.37943     156.2636     312.1859      1.636     4.03     851.8571     55.02784     194.5792        16     1.187     0.928  44.44   0
       374    334.7813    454.6671 307.7793807  +6.4966519     3034.465     4829.826     5052.646     77.88335     156.0774     312.0928      1.663     4.41     850.5493     55.02784     387.8051        24     1.561     0.891  50.14   0
       375    262.5363    455.3606 307.8093735  +6.4939383     348.8978     558.0748      1001.96     78.25571     156.0774     312.2169      1.527     3.70     851.6382     55.02784     76.00946         5     1.460     0.269  44.75   0
       376    690.5012    452.4248 307.6316578  +6.5095038     1561.386      2419.66     2458.425     78.37943     155.8911     312.0307      1.632     5.28     850.0006     55.02784     229.2261        17     1.557     0.735  48.11   0
       377    964.4391    451.5074 307.5178652  +6.5190377     649.0668      947.784      1119.35     78.37943     156.0774      312.248      1.626     5.95     846.0856     55.02784     93.50037         9     1.278     0.779  60.85   0
       378    394.5301    450.8753 307.7546842  +6.5002228     576.3115     983.4879     956.1661     78.37943     156.2636     312.1859      1.727     2.90      850.042     55.02784     114.4022         5     0.743     0.459  70.45   0
       379    221.9640    450.4524 307.8263962  +6.4945995     724.2581     1273.011     1456.901     78.13179     156.1395     312.2169      1.738     5.96     852.4523     55.02784     114.3173        11     1.596     0.626  37.52   0
       380    532.2784    445.4562 307.6976339  +6.5070796     1009.032     1563.372     1752.932     78.25571     156.1395     312.1859      1.716     5.06     850.3274     55.02784     145.3784        10     1.135     0.637  55.53   0
       381    816.6760    442.4719 307.5795663  +6.5178309     1403.616     2206.283     2496.434     78.50296     156.3875     312.1859      1.731     5.73     848.2208     55.02784     197.5768        14     1.499     0.618  59.74   0
       382    802.4824    441.8530 307.5854847  +6.5176118     1913.838     2695.622     2798.463     78.25571     156.1395      312.248      1.559     4.26     848.4518     55.02784     301.8467        17     1.404     0.759  50.98   0
       383    454.4913    443.2725 307.7300277  +6.5053721     1173.086     2042.803      2203.98     78.13179     156.3256     312.1859      1.886     6.21     849.5132     55.02784     163.7654        13     1.530     0.707  49.42   0
       384    602.1251    441.7653 307.6687372  +6.5109432     716.5795     1147.499     1561.285     78.13179     156.2016     312.1549      1.640     4.74     850.0864     55.02784     105.7231         9     1.356     0.470  63.83   0
       385    699.8127    439.8316 307.6282128  +6.5150118     14212.05     22298.31      23373.3     77.75884     155.8911     312.1238      1.648     4.27     849.3315     55.02784     2033.258        39     1.616     0.972  52.44   0
       386    620.9785    435.9308 307.6611002  +6.5139822     2462.151      4099.56     4703.353     77.88335     156.0774     312.1549      1.773     4.41     849.6932     55.02784      340.324        20     1.572     0.755  48.07   0
       387    615.7622    435.1292 307.6632946  +6.5141383     580.5019      1133.53     997.8199     78.13179     156.1395      312.248      1.620     3.34     849.6975     55.02784     97.68896         5     0.950     0.341  45.51   0
       388    593.3382    430.9957 307.6727512  +6.5150928     13308.28     25525.99     31398.27     77.63412     155.8911     311.9375      2.265     6.88     849.6371     55.02784     1979.466        65     2.557     1.065  38.84   0
       389    925.1010    429.6938 307.5349436  +6.5267258     3753.242     6039.371     6130.064     78.25571     156.6352     312.0617      1.630     4.27     846.2259     55.02784     514.4156        24     1.546     0.823  51.92   0
       390    364.2546    425.6315 307.7681160  +6.5096226     27419.39     43943.25     46382.79     78.13179     156.2016     312.1549      1.737     4.11     848.3216     55.02784     3611.288        59     1.712     1.103  51.64   0
       391    110.3529    425.0379 307.8736280  +6.5013308     2173.554     3585.417     3695.081     78.13179     156.0774     312.0307      1.782     4.40     854.0232     55.02784      302.071        24     1.535     0.996  47.64   0
       392    879.4053    423.9052 307.5541256  +6.5275884     1272.696     2846.577     3494.494     78.00767     155.8289     311.9375      2.816     8.32     846.3799     55.02784     206.0523        25     2.780     0.697  46.48   0
       393    893.8626    420.1187 307.5482455  +6.5296337      4825.84     7622.393     7749.636     78.37943     156.1395     312.1859      1.651     4.39      846.079     55.02784     734.2418        33     1.689     0.923  51.28   0
       394     43.5401    420.6773 307.9015346  +6.5008800     1424.392     2216.018     2697.869     78.37943     156.2016     312.1549      1.792     5.11     856.0203     55.02784     192.6479        17     1.427     0.929  80.17   0
       395    389.1599    420.6214 307.7579373  +6.5125262     3860.876     3956.412     3706.652     77.88335     155.9532     311.9996      1.067     3.73     847.9394     55.02784     1162.742         9     1.058     0.378 -26.52   0
       396    949.4893    418.4296 307.5251881  +6.5321881     606.1226      806.179      880.715     78.37943     155.8911     312.0928      1.402     5.78     845.2506     55.02784       88.367         8     1.429     0.658  55.00   0
       397    221.7999    416.1727 307.8276241  +6.5087386     12993.05     21362.21      22177.3     77.75884     155.8289     311.9996      1.733     4.25     851.8144     55.02784     1761.435        46     1.677     1.074  53.00   0
       398    716.7193    409.7853 307.6221996  +6.5279758      647.171     1108.637     1260.256     77.88335     155.8911     312.0307      1.970     5.66     847.8371     55.02784     107.6543        10     1.502     0.601  62.92   0
       399    685.3266    410.2130 307.6352294  +6.5267488      708.865     873.1237     774.7906     77.75884     155.8289     311.9686      1.463     4.33     847.8661     55.02784      113.601         7     1.117     0.478  61.46   0
       400     57.5000    410.1229 307.8960923  +6.5057052      857.482     1408.245     1532.897     77.88335     156.2636     312.2169      1.729     4.04     855.2333     55.02784     109.3903        11     1.031     0.807  53.39   0
       401    945.4339    408.5375 307.5272055  +6.5361346     1111.243     1697.696     1289.756     78.13179     156.2016     312.1238      1.606     6.06     844.9525     55.02784     164.8948        15     1.523     0.820  32.35   0
       402    335.0742    406.1579 307.7808983  +6.5166780     1225.919     2170.137     2341.799     78.13179     156.2016     312.2169      1.814     5.62     847.5092     55.02784     181.4784        15     1.593     0.700  48.63   0
       403    168.0723    406.0808 307.8502886  +6.5110955     822.3061     1354.716     1024.232     78.50296     156.3875     312.2169      1.800     5.78     852.5768     55.02784     111.1082        11     1.319     0.713  57.01   0
       404    122.1136    404.8051 307.8694269  +6.5100752       4618.7     7680.111     8115.006     77.75884     155.8289     311.8443      1.719     4.32     853.3961     55.02784     581.8522        30     1.623     0.957  48.46   0
       405    226.8946    403.9029 307.8259224  +6.5139727     1234.803      1996.11     1666.098     78.25571      156.697     312.0307      1.739     6.10     851.0427     55.02784     157.9661        16     1.592     0.801  59.67   0
       406    144.2263    400.6761 307.8603792  +6.5125232     2253.553     4077.029     4435.471     78.00768     156.0774     312.1549      1.974     4.48     852.9472     55.02784       274.03        29     1.601     1.142  74.10   0
       407    808.7761    402.2021 307.5842033  +6.5341838     763.9568     1029.909     1077.993     77.88335     155.8289     311.9996      1.380     4.04     846.9897     55.02784     142.7409         7     0.843     0.754  68.25   0
       408    539.8174    399.8662 307.6960391  +6.5261443     953.6219     1327.635     1004.367     77.75884     156.0774     312.0617      1.420     4.46     847.6016     55.02784     148.3273         8     1.221     0.463  46.09   0
       409    367.5238    395.3545 307.7677805  +6.5222256     2080.504     3241.211     3677.978     78.13179     156.2016     312.2169      1.683     3.94     846.5792     55.02784     276.3705        17     1.368     0.771  55.38   0
       410    255.3270    395.5936 307.8143900  +6.5183573     823.5284     1036.801     845.2231     77.88335     155.7045     312.0928      1.455     5.51     849.5385     55.02784     115.8701        10     1.225     0.699  47.42   0
       411    956.1876    394.7109 307.5232015  +6.5421990     820.3038     1431.102     1572.692     78.00767     155.8911     312.0928      1.862     4.32     843.9185     55.02784     128.5452         9     1.229     0.543  47.34   0
       412    301.9649    392.9856 307.7951003  +6.5210009     704.7278     1216.753      1008.88     77.88335     155.8911     312.0307      1.648     4.17     847.8493     55.02784     102.7847         7     0.914     0.543  39.20   0
       413    421.4346    389.0316 307.7455938  +6.5266444     6847.271     11128.61     11501.54     77.88335     155.8911     311.9375      1.725     4.17     845.9202     55.02784     925.6007        34     1.592     0.998  52.81   0
       414     17.8062    389.7437 307.9132749  +6.5127767     2980.219     5258.616     5859.905     77.75884     156.0153     311.9064      1.948     4.44     855.7816     55.02784     404.2189        28     1.483     1.248  57.12   0
       415    762.0184    386.4532 307.6041622  +6.5391189     12315.55     19044.24     20048.27     77.75884     156.2016     311.9686      1.620     4.35      846.798     55.02784     1660.243        40     1.620     0.942  52.15   0
       416    754.1365    388.0158 307.6073847  +6.5382105     1970.989     3037.716     3304.456     77.75884     156.0774     312.0307      1.576     4.15     846.9016     55.02784     296.5351        19     1.550     0.763  54.12   0
       417    325.4914    384.9330 307.7855972  +6.5251140     952.3574      1593.17     1339.956     78.25571     156.2636     312.2169      1.791     6.22     847.0211     55.02784     135.5301        14     1.428     0.762  51.73   0
       418   1005.8809    381.6152 307.5029919  +6.5492611     3415.643     5194.296     5072.787     77.88335     155.8911     312.0307      1.597     4.23     841.2394     55.02784     440.8269        22     1.464     0.809  51.03   0
       419    936.7242    377.9106 307.5318535  +6.5484818     547.7719     709.8427     881.6297     78.25571     156.4495      312.279      1.526     3.70     843.8586     55.02784     97.67639         5     1.502     0.261  48.34   0
       420    170.3818    377.0654 307.8503112  +6.5231456     671.3871     991.4244     675.5377     77.88335     156.1395     312.0928      1.577     4.98     851.8792     55.02784     100.6326         9     1.259     0.559  59.23   0
       421    887.2453    377.0380 307.5524431  +6.5471896     579.7549     778.8867     563.0258     78.00767     156.0774     312.0928      1.357     3.79     845.0178     55.02784     97.75238         6     0.917     0.450  51.64   0
       422    441.6978    373.3134 307.7377050  +6.5338102     2122.874     3396.559     3622.825     78.25571     156.5733      312.248      1.703     4.35       844.95     55.02784     254.2882        23     1.496     0.926  59.34   0
       423    469.4914    372.6323 307.7261793  +6.5350237      2821.87      4456.76     4784.914     78.37943     155.9532     312.2169      1.739     4.67       844.95     55.02784     359.0432        22     1.539     0.837  53.18   0
       424    898.5105    372.6076 307.5479109  +6.5493940     722.2053     1115.961     795.7842     77.75884     155.8289     311.9375      1.251     4.03      844.657     55.02784     125.1434         6     0.990     0.468  35.70   0
       425    827.3959    369.3628 307.5775708  +6.5483570     31226.31     50819.34     53357.57      77.3841     155.8911     311.9996      1.747     4.23     845.8036     55.02784     4454.771        59     1.728     1.086  57.81   0
       426    319.6303    365.2710 307.7886971  +6.5330302     974.9653     1622.047     1509.378     78.13179     156.1395     312.1549      1.824     6.03     846.5905     55.02784     130.1148        13     1.340     0.763  57.94   0
       427     45.0015    366.0085 307.9027802  +6.5234866     537.9597     1069.892     940.4991     77.63413     155.8289     311.9686      1.924     5.77      854.248     55.02784     72.97699         9     1.492     0.628  23.08   0
       428    599.1461    361.7240 307.6726730  +6.5438712     2437.848     4097.924      4455.84     78.25571     156.1395     312.1859      1.849     4.68     844.7358     55.02784     340.7631        20     1.572     0.798  52.26   0
       429      7.5425    362.3571 307.9184677  +6.5237310     948.7383     1382.233     1056.879     78.13179     156.0774     308.3131      1.596     5.50      854.851     55.02784     114.4108        12     1.331     0.670  66.64  16
       430    683.8560    355.3207 307.6376892  +6.5493502     77481.74     120583.6     125972.9     78.37943     156.1395     312.1859      1.660     4.23     845.6981     55.02784     10304.54        83     1.706     1.120  48.61   0
       431     63.1655    354.8147 307.8956126  +6.5287172     1331.703      2034.28     1996.178     77.88335     155.8911     312.0617      1.581     4.65     853.5721     55.02784      179.694        15     1.339     0.738  50.52   0
       432    925.7261    352.9409 307.5372626  +6.5584181     736.2266      1223.51     959.6847     78.37943     156.1395     312.1859      1.746     6.25     843.2891     55.02784     120.0861         9     1.647     0.667  57.59   0
       433    546.2824    352.0533 307.6949653  +6.5460902     2558.431     4195.058     5272.619     78.25571     156.1395      312.248      1.732     4.18     843.9614     55.02784     362.6665        24     1.623     0.861  46.53   0
       434     83.5196    350.7803 307.8872922  +6.5310674     5974.581     9746.293     10144.55     77.88335     155.8289     312.1238      1.747     4.22     853.1032     55.02784      790.897        35     1.616     1.035  49.65   0
       435    744.6661    350.2982 307.6125895  +6.5534575     731.9675     1068.814     1168.838     78.25571     156.2016     312.2169      1.675     4.63     845.4873     55.02784     116.8439         9     1.102     0.619  54.22   0
       436    529.5575    348.1485 307.7020467  +6.5471408     6920.292     11013.82     11454.07     78.25571     156.1395     312.2169      1.739     4.42     843.7039     55.02784     898.4268        36     1.670     0.981  51.49   0
       437    258.6404    345.8757 307.8146948  +6.5389835     2411.587     3979.683     3133.925     78.13179     156.1395     312.2169      1.774     4.77     847.8902     55.02784     320.4376        25     1.565     1.023  47.74   0
       438    392.4725    343.3501 307.7591708  +6.5445217     24682.58     39687.35     41478.44     78.25571     156.2016     312.2169      1.750     4.30     843.9643     55.02784      3225.69        58     1.700     1.121  52.92   0
       439    500.2224    342.0981 307.7144403  +6.5486538     1191.608     1902.569      1876.02     78.25571     155.8911     311.9996      1.689     6.08     843.3593     55.02784     179.8315        14     1.529     0.748  55.34   0
       440    841.8741    356.8149 307.5719765  +6.5540186     1078.229     1830.548     2171.754     77.75884     155.8911     312.0307      1.625     5.22     845.3646     55.02784     154.9227        12     1.451     0.557  45.10   0
       441    570.6420    342.1587 307.6851768  +6.5509895     685.9223     1087.594     1147.873     78.00767     156.1395     312.0617      1.703     4.14     843.4437     55.02784     115.6385         6     1.105     0.442  32.77   0
       442    372.4171    341.2646 307.7675747  +6.5447089     1078.725     1849.997     2809.533     77.75884     156.0774     312.0617      2.583     7.40     844.2277     55.02784      151.305        18     1.898     0.809  56.80   2
       443    471.8480    338.4970 307.7263522  +6.5491880     1218.286     2025.541     1864.762     78.25571     156.0153     312.3411      1.767     5.83     843.2275     55.02784     143.3851        17     1.618     0.705  55.69   0
       444    787.0200    335.4974 307.5954878  +6.5609814     836.7153     1534.761     1419.087     78.13179     155.9532     311.9375      1.711     5.44     844.8273     55.02784     112.6521        12     1.441     0.579  65.55   0
       445    481.5932    333.7566 307.7224628  +6.5514709     8161.818     12959.74     13369.37     77.75884     155.8911     311.9064      1.703     4.30     843.0287     55.02784     1077.014        35     1.625     0.969  51.84   0
       446    750.6497    332.4915 307.6107025  +6.5610053     3051.647     4704.719     5153.614     78.25571     156.0153     312.3411      1.687     4.71     844.6954     55.02784     429.1071        23     1.509     0.843  47.25   0
       447    906.0558    332.5231 307.5461227  +6.5661865     1014.457     1304.891     1681.448     78.25571     156.1395     312.1549      1.630     5.71     842.8873     55.02784     132.4046        12     1.267     0.747  48.10   0
       448    698.4446    332.1165 307.6324086  +6.5594133     715.3917     1154.765      1329.89     78.25571     156.1395     312.1859      1.673     4.55     844.3607     55.02784     98.72894         7     0.982     0.633  63.98   0
       449    308.1654    330.6301 307.7946319  +6.5469387     934.4783      1513.46     651.6835     77.88335     155.8911     311.9375      1.671     5.47     846.0068     55.02784     138.8294        12     1.392     0.698  50.77   0
       450    143.8781    324.3901 307.8631069  +6.5439886     996.4927     1612.126      2022.21     77.88335     155.8289     312.0617      1.506     4.92     851.1478     55.02784     127.5421        13     1.321     0.700  59.50   0
       451    420.5428    324.2345 307.7481525  +6.5533516     648.3431     1108.368     1331.406     78.13179     156.1395     312.1859      2.033     4.05      843.293     55.02784     108.4887         6     1.056     0.486 -83.30   0
       452    243.4912    323.8634 307.8217341  +6.5475570       772.27     1101.139     919.8911     78.25571     156.3256      312.248      1.576     3.71     847.8723     55.02784     142.9845         9     1.035     0.867  57.55   0
       453    227.3871    318.5880 307.8286041  +6.5491922     2038.866     3244.628     3552.621     78.13179     155.8289     312.1238      1.815     5.02     848.3828     55.02784     246.4434        20     1.574     0.823  48.94   0
       454    371.4280    317.9570 307.7687732  +6.5542930     7119.896      11474.7     12195.91     77.88335     156.2016     312.0928      1.720     4.26     843.9086     55.02784     863.9696        32     1.595     0.974  54.52   0
       455    725.2117    317.8879 307.6217648  +6.5661803     974.5876     1470.533     1135.453     77.88335     155.8911     312.0617      1.453     3.77     843.9078     55.02784     168.9557         9     1.155     0.524  45.79   0
       456    739.3350    313.8772 307.6160309  +6.5683078     51995.38      81161.6     84866.19     78.37943     156.1395     312.1549      1.657     4.23     843.9034     55.02784     7233.404        70     1.717     1.053  51.30   0
       457    411.0118    313.1357 307.7524877  +6.5576114     2118.585     3677.658     3927.918     77.75884     155.9532     312.0307      1.789     5.09     843.2682     55.02784     262.9698        23     1.593     0.859  55.99   0
       458    974.0892    310.9936 307.5185743  +6.5773418     1573.806     2484.288     2451.605     77.75884     155.8289     311.9686      1.615     4.78     839.6735     55.02784      246.193        14     1.348     0.705  54.76   0
       459    557.1739    310.5472 307.6918394  +6.5635820     1215.536      2018.04      2306.84     77.88335     156.2636     312.0928      1.722     4.73     841.8065     55.02784     188.3955        16     1.363     0.930  51.06   0
       460    915.1384    310.1447 307.5431005  +6.5757241     2259.145     3328.689     3563.671     78.37943     156.1395     312.1859      1.545     4.54     841.4412     55.02784      321.174        17     1.456     0.698  48.72   0
       461    447.9848    309.4027 307.7372503  +6.5603926     975.5146     1748.133      2383.02     77.88335     155.7667     311.9996      2.141     6.04     842.6284     55.02784     138.9062        15     1.712     0.600  51.02   0
       462    397.5428    308.8875 307.7582281  +6.5589122     2037.834     3235.099     3341.569     78.25571     156.0774       312.31      1.741     4.58     843.3962     55.02784      255.234        20     1.542     0.806  52.10   0
       463    277.8381    308.8878 307.8079688  +6.5548909     635.5389     914.5671     885.6259     78.25571     156.0774     312.1859      1.532     4.53     846.1699     55.02784      102.164         6     0.974     0.598  26.32   0
       464    818.7548    303.5463 307.5833753  +6.5752266     1180.085     2034.948     1863.338     78.25571     156.1395     312.2169      1.793     5.07     843.2962     55.02784     207.6088        13     1.501     0.658  47.30   0
       465    447.7575    303.5703 307.7375416  +6.5627916     636.2456     976.6233     1296.691     77.88335     156.0774     312.0307      1.631     2.74     842.5023     55.02784     100.3668         5     0.715     0.452  21.40   0
       466    174.1151    300.2909 307.8513589  +6.5549500     2294.386     3612.621     4048.504     78.00767     156.5114       312.31      1.680     4.25     849.5629     55.02784     284.4471        23     1.529     0.873  55.10   0
       467    737.7507    298.4400 307.6172089  +6.5746248     5821.299      9090.59     9573.555     78.25571     156.1395     312.1238      1.663     4.35     843.1995     55.02784      789.949        31     1.611     0.924  54.73   0
       468    427.8979    300.1425 307.7459098  +6.5635395     1090.447     1623.567     1809.263     78.00767     156.0774     312.3721      1.524     5.32     842.7895     55.02784     158.8517        11     1.334     0.598  54.19   0
       469    210.1346    298.9638 307.8364370  +6.5567093      670.365      994.517     910.9343     78.13179     156.1395      312.248      1.621     5.00     848.7708     55.02784     102.7972         8     1.180     0.599 -88.37   0
       470    754.1885    296.4770 307.6104441  +6.5759846     2659.721     4145.198     4516.731     77.88335     155.7667     312.0307      1.720     3.92     843.1115     55.02784     390.0778        20     1.409     0.838  47.59   0
       471     69.9163    297.1753 307.8947608  +6.5527276     985.0689     1903.666     2023.698     78.13179     155.8911     312.1549      2.051     6.00      851.593     55.02784     130.4853        12     1.436     0.705  43.56   0
       472    328.6647    297.4129 307.7872369  +6.5613337     640.0898     964.0734     788.9628     77.75884     155.9532     312.0928      1.589     4.16     844.3395     55.02784     89.19519         7     1.075     0.459  10.49   0
       473    343.6542    291.0675 307.7812227  +6.5644556     1636.744     3575.088     3648.696     78.25571     156.0774     312.0928      2.175     6.90     843.9222     55.02784     201.1105        31     1.851     1.275  31.08   0
       474     57.6449    291.7088 307.9000450  +6.5545698     1247.365     1865.745     1713.726     78.25571     156.0774       312.31      1.606     4.85     851.3713     55.02784     175.6821        15     1.423     0.746  54.51   0
       475    296.3876    291.9454 307.8008339  +6.5625052     520.3145     557.8964     466.7343     77.63412     156.0774     311.9064      1.576     5.45     844.7932     55.02784     85.44458         6     1.248     0.672  52.15   0
       476    992.3812    287.2925 307.5117688  +6.5877323     5784.689     9007.826      9534.75     78.13179     155.8911     312.0617      1.673     4.37     838.6761     55.02784     855.9382        28     1.578     0.856  52.95   0
       477    470.6312    287.2085 307.7285890  +6.5703104     2094.895     3040.636     2839.112     77.75884     155.9532     311.9996      1.551     4.24     841.4992     55.02784     293.0016        18     1.343     0.845  58.77   0
       478    233.0175    282.6704 307.8274798  +6.5642019     5435.575     9039.507     9820.148     77.75884     156.0153     312.0928      1.755     4.13     847.8019     55.02784     722.5281        33     1.643     1.013  53.18   0
       479    797.6465    281.1010 307.5929022  +6.5837827     659.3036     893.1108     938.9832     78.25571     156.0153     312.4031      1.492     4.67     842.4155     55.02784      81.7135         6     0.961     0.643  64.16   0
       480    924.8050    278.0003 307.5401636  +6.5893110     526.9105      810.803     522.8413     77.63412     155.7667     311.9375      1.579     4.06     839.6641     55.02784      85.8894         5     1.020     0.517  58.11   0
       481    752.6566    276.0558 307.6117682  +6.5843599     790.6772      922.574     928.6807     78.37943     156.1395      312.248      1.341     4.21     842.2142     55.02784     135.2328         7     1.103     0.458  43.01   0
       482    210.0184    275.4766 307.8372801  +6.5663967     679.5433     950.2839     1014.602     77.75884     155.8911     312.1549      1.752     4.77     848.2422     55.02784     90.59436         6     1.011     0.637 -56.31   0
       483    367.2268    273.4223 307.7720237  +6.5725282     1431.314     2345.814     2040.323     77.75884     155.9532     312.1549      1.705     4.92     843.3754     55.02784      211.797        15     1.467     0.651  53.76   0
       484    954.2487    272.5778 307.5281098  +6.5925315     1092.339     1600.419     1649.696     77.88335     156.1395     312.0928      1.738     5.45     838.9694     55.02784     189.8635        13     1.589     0.741  51.76   0
       485    289.7204    269.6990 307.8043566  +6.5714605     998.5048     1490.544     1138.691     78.13179     156.5114     312.2169      1.586     6.16     844.7617     55.02784     132.2336        14     1.364     0.782  51.56   0
       486    137.0134    269.2737 307.8678258  +6.5664996     1701.046     2864.357      3051.64     77.75884     155.8911     311.9686      1.784     4.95     849.8105     55.02784      212.652        20     1.598     0.838  45.79   0
       487    890.1997    264.3334 307.5550039  +6.5937947     1669.011     2839.385     3003.895     77.50922     155.6422     311.9375      1.800     5.17     840.2576     55.02784     256.5693        18     1.686     0.711  39.67   0
       488    546.4017    264.8290 307.6978577  +6.5820857      1909.15     3104.852     3280.131     77.75884     155.9532     311.9686      1.748     5.14     839.8364     55.02784     284.6738        20     1.613     0.785  53.26   0
       489    710.1931    262.5851 307.6298680  +6.5884977     4899.016     7736.934     8081.866     77.88335     155.8911     312.0307      1.695     4.38      841.235     55.02784     695.8715        26     1.555     0.861  49.44   0
       490    651.0600    262.3760 307.6544487  +6.5866044     2147.607     3403.235     3725.462     77.88335     156.1395     312.0617      1.728     5.35     840.4163     55.02784      257.559        21     1.585     0.832  53.02   0
       491    773.0466    274.0646 307.6033618  +6.5858636     503.7092     710.8046      521.895     78.13179     156.0774     312.2169      1.600     4.61     842.1024     55.02784     78.77252         7     1.170     0.515  38.92   0
       492    366.5507    256.9047 307.7728628  +6.5793210     593.9589     909.6482     478.6289     78.13179     156.0153     312.3411      1.729     4.07     843.2075     55.02784     111.3512         6     1.025     0.463  33.60   0
       493    906.2877    254.5683 307.5486464  +6.5983615     1229.279       1952.3     1852.209     78.37943     155.9532     312.1238      1.701     6.00     839.4467     55.02784     195.9611        14     1.476     0.746  48.39   0
       494    209.6923    247.7823 307.8383529  +6.5778130     2180.796     3639.452     4300.773     78.00768     155.8911     312.0617      1.819     5.72      847.392     55.02784     260.8925        19     1.523     0.828  54.47   0
       495    852.3703    246.9081 307.5713108  +6.5997212     1744.766     2755.745     3131.481     78.37943     155.8911     312.0928      1.629     4.14     840.3114     55.02784     267.3928        16     1.463     0.679  49.19   0
       496    742.8684    246.2039 307.6168408  +6.5963505     1623.837     2496.903     2352.826     77.63412     155.7667     311.9686      1.644     4.61     840.8846     55.02784     241.7009        16     1.457     0.686  51.26   0
       497    232.1193    241.3032 307.8292527  +6.5812407     539.4292     725.0002     908.4698     78.00767     156.4495      312.248      1.395     4.34     846.4926     55.02784     112.2982         6     1.203     0.445  49.15   0
       498    267.0965    240.1403 307.8147575  +6.5828966     574.2404     841.4271     1179.926     78.00767     156.1395      312.279      1.345     4.40     845.4285     55.02784     119.7083         6     1.555     0.355  49.51   0
       499    443.6309    237.6488 307.7414823  +6.5898542     21516.18     35079.28     36984.33     77.88335     156.1395     312.0928      1.770     4.31     840.5202     55.02784     2745.493        50     1.695     1.072  51.66   0
       500    769.7067    236.8685 307.6060017  +6.6011003     12590.23     20135.97     22024.79     78.13179     156.2636     312.2169      1.706     4.42      840.384     55.02784     1768.997        52     1.679     1.192  41.96   0
       501    449.3109    232.1982 307.7393059  +6.5922939     1274.605     2216.105     3048.951     77.50922     155.7667     311.9686      1.892     4.61     840.0992     55.02784     186.3055        17     1.494     0.769  41.71   0
       502    131.8946    230.8126 307.8712555  +6.5821970     2188.072     3479.094     3590.835     78.00767     155.8911     312.0307      1.732     4.83     849.1527     55.02784      263.929        23     1.610     0.920  54.55   0
       503    106.4772    229.8954 307.8818485  +6.5817197      1060.32     1859.343     2085.117     78.00767     156.2636      312.248      2.001     6.76     849.6674     55.02784     143.4311        17     1.559     0.825  50.61   0
       504    906.2322    227.4345 307.5495815  +6.6095562     1485.338     2559.396     2930.287     77.88335     155.8911     311.9375      1.764     6.32     838.4097     55.02784     198.5688        18     1.834     0.656  50.78   0
       505    708.3471    232.4899 307.6316487  +6.6008542     687.7432     967.2563     1009.292     78.25571     155.9532       312.31      1.735     4.37     840.2009     55.02784     92.90222         7     1.027     0.528  60.53   0
       506    158.0606    228.5825 307.8604579  +6.5839980     457.7542     765.2288     728.1205     77.88335     156.0774     311.9996      2.167     4.53       848.58     55.02784     78.06543         5     0.984     0.594 -76.61   0
       507    288.3857    224.3947 307.8064433  +6.5901092     1070.474     1647.095     1333.326     77.88335     155.8289     312.0307      1.642     4.84     844.7917     55.02784     159.9766        15     1.438     0.761  58.03   0
       508    567.6754    223.3263 307.6904170  +6.5999241     4458.544     7112.799       7071.9     78.50296     156.3875      312.248      1.732     4.43     838.6392     55.02784     553.7869        28     1.624     0.915  53.28   0
       509    530.2770    223.4505 307.7059545  +6.5986192     2050.385     3305.763     3201.191     78.25571     156.2016     312.1549      1.721     4.32     838.3971     55.02784     288.6262        22     1.510     0.848  48.58   0
       510    372.1970    222.4124 307.7716820  +6.5937430     1348.341     2165.025     2267.881     77.88335     155.8289     312.0617      1.760     5.31     842.6509     55.02784     179.9052        17     1.552     0.753  54.02   0
       511    874.7096    220.0741 307.5629294  +6.6115404     11010.02     16997.23     17621.52     78.25571     156.3875     312.2169      1.656     4.60     838.6984     55.02784     1568.484        40     1.602     0.989  51.92   0
       512    928.5490    220.6002 307.5405366  +6.6131215     2664.779     4357.416     4294.263     77.50922     155.6422     311.7511      1.746     4.33     837.6899     55.02784     408.2542        23     1.471     0.873  53.46   0
       513    672.6993    217.9821 307.6469519  +6.6056474     2630.981     4269.769     4474.174     78.25571     156.0153     311.9375      1.715     4.77     839.8104     55.02784       387.55        24     1.739     0.896  63.11   0
       514    302.4837    220.8150 307.8007059  +6.5920601     916.8704     1668.517     1536.645     77.88335     155.8289     312.0617      2.013     5.62     844.4387     55.02784     111.9686        12     1.232     0.787  52.79   0
       515    549.6016    219.8248 307.6980461  +6.6007632     775.2019     1399.294     1624.973     77.88335     155.8289     311.9686      1.872     5.26     838.3948     55.02784     116.4227        10     1.255     0.622  56.13   0
       516    193.6105    220.0334 307.8459748  +6.5887217     649.8903     909.8184     763.2093     77.75884     155.9532     312.0307      1.647     6.15     847.1536     55.02784     143.9272         9     1.657     0.642  44.92   0
       517    961.3851    217.9703 307.5269786  +6.6153030     9404.989      14691.9     15014.71     77.88335     155.8911     312.1238      1.634     4.29     837.2661     55.02784     1389.201        33     1.607     0.891  50.17   0
       518      1.7364    216.9182 307.9258120  +6.5835454     18948.22      24803.8      25451.2     73.00269     130.1452     241.3609      1.343     3.85     851.6251     55.02784     3061.882        30     1.413     0.815  81.25  24
       519    246.9411    217.4980 307.8238990  +6.5915617     1248.642     1955.602     1746.647     78.00767     156.0774       312.31      1.594     4.59     845.6094     55.02784     176.8709        15     1.420     0.701  36.51   0
       520    481.1460    212.4420 307.7267434  +6.6015139     1963.254     3246.311     3681.382     78.13179     156.2016     312.1859      1.877     6.33     838.0515     55.02784     252.8347        22     1.777     0.857  55.03   0
       521    813.2755    209.6415 307.5888115  +6.6137921     1869.212     3093.975     3460.026     78.13179     156.1395     312.2169      1.771     4.54     839.1751     55.02784     283.6088        15     1.474     0.683  56.08   0
       522    865.7543    208.7151 307.5670331  +6.6159283       1980.2      3290.45     3743.759     78.25571     156.0774     312.1859      1.696     5.15     838.3019     55.02784     260.7109        19     1.530     0.809  47.03   0
       523    781.6460    209.8117 307.6019506  +6.6126642     344.8587     619.8615     555.4113     77.75884     155.9532     311.9064      1.598     4.93      839.426     55.02784     63.79645         5     1.092     0.630  27.72   0
       524    493.3950    208.5650 307.7217839  +6.6035245     2299.198     3863.325     3896.307     77.50922     155.9532     311.9686      1.809     4.87     837.9981     55.02784     273.0378        23     1.652     0.863  46.09   0
       525    724.8844    205.9878 307.6256687  +6.6123433     38516.65     60508.29     63390.21     77.88335     155.9532     312.0307      1.654     4.31     839.4864     55.02784     5287.479        63     1.699     1.051  49.76   0
       526    327.9953    205.2911 307.7906292  +6.5993229     5356.534      11923.2     13181.54     77.88335     155.8289     311.9064      2.279     6.26     843.6479     55.02784     584.7849        49     2.020     1.318  84.26   0
       527    958.8322    204.9247 307.5284779  +6.6206009     2786.011     4359.214     4497.968     78.13179     156.2016     312.1549      1.601     4.37      836.739     55.02784      427.047        20     1.411     0.774  47.63   0
       528    892.8398    203.1515 307.5559636  +6.6191289     7548.202     11441.62     11938.58     78.13179     156.1395     312.0928      1.600     4.27     837.5019     55.02784      1067.76        30     1.626     0.836  52.87   0
       529    996.9423    203.4494 307.5126890  +6.6224816     1745.126     2589.244     2485.052     78.25571     156.1395      312.248      1.524     4.63     836.4066     55.02784     263.9639        18     1.542     0.694  47.09   0
       530    436.2266    202.0563 307.7457612  +6.6042921     4694.146     7859.764     8120.237     77.88335     156.2016     312.0307      1.756     4.48     839.5452     55.02784      586.406        30     1.672     0.919  54.94   0
       531    210.5029    198.4289 307.8396864  +6.5982045     765.9354      1138.11     1200.528     78.37943     155.8911     312.1859      1.638     5.33     846.3226     55.02784     104.0801        11     1.514     0.529  50.15   0
       532     93.6132    193.3410 307.8884326  +6.5963694     4536.684     7531.553     7460.347     77.63413     156.0774     311.8754      1.740     4.26     848.8781     55.02784     568.1671        29     1.621     0.936  52.47   0
       533    264.0001    190.0763 307.8177377  +6.6034500     31603.05     51941.56     55071.79     77.50922     155.5177     311.9686      1.730     4.27     845.0414     55.02784     4076.633        64     1.762     1.119  51.67   0
       534    913.3570    192.9316 307.5477803  +6.6240313     885.8971      1592.78      2065.17     78.25571     156.0774      312.279      2.146     5.78     836.6609     55.02784     131.5616        12     1.484     0.635  32.59   0
       535    239.3600    191.1104 307.8279423  +6.6021948     6225.647     10198.26     11286.51     78.25571     156.1395     312.2169      1.783     4.21     845.6349     55.02784      797.259        34     1.636     1.011  50.27   0
       536    589.8054    191.5216 307.6822929  +6.6137893     575.1301     1060.625     1093.466     77.88335     155.6422     311.9686      2.027     5.90     838.0242     55.02784     75.09174        10     1.289     0.760  41.14   0
       537    693.2582    189.5385 307.6393662  +6.6180724     829.6444     1116.397     900.9452     78.37943     156.0774     312.2169      1.556     5.67     839.1239     55.02784     155.3787        10     1.594     0.568  51.29   0
       538    388.0798    185.6070 307.7663253  +6.6094632     47039.03     76904.91      81052.2     77.88335     155.7045     311.9686      1.740     4.19      841.009     55.02784     6000.926        74     1.747     1.166  52.07   0
       539    144.0154    186.7874 307.8677099  +6.6007706     3931.213      6488.71     6667.077     78.13179     155.8289     312.1238      1.756     4.28     847.5052     55.02784     484.9877        28     1.544     0.969  52.70   0
       540    405.3553    185.9826 307.7591333  +6.6098883     1420.853     2221.534     2399.047     77.88335     156.0153     311.9375      1.602     4.46     840.1395     55.02784     216.4639        15     1.429     0.683  64.50   0
       541    292.1062    183.3039 307.8062869  +6.6071893     17309.44     28313.81     30721.34     78.25571      156.697     312.1238      1.748     4.22      844.312     55.02784     2200.982        50     1.675     1.120  52.21   2
       542    299.5719    183.3742 307.8031820  +6.6074112     2036.556     3498.362     4709.861     77.75884     155.9532     312.0617      2.149     6.73     844.1086     55.02784     276.2904        28     1.941     1.237 -80.58   2
       543    727.3528    181.8944 307.6254542  +6.6223677        32037     50191.51     52513.16     78.13179     156.0774       312.31      1.658     4.20     838.8661     55.02784     4535.788        60     1.688     1.031  50.91   0
       544    559.0153    185.3131 307.6952981  +6.6153192     573.8095     850.1238     954.6194     77.88335     155.8911     312.0928      1.377     3.35     837.5812     55.02784     116.9204         5     0.813     0.399  19.48   0
       545    775.8854    182.4678 307.6052650  +6.6237546       1310.7     1915.678     2258.715     78.50296     156.3875     312.2169      1.645     6.04     838.7897     55.02784     167.9375        14     1.471     0.707  51.26   0
       546    675.5837    183.6142 307.6469111  +6.6199253     1053.411     1560.715     1365.728     78.00768     155.8289     312.1238      1.505     4.95     839.0084     55.02784     173.7371        10     1.246     0.557  49.53   0
       547     44.1957    178.9505 307.9094558  +6.6006423     8773.566     14759.99     15464.72     77.63412     155.9532     311.8443      1.752     4.25     849.8113     55.02784     1098.745        39     1.638     1.077  50.78   0
       548     78.1142    177.0533 307.8954252  +6.6025679     1373.296     2093.117     1857.804     78.25571     156.0774     312.3411      1.573     4.42      848.856     55.02784     207.8226        15     1.317     0.758  55.98   0
       549    986.0630    176.6137 307.5181118  +6.6331920     1018.483      1440.41     1090.661     77.75884     155.9532     312.0307      1.451     3.64     835.4983     55.02784     155.1736        12     0.999     0.892  35.45   0
       550    953.6387    175.3172 307.5316311  +6.6326447      498.158     781.0511     549.8002     78.25571     156.0774     312.1549      1.291     4.30     835.4927     55.02784     110.0084         6     1.537     0.343  65.56   0
       551    987.0448    163.0289 307.5181601  +6.6388304     2096.007     3458.759     3959.873     77.88335     156.2016     312.0928      1.842     7.67     834.9701     55.02784     304.3742        23     2.001     0.843  63.76   0
       552    561.4107    166.5621 307.6949351  +6.6231367     771.8016     1057.942     1021.509     77.63413     155.9532     311.8754      1.548     4.11     837.1356     55.02784     136.6785         7     1.287     0.376  37.00   0
       553    570.0425    160.2798 307.6915597  +6.6260183     1038.734     1794.892     1677.409     78.25571     156.1395     312.1549      1.875     5.30       837.02     55.02784     132.8837        11     1.083     0.732  69.26   0
       554    578.0236    158.1351 307.6883152  +6.6271708     1920.712      2887.81     3043.596     77.88335     156.1395     312.0928      1.590     4.94     837.0177     55.02784     295.2249        19     1.608     0.713  57.06   0
       555    262.9341    156.3648 307.8193212  +6.6173242     29202.56     47576.15      50299.9     78.13179     156.1395      312.248      1.746     4.12     844.7918     55.02784     3780.393        61     1.723     1.129  53.14   0
       556    321.9306    158.3055 307.7947380  +6.6185064     991.3586     1473.527     1613.059     78.13179     156.2016     312.2169      1.675     5.32     843.2877     55.02784     133.2288        11     1.244     0.642  49.89   0
       557    172.0793    154.4701 307.8571420  +6.6150498     884.3111     1376.685     810.6492     78.50296     156.3875     312.1549      1.716     5.97     845.9658     55.02784     120.5673        13     1.448     0.758  78.89   0
       558    694.6423    153.0514 307.6400201  +6.6331745     7960.912     12346.38     13067.59     78.25571     156.1395     312.1859      1.669     4.61     837.8493     55.02784     1093.876        35     1.602     0.951  49.16   0
       559      8.1946    154.9820 307.9252289  +6.6093186     4139.772     7137.284     8188.454     77.88335     155.7667     311.3779      1.872     4.26     850.4313     55.02784     525.7357        37     1.734     1.227  64.24  16
       560    105.3589    150.0540 307.8850183  +6.6146258     4624.061     7339.789     7481.994     78.13179     156.1395      312.248      1.703     4.31     847.3353     55.02784     580.6698        29     1.605     0.930  48.10   0
       561    566.8948    148.1476 307.6932771  +6.6309189     761.6349     1331.508     1576.859     78.13179     156.0774     312.4341      1.952     5.18      836.637     55.02784     160.3232        10     1.574     0.630  21.23   0
       562    633.1527    147.1109 307.6657754  +6.6335668      800.696     1124.114     1362.062     78.25571     156.0153     312.3411      1.653     6.19     837.1122     55.02784     105.8438        13     1.503     0.715  46.61   0
       563    444.2016    147.1189 307.7443023  +6.6272284     1264.418     2015.689     2180.398     77.50922     155.7045     311.9064      1.826     5.99     837.4793     55.02784     167.3304        17     1.557     0.746  48.74   0
       564    376.0508    146.2742 307.7726534  +6.6252889     3786.241      6533.58     6794.817     78.25571     156.2016     312.2169      1.870     4.80       840.89     55.02784     491.5255        28     1.700     0.925  50.53   0
       565    552.7950    146.0695 307.6992071  +6.6313038     608.9802     1128.079     1146.764     77.75884     155.7667     312.0307      2.003     6.85     836.4948     55.02784     86.22522         8     1.427     0.922 -76.03   0
       566    340.3584    145.0211 307.7875290  +6.6246070     3113.093     5124.038     5515.643     77.88335     155.9532     312.0307      1.763     4.60     842.7875     55.02784     424.8286        26     1.544     0.958  52.28   0
       567     94.8841    144.8178 307.8895488  +6.6164335     1679.624     2698.658     2561.155     77.88335     155.8289     312.1238      1.710     4.28     847.4445     55.02784     228.6794        18     1.377     0.829  47.72   0
       568    656.7139    142.6456 307.6561338  +6.6361984     712.6267     1088.805     1364.179     78.25571     156.0153     312.1859      1.640     4.58     837.1298     55.02784     142.7765         9     1.247     0.498  51.56   0
       569    987.4036    139.3450 307.5188065  +6.6486152     1485.293     2388.761     2298.437     77.63413     155.9532     311.8754      1.733     5.06     833.0809     55.02784     218.2755        15     1.463     0.674  61.09   0
       570    712.8406    138.8893 307.6329339  +6.6396273     501.6877     798.3086     599.1057     78.25571     156.0774     312.2169      1.604     4.49     836.7498     55.02784     82.12561         5     0.819     0.698 -39.53   0
       571    192.3616    133.8596 307.8494111  +6.6242366     5243.024     8493.086      8860.51     78.25571     156.2016     312.2169      1.741     4.31     845.5425     55.02784     646.7261        30     1.625     0.931  53.43   0
       572    831.1380    133.9655 307.5839339  +6.6456158     430.5379     710.7595     1004.635     78.13179     156.2016     312.1549      2.058     7.07     835.3281     55.02784      94.5918         8     1.667     0.841  64.83   0
       573    654.1064    132.8050 307.6575492  +6.6401716     6093.173     9439.922     9628.609     77.88335     155.8289     311.9375      1.630     4.15     836.5283     55.02784     827.7979        27     1.547     0.870  52.86   0
       574     75.0272    133.6408 307.8981795  +6.6203764     2015.459     3252.831     3502.431     77.88335     155.9532     312.0307      1.709     4.87     847.8694     55.02784     264.1469        19     1.512     0.805  53.55   0
       575    802.6360    132.7835 307.5958195  +6.6451506      1016.62     1638.101     1635.096     77.88335     155.8911     311.9686      1.655     5.80     835.9192     55.02784     133.6288        14     1.540     0.729  28.49   0
       576    606.2537    129.9650 307.6775328  +6.6397406     9098.123     14887.87     16800.85     78.13179     156.1395     312.2169      1.770     4.42     836.2504     55.02784     1231.453        38     1.664     1.020  52.84   2
       577    609.8264    121.5584 307.6763314  +6.6433291     51379.94     81694.16     86052.62     77.88335     156.0774     312.0307      1.720     4.29     835.9799     55.02784     6731.052        69     1.740     1.081  51.57   2
       578    240.6752    130.5478 307.8294451  +6.6272283      650.719     946.3231     412.7584     78.25571     156.2016     312.1859      1.715     5.55     845.0684     55.02784     95.14374         8     1.260     0.690  34.37   0
       579    544.0007    129.4825 307.7034215  +6.6378532     667.1996      1236.74     1674.353     77.50922     155.6422     311.8754      1.787     5.14     835.9886     55.02784     105.2747         7     1.239     0.603  35.47   0
       580      5.0567    129.1748 307.9274082  +6.6198612     838.2499      1525.29     1541.888     77.88335     156.1395     286.2463      1.772     6.39     850.5829     55.02784     105.4241        11     1.240     0.925   9.41  16
       581    333.5363    125.8246 307.7910131  +6.6322987     3417.687     6064.209     6966.489     77.88335     156.1395     312.1238      2.017     4.73     842.8628     55.02784     438.1729        37     1.690     1.300  71.86   0
       582    514.9501    124.8517 307.7156513  +6.6387899     1567.097     2518.055     2637.463     78.37943     156.0153     312.1549      1.711     4.89     836.0972     55.02784     224.3783        20     1.588     0.843  45.99   0
       583    979.6606    124.5420 307.5225220  +6.6544651     820.2927     1296.555     1541.505     78.37943     156.0774     312.2169      1.694     5.22     832.1339     55.02784     135.2027        10     1.248     0.617  44.72   0
       584    289.0810    115.3403 307.8098428  +6.6351307     3524.241     5856.806     6641.255     78.37943     156.1395     312.1859      1.815     4.30     843.6399     55.02784     442.3932        26     1.619     0.892  51.68   0
       585    660.3157    109.0347 307.6557697  +6.6501878     1294.584     2127.104     1977.857     78.25571     156.0774     312.1549      1.711     4.88     835.0956     55.02784     209.4424        13     1.372     0.675  62.79   0
       586    688.7059    109.2801 307.6439620  +6.6510372     852.2841     1569.479     1735.608     78.00768     156.3875      312.248      2.051     6.22     834.8112     55.02784     119.6929        12     1.466     0.778  50.87   0
       587    674.1944    105.5007 307.6501205  +6.6521108     3349.274      5035.77     4951.592     78.00768     155.7667     311.8754      1.583     3.65     834.7732     55.02784     453.3892        23     1.403     0.926  55.21   0
       588    550.9877    106.2434 307.7013018  +6.6476765      398.507     664.3655     781.1181     77.75884     156.0153     311.9064      1.821     5.01     835.3582     55.02784     64.32526         5     1.197     0.593  78.85   0
       589    416.0306     96.4755 307.7577207  +6.6471794     3861.899     6060.449     5886.143     78.13179     156.2016     312.1859      1.718     4.55     837.1617     55.02784     503.2836        23     1.517     0.864  54.47   0
       590    888.4963     92.0246 307.5615053  +6.6648388     3876.425     5970.806     6004.391     78.37943     155.8911     312.0617      1.627     4.31     832.5887     55.02784      547.549        25     1.561     0.807  49.58   0
       591    870.5435     92.9519 307.5689358  +6.6638563     2130.778     3332.733     3418.424     78.25571     156.1395      312.279      1.655     4.31     832.6337     55.02784     318.3812        18     1.435     0.758  47.60   0
       592      1.6488     92.0962 307.9300821  +6.6350452     461.0832     851.8452      2181.19     71.66307     128.6475     240.2342      2.755     3.96     850.3301     55.02784     75.49182         6     1.076     0.418  76.51  25
       593    580.7416     90.4481 307.6894685  +6.6551914      1834.13     2729.775     2666.322     78.25571     156.1395      312.279      1.551     4.27     835.0004     55.02784     246.6828        17     1.460     0.707  52.60   0
       594    226.5151     89.8203 307.8367082  +6.6435569     845.9053     1335.035     1370.497     77.88335     155.8289     312.1238      1.714     6.23     845.0038     55.02784     133.8146        12     1.323     0.824  54.55   0
       595    379.6338     88.2864 307.7731241  +6.6493363     1855.049       2922.2     2780.815     78.25571     156.0153     312.1859      1.693     4.50     840.1235     55.02784     277.4741        19     1.494     0.826  52.66   0
       596    127.2173     85.1828 307.8781325  +6.6421286     2993.527     5105.073     5538.735     78.00767     155.8289     312.1238      1.819     4.33     845.1315     55.02784     383.8333        28     1.572     1.025  52.87   0
       597      9.1530     82.9949 307.9272723  +6.6390535     11638.51     19417.27     21426.01     77.63412     155.9532     311.8754      1.767     4.37     849.1726     55.02784     1446.046        43     1.658     1.064  53.07  16
       598    275.4849     83.9009 307.8165568  +6.6476462      1327.91     2107.268     2672.561     78.25571     156.6352      312.248      1.832     4.81     843.7762     55.02784     207.5035        14     1.325     0.839  51.72   0
       599    744.2239     82.4594 307.6217909  +6.6639623     707.4332     1471.687     2162.683     77.88335     156.1395     312.0307      3.266     4.98     832.9724     55.02784     107.4334         9     1.368     0.513  64.65   2
       600    549.0042     82.7343 307.7029193  +6.6573105     730.3875     1114.938     837.5875     77.63412     155.8911     311.9375      1.513     5.60     834.9022     55.02784     111.0295         9     1.443     0.612  38.18   0
       601    536.3298     82.6131 307.7081911  +6.6569356     746.6341     978.5388     1121.538     77.75884     155.8911     312.0617      1.605     6.20     835.0022     55.02784     91.24792         9     1.226     0.881  41.18   0
       602    810.8744     77.7529 307.5942475  +6.6681335     6140.788     9337.426     9783.284     78.13179     156.2016     312.1859      1.615     4.14     832.5246     55.02784     922.9145        30     1.624     0.839  51.38   0
       603    755.9963     78.1501 307.6170431  +6.6661343     3110.366     4739.115     5137.913     77.63412     155.8911     311.7821      1.576     4.16     832.8119     55.02784     443.2349        19     1.471     0.744  52.96   0
       604    877.9951     78.4369 307.5663268  +6.6700947     751.1349     1165.548     580.6557     77.38409     155.8911     311.9996      1.616     5.17      832.308     55.02784     109.1282         8     1.168     0.647  63.15   0
       605    401.0622     78.2513 307.7645574  +6.6541966     1070.526     1493.333      1413.52     78.25571     156.0774     312.1859      1.622     5.43     838.3575     55.02784     132.1506        12     1.403     0.719  54.27   0
       606     81.0328     79.0108 307.8975354  +6.6431197     528.2273     676.4607     751.8081     77.75884     155.8911     312.0307      1.338     3.70     846.0912     55.02784     75.80035         5     1.004     0.393  59.80   0
       607    901.8727     76.9012 307.5564541  +6.6715261     397.3105     635.6342     544.8478     78.00767     156.2636     312.1859      1.586     3.94     832.1971     55.02784      77.9198         5     1.356     0.327  58.45   0
       608    518.1787     75.9062 307.7159614  +6.6590943     1130.012     1918.662     2166.787     78.13179     155.9532     312.0307      1.752     4.46     835.0685     55.02784     161.1292        14     1.270     0.875  57.73   0
       609     33.6124     75.7028 307.9173547  +6.6428867     891.4016     1351.443     1652.439     78.00768     155.8911     311.9686      1.878     6.50     847.6539     55.02784       113.64        13     1.487     0.796  49.12   0
       610     49.5495     74.9061 307.9107585  +6.6437526      3226.75     5228.007     5186.806     78.13179     156.0153     312.3721      1.719     4.22      847.032     55.02784     416.5351        26     1.500     0.958  44.07   0
       611    410.6163     74.1977 307.7607235  +6.6561900     945.7833     1569.223     1370.438     77.88335     155.7667     311.9996      1.915     6.13     837.5519     55.02784     118.3726        11     1.265     0.834  56.34   0
       612    573.3599     71.4870 307.6931761  +6.6627679     1267.169     1975.638     1795.607     78.25571     156.0774     312.2169      1.680     4.57     834.7191     55.02784     177.3872        12     1.321     0.635  35.08   0
       613    750.4950     65.5032 307.6197555  +6.6711687     2112.249     3478.575     3552.525     78.25571      156.697     312.0307      1.721     4.72     832.5706     55.02784     284.1132        21     1.575     0.795  51.03   0
       614    391.2950     65.5635 307.7690455  +6.6591038     995.0728     1674.828     1244.273     78.37943     156.0153       312.31      1.662     5.51     839.0852     55.02784     132.5004        12     1.413     0.606  44.97   0
       615     88.5910     64.6643 307.8948805  +6.6492939     913.5861     1454.258     1830.352     77.75884     155.9532     312.0617      1.760     4.00     845.4349     55.02784     180.4877        12     1.171     0.784  77.58   0
       616     64.3487     65.9428 307.9049120  +6.6479496      794.002      1194.97     965.8652     78.25571     156.1395     312.1859      1.623     4.22     846.1371     55.02784     136.5892         7     0.939     0.541  56.44   0
       617     77.2792     59.1644 307.8997681  +6.6511821     9061.148     14873.11     15592.55     78.13179     156.2016     312.1859      1.743     4.28     845.5391     55.02784     1136.241        38     1.646     1.021  55.80   0
       618    406.3880     59.0357 307.7629932  +6.6623042     2445.125     3875.578     4009.344     77.75884     155.9532     311.9686      1.690     4.26     837.9091     55.02784     335.2473        26     1.672     0.918  47.31   0
       619    243.8343     53.1395 307.8307518  +6.6592745     1330.919       2296.4      2709.95     78.13179     156.1395     312.1549      2.070     5.47     844.4307     55.02784     193.8373        18     1.696     0.708  52.08   3
       620    238.2112     47.8076 307.8332692  +6.6612854     1796.814     2886.265     3521.485     77.88335     155.9532     312.0928      1.861     4.48     844.5429     55.02784     233.7401        19     1.474     0.816  47.18   3
       621    620.0121     51.2797 307.6744677  +6.6726693      17700.4      27877.1     29660.37     77.88335     155.8289     312.0307      1.655     4.20     834.1672     55.02784     2425.074        41     1.624     0.976  50.54   0
       622    519.7396     47.2946 307.7162783  +6.6709525     5000.426     8063.182     8491.257     78.13179     156.1395      312.279      1.722     4.20      834.511     55.02784     634.4326        30     1.624     0.950  46.04   0
       623    676.0230     46.6991 307.6513421  +6.6764353     510.0501     704.9366     1173.474     78.37943     155.8911     311.9686      1.722     4.29     832.9199     55.02784     86.22803         5     1.110     0.472  65.56   0
       624    606.3230     41.8883 307.6804740  +6.6760858     3045.191     5565.731     6283.107     78.25571     156.4495      312.248      2.076     6.40     834.2624     55.02784     452.2092        33     2.241     0.907  65.24   0
       625    425.3409     42.9080 307.7556609  +6.6695951     21558.32     34830.13     36226.71     78.13179     156.0774       312.31      1.726     4.27     836.7692     55.02784     2716.812        55     1.725     1.062  53.06   0
       626    245.9374     43.3289 307.8302098  +6.6633933     8893.032     14411.64     15847.54     78.25571     156.1395      312.248      1.744     4.09     844.3497     55.02784     1173.509        39     1.636     1.036  54.08   0
       627    305.5780     43.4200 307.8054193  +6.6653609     1008.309     1693.995     1600.648     78.00768     156.0153     312.1238      1.644     5.53     842.9626     55.02784     156.1761        13     1.350     0.831  68.59   0
       628    903.1793     42.8149 307.5570572  +6.6856349     1902.313     2911.725     2667.201     78.00767     155.8911     312.0928      1.520     4.73     831.3469     55.02784     283.9548        17     1.473     0.729  51.45   0
       629     11.3198     42.7059 307.9277384  +6.6557501     2173.847     3491.866     3771.909     78.00768     156.3875      312.248      1.707     4.18      845.518     55.02784       301.09        21     1.472     0.831  47.34   0
       630    538.3963     42.6664 307.7086803  +6.6734879     692.0378     1054.667     594.9148     77.63413     155.8289     311.9686      1.705     5.70     834.3564     55.02784     86.64673         9     1.324     0.691  34.64   0
       631    233.8658     39.7685 307.8353473  +6.6644563      2771.14     4706.239     5144.111     78.00767     156.2016     312.1238      1.871     4.67     844.5931     55.02784     331.3801        27     1.679     0.934  48.73   0
       632    286.7899     37.7894 307.8134184  +6.6670526     948.2333     1736.641     2081.144     77.88335     155.9532     312.1549      2.025     6.38     843.4694     55.02784     129.6946        13     1.416     0.808  53.28   0
       633    923.7479     33.1304 307.5488334  +6.6903180     910.7253      1317.83     1026.754     78.13179     156.0153     312.1549      1.661     4.93     830.8789     55.02784     133.7736         8     1.217     0.564  42.44   0
       634    675.1983     32.4732 307.6521643  +6.6822777      1724.19     2668.092      2644.72     77.75884     155.6422     312.0617      1.665     4.39     832.5647     55.02784     241.6237        15     1.350     0.729  46.16   0
       635    186.5297     28.2812 307.8554097  +6.6676035      743.538     1072.976     685.4642     78.50296     156.4495     312.2169      1.613     4.13      844.239     55.02784     105.5753         7     1.071     0.455  77.75   0
       636    241.2381     27.5176 307.8326980  +6.6697592     718.5247     1293.634     1784.856     78.25571     156.2016     312.1549      2.088     6.57     844.3961     55.02784     111.6446         8     1.491     0.817  50.42   0
       637    700.9313   1019.7574 307.6082307  +6.2757483     2625.171      4495.16     4580.163     78.25571     156.0774     288.6398      1.761     4.67     865.6008     55.02784     313.4813        24     1.532     0.954  53.89  16
       638    908.9253     23.0831 307.5553323  +6.6939688     3999.864      6085.75     6290.355     78.37943     156.4495      312.248      1.636     4.56     830.7773     55.02784     606.8857        28     1.616     0.875  50.99   0
       639    507.7739     23.6517 307.7220497  +6.6803068     2763.689     4238.255     4164.125     77.88335     156.2636     312.0928      1.639     3.87     834.1007     55.02784     384.9884        25     1.556     0.911  45.10   0
       640    709.8204     21.7712 307.6381345  +6.6878527      1909.53     2982.298     2683.334     77.75884     155.9532     312.0928      1.571     4.37     831.9236     55.02784     254.1605        19     1.461     0.822  50.83   0
       641    445.8345     22.0172 307.7478489  +6.6789030     1769.414     2863.028      2932.26     77.88335     155.9532     312.0307      1.680     4.47     835.7225     55.02784     238.3889        16     1.346     0.786  51.16   0
       642    424.0739   1020.7276 307.7231786  +6.2660744     853.1325     1233.513     1576.468     78.50296     155.6422     277.3054      1.509     5.60     866.8663     55.02784     126.6057        12     1.281     0.689  46.50  16
       643    768.6295     18.4479 307.6138025  +6.6911918     502.4799     740.1533     577.0128     77.88335     156.2016     312.0928      1.420     3.65     831.3878     55.02784     84.73346         5     1.408     0.273  45.21   0
       644    717.0004   1019.3436 307.6015709  +6.2764566     922.9583     1326.958      1988.12     77.50922     155.7667     292.5081      1.544     4.42     865.5104     55.02784     143.5809         9     0.957     0.674  60.78  16
       645    347.5685   1017.0032 307.7550766  +6.2650441     1762.548     2767.049      3030.87     77.63412     155.9532     310.5677      1.693     4.47     866.7115     55.02784     239.4813        18     1.447     0.825  52.56  16
       646    500.3743   1008.5903 307.6919001  +6.2736409     1259.628     1995.659     2306.959     77.88335     155.9532     312.0617      1.811     6.06     866.6058     55.02784     148.1958        17     1.285     0.993  37.81   0
       647    280.0028   1006.1057 307.7835043  +6.2672721     14104.74     23473.34     25459.08     77.88335     155.8289     311.9064      1.769     4.40     866.7335     55.02784     1795.108        51     1.727     1.144  58.43   2
       648    284.8299   1003.5883 307.7815847  +6.2684729     970.4037     1634.431     2234.184     77.75884     155.8911     312.0617      1.929     5.72     866.7505     55.02784     120.0191        11     1.156     0.798  58.70   3
       649    734.5319   1006.8591 307.5947096  +6.2821945     7511.481     12246.35     13297.75     78.37943     156.0774     312.1859      1.737     4.18     865.1528     55.02784     989.5335        36     1.656     1.000  50.52   0
       650    572.5139   1008.8654 307.6619306  +6.2759444     497.0955     662.8092     1046.465     78.25571     156.3256     312.2169      1.531     3.39     866.0184     55.02784     89.70819         5     1.261     0.264  35.17   0
       651    529.9207   1007.3835 307.6796699  +6.2751290     3905.605     6720.118     7373.475     77.88335     155.8911     312.0928      1.834     4.26     866.2536     55.02784     513.5409        31     1.548     1.098  46.85   3
       652    527.1420    999.5408 307.6810882  +6.2782721     8085.813     13251.48     14777.37     78.25571     156.0774     312.2169      1.803     4.26      866.144     55.02784     1037.106        41     1.759     1.022  55.34   3
       653    795.6277   1006.3430 307.5693527  +6.2844499     1119.022     1971.398     1995.957     77.88335     156.2016     312.0928      1.818     4.60      863.135     55.02784     150.0482        16     1.390     0.794  65.07   0
       654    404.5028   1006.7084 307.7317794  +6.2712026     876.8406     1462.143     1524.639     78.25571     156.6352     312.1549      1.534     5.00     866.7385     55.02784     137.4039        10     1.345     0.554  57.44   0
       655    251.4559   1003.5938 307.7954445  +6.2673496     874.6375     1599.961     1465.453     77.75884     156.0153     311.9064      1.871     6.71     866.5121     55.02784     116.1063        14     1.686     0.749  54.80   0
       656    895.8982   1000.4139 307.5279070  +6.2902459     7703.307     13485.13      14326.7     78.13179     155.8911     311.9375      1.884     4.48     862.5066     55.02784     917.0723        43     1.811     1.096  53.20   0
       657    869.4701    996.5221 307.5390140  +6.2909693     11529.73     19795.47     21681.92     78.50297     156.3875     312.1549      1.903     4.45     862.5873     55.02784     1403.085        56     1.825     1.275  46.21   0
       658    991.2051    995.9120 307.4884742  +6.2952841     4342.369     7700.534     8344.596     77.75884     155.8289     311.9064      1.901     4.48     858.5434     55.02784     499.0476        33     1.660     1.086  51.87   0
