#   1 NUMBER                 Running object number                                     
#   2 X_IMAGE                Object position along x                                    [pixel]
#   3 Y_IMAGE                Object position along y                                    [pixel]
#   4 ALPHA_J2000            Right ascension of barycenter (J2000)                      [deg]
#   5 DELTA_J2000            Declination of barycenter (J2000)                          [deg]
#   6 FLUX_APER              Flux vector within fixed circular aperture(s)              [count]
#   9 FLUXERR_APER           RMS error vector for aperture flux(es)                     [count]
#  12 FLUX_RADIUS            Fraction-of-light radii                                    [pixel]
#  13 FWHM_IMAGE             FWHM assuming a gaussian core                              [pixel]
#  14 BACKGROUND             Background at centroid position                            [count]
#  15 THRESHOLD              Detection threshold above background                       [count]
#  16 FLUX_MAX               Peak flux above background                                 [count]
#  17 ISOAREA_IMAGE          Isophotal area above Analysis threshold                    [pixel**2]
#  18 A_IMAGE                Profile RMS along major axis                               [pixel]
#  19 B_IMAGE                Profile RMS along minor axis                               [pixel]
#  20 THETA_IMAGE            Position angle (CCW/x)                                     [deg]
#  21 FLAGS                  Extraction flags                                          
         1    604.8784     28.7652 307.6753225  +6.6715651     6106.562     13274.97     17271.79      93.2989     186.5237     372.8252      2.529    11.48     1217.661     65.70996     607.1499        47     2.834     1.296  76.52   3
         2    608.3942     26.8007 307.6739239  +6.6724931     5567.991     11401.26     13734.07     92.70464     186.0787     372.5656      2.192     7.11      1217.56     65.70996     599.2246        35     2.025     1.187  73.08   3
         3    506.2188     24.4249 307.7165932  +6.6700806     1741.734      5324.44     8124.161     92.85355      186.153      372.714      3.475    11.06     1221.472     65.70996     197.1381        42     2.387     1.428 -49.23   2
         4    232.1628     19.3842 307.8309941  +6.6630417     2839.504     10570.76      15138.6     93.00224     186.2272     372.4915      3.444     8.70     1246.281     65.70996      366.417        74     2.402     2.100 -47.44   2
         5    411.9994     19.8477 307.7560211  +6.6688381     7152.074     22704.16     30143.81     92.70463     186.0045     372.2688      2.928     8.97     1230.505     65.70996     774.0726        79     2.512     2.077 -56.61   2
         6    888.1549     18.8505 307.5575816  +6.6850494     686.1491     2026.092     2717.253     93.59461     186.3014     372.8252      2.912     5.97     1210.418     65.70996     116.1082         8     1.966     0.510  71.48   0
         7    592.4714     16.8953 307.6808976  +6.6760551      1156.51     4239.162     5967.081      93.2989     186.5237     372.7881      3.211    11.22     1217.627     65.70996     154.4703        39     2.032     1.725  75.28   0
         8    222.0171     15.5902 307.8353523  +6.6642703      1066.46     2689.344     5440.123     93.15069      186.153     372.6398      5.048     8.42     1246.361     65.70996     136.3105        17     2.021     0.980  63.22   3
         9    149.6326      2.7942 307.8659592  +6.6671409     3718.763     9486.715     10283.94     92.70464     171.0682     307.1967      2.385     9.45     1246.323     65.70996     405.8473        41     2.146     1.298 -13.82  24
        10    493.5996      1.5273 307.7226326  +6.6791170     793.6157     1633.396     1318.665     82.95087     150.8069     284.1103      2.073     6.50     1222.861     65.70996      112.274        11     1.856     0.639   3.35  24
        11    894.3259      1.1377 307.5556099  +6.6925685     758.8568     704.9008      946.152     78.50072      144.538     276.5695      1.001     2.85     1209.322     65.70996     219.3154         5     1.049     0.291 -10.53  24
        12    516.8171    982.7353 307.6795887  +6.2746785     2460.509     6157.713     7556.396     92.85355     186.3755     372.6398      2.485     5.98     1278.156     65.70996     297.4298        41     1.786     1.566 -67.41   3
        13    770.7381   1023.8897 307.5724355  +6.2661031     1279.292     1939.189     2007.832     77.61568      144.251     276.1195      1.450     3.86     1277.854     65.70996     338.8333         8     1.516     0.281  -5.32  24
        14    553.7325   1017.8846 307.6630198  +6.2613883     95047.33     219462.6     260011.1     93.74213     186.7458      364.846      2.446     5.75     1279.719     65.70996     9819.316       135     2.246     1.858 -65.58  19
        15    555.4100   1010.3473 307.6625771  +6.2645567      43858.8     96051.96     106871.7     92.70464     186.3014     372.4915      2.243     5.31     1279.264     65.70996     4853.461        68     1.814     1.531  -3.57   3
        16    187.7487   1020.9785 307.8153378  +6.2479416     2261.714     5188.127     6226.085     92.85355      184.363     327.2752      2.463     5.92     1277.374     65.70996     295.5029        31     1.645     1.356 -72.47  24
        17    513.9166    974.7858 307.6810669  +6.2778652     4586.648     11521.15     13963.86     93.00224      186.153     372.5656      2.555     5.56     1277.735     65.70996     508.4919        57     1.988     1.697 -51.52   2
        18    267.0056    981.5515 307.7836728  +6.2668626      7956.36     20328.71     24409.99     92.70463     186.2272     372.4173      2.516     5.48     1278.524     65.70996     858.7319        69     2.023     1.775 -61.72   0
        19    721.1417    981.8122 307.5945188  +6.2818371     5022.285     11330.84     11566.93     92.70463     186.3755     372.4544      2.255     4.99     1276.068     65.70996     528.7913        46     1.660     1.568 -47.91   0
        20    782.3757    980.3088 307.5690654  +6.2844864     586.6206     1227.624     741.1343     93.59462     186.2272     372.6027      1.467     4.93     1275.188     65.70996     101.9651         6     1.699     0.405   7.75   0
        21    882.3918    975.1428 307.5275825  +6.2899303     6547.564     13038.02     14633.79     92.70463     186.3014     372.4915      2.116     4.45     1273.852     65.70996      826.213        45     1.674     1.422 -59.61   0
        22    856.1158    971.3658 307.5386547  +6.2906207     8773.409     18334.72     20552.28     93.44688     186.3014      372.751      2.198     4.60     1274.029     65.70996     1022.582        58     1.815     1.538 -56.79   0
        23    977.8149    970.5882 307.4879914  +6.2949666     4003.732     7336.118     7603.662      93.2989     186.0787      372.714      1.897     4.04     1272.201     65.70996     517.5864        35     1.466     1.347 -47.89   0
        24    500.3897    970.6260 307.6868422  +6.2791338     2273.998     5919.931     6283.277     93.00224     186.2272     372.6398      2.454     5.95     1277.544     65.70996     326.0579        43     1.783     1.692 -62.43   0
        25    453.5840    966.8965 307.7064635  +6.2791193     1179.596     3010.855     3361.544      93.2989     186.2272     372.6027      2.563     9.07     1277.499     65.70996     170.8777        20     1.950     1.344 -43.94   0
        26    610.5855    969.0682 307.6409984  +6.2834346     723.0392      1479.24     1196.874     92.85355     186.3014     372.6769      1.987     5.23     1275.818     65.70996     165.3893         6     1.438     0.537  -3.49   0
        27    887.8489    958.8031 307.5258628  +6.2968588     30831.98        63389     69630.08     92.70463      186.153      372.306      2.143     4.42     1272.613     65.70996     3553.347        77     1.782     1.614 -66.76   0
        28    196.1721    957.0441 307.8140090  +6.2746247     818.6846     1676.106     2058.671     93.00224     186.5237     372.6769      2.120     6.34     1277.175     65.70996     96.95105        10     1.351     0.835  32.47   0
        29    785.9782    952.5211 307.5685066  +6.2960814     1488.591     3250.805     3665.558     93.00224     186.0787     372.7881      2.181     6.98     1273.516     65.70996     160.7333        26     1.596     1.345 -64.43   0
        30    733.9413    950.3972 307.5902528  +6.2952349     3927.117     9459.477     11124.79     92.70463     186.2272     372.4915      2.455     5.55     1274.469     65.70996     454.9675        49     1.885     1.636 -68.42   0
        31     28.8362    948.3538 307.8839978  +6.2726350      1591.55     3515.127     4022.757     93.15069     186.4496     372.6769      2.246     6.32     1274.331     65.70996     213.4269        26     1.530     1.294  82.62   0
        32    521.4674    949.3775 307.6787853  +6.2886088     598.1876     1278.263     1453.207     93.00224     186.3755      372.751      2.116     3.44     1276.341     65.70996     99.30261         5     1.107     0.309  20.59   0
        33    922.0940    945.5607 307.5120472  +6.3034603     4927.924     9830.625     10516.77     93.59461     186.3755     372.8993      2.107     4.53     1270.929     65.70996     559.7914        42     1.696     1.372 -58.19   0
        34    896.1829    936.8625 307.5231343  +6.3061955     1423.268     2779.303     2704.304     92.85355     186.3755     372.6027      1.968     6.28     1270.922     65.70996     153.1689        19     1.360     1.025 -31.34   0
        35    755.5850    933.2853 307.5818180  +6.3030188     983.5569     2081.771     2346.427     93.00224      186.153     372.6769      2.289     7.28     1273.122     65.70996     110.3879        14     1.712     0.868 -84.56   0
        36    616.7749    933.3423 307.6396332  +6.2983939     2536.268       6028.8     7319.036     93.00224     186.4496     372.6398      2.429     5.74     1274.393     65.70996     308.2013        41     1.766     1.548 -35.44   0
        37    229.1421    934.1254 307.8010584  +6.2851873     2070.531     5699.862     6408.461     93.44687     186.4496     372.7881      2.565     7.21     1277.643     65.70996     242.8094        41     1.794     1.656 -26.36   0
        38    440.2572    930.7485 307.7132433  +6.2936045     582.5173     1141.258     1391.259     93.44688     186.4496     372.7881      2.409     4.29     1275.964     65.70996     116.7812         5     1.303     0.402 -51.70   0
        39    972.9266    925.9774 307.4915366  +6.3132285     637.5897     1387.598     2371.053     93.00224     186.2272      372.751      3.413     6.80     1268.813     65.70996     116.0865         9     1.875     0.691 -54.63   0
        40    940.9910    926.6647 307.5048155  +6.3118889     589.4225     1037.908      1633.51     92.85355     186.2272     372.6398      1.912     4.71     1269.349     65.70996     89.67664         5     1.052     0.598 -71.63   0
        41    542.1419    925.6359 307.6709808  +6.2990998     995.8874     2350.925     3169.365     93.44688     186.4496     372.7881      2.557     7.43     1275.109     65.70996     126.0646        16     1.543     1.001   2.49   0
        42    580.6734    921.7914 307.6550623  +6.3019663     597.1973     1364.176     1228.949     93.00224     185.9302     372.6027      1.922     4.73     1274.571     65.70996     110.2692         6     1.425     0.445  24.71   0
        43    261.0763    920.2317 307.7882312  +6.2919882     824.8286     1901.155     2531.385      93.2989     186.5237      372.751      2.649     7.15     1277.516     65.70996     127.3784        14     1.480     1.219  45.01   0
        44    864.8765    912.3898 307.5370029  +6.3152666     4680.887     9895.418     10383.29     93.00224     186.0045     372.5656      2.188     4.75      1270.23     65.70996     531.8362        46     1.662     1.512 -40.06   0
        45    402.1751    909.7695 307.7298185  +6.3010025     1130.115      2593.82     3438.242     92.85355     186.3014     372.6027      2.975     8.06     1276.065     65.70996     147.4425        19     1.836     0.989 -71.61   2
        46    302.6122    908.6334 307.7713263  +6.2981603      4505.59     12634.89     14770.67     92.85355      186.153     372.6398      2.637     6.08     1277.299     65.70996     526.0765        60     1.962     1.837 -48.69   0
        47    222.6740    907.6163 307.8046558  +6.2959193     3535.025     9594.146     10968.74     92.85355      186.153     372.6398      2.575     6.28     1277.242     65.70996     412.2485        51     1.844     1.780  86.98   0
        48    837.4046    896.0256 307.5490002  +6.3211155      612.284     1224.279     1059.016     92.85355     186.2272     372.6027      1.878     4.80     1269.841     65.70996     83.06335         5     1.057     0.618  -0.81   0
        49    716.8124    889.6696 307.5994468  +6.3197464     785.3048     2089.378     3004.713     92.85355     186.2272     372.6398      2.803     6.13      1271.59     65.70996     103.6194         8     1.384     0.763  21.11   0
        50    947.2927    886.4745 307.5035506  +6.3286951     1162.962     2005.084     2136.236     93.44688     186.5978      372.751      1.819     5.34     1267.469     65.70996     147.7578        11     1.049     0.830 -41.23   0
        51    635.2150    884.1519 307.6336222  +6.3193199     1182.514     3213.737     3615.461     92.70463     186.3755     372.4544      2.516     8.26     1273.098     65.70996     148.5684        26     1.697     1.512  58.08   0
        52    502.7761    886.1586 307.6887190  +6.3140958     715.9357     1393.607     2204.216     93.00224     186.2272     372.5286      2.350     4.31      1274.48     65.70996     87.61414         5     0.741     0.713  62.36   0
        53     32.5131    880.6013 307.8847798  +6.3007366     1519.018     4011.747     4908.607     92.55547     185.9302     372.4544      2.669     7.24     1273.233     65.70996     232.2257        34     1.931     1.519 -82.16   0
        54     50.1689    879.7706 307.8774545  +6.3016687     910.2012     2206.789     2323.684     92.85355      186.153     372.4915      2.275     7.99     1273.375     65.70996     125.4865        15     1.547     1.155  45.74   0
        55    630.2415    873.5012 307.6360554  +6.3235535     3566.376      9001.94     10112.42     93.44688     186.3014     373.0475      2.505     5.71     1273.024     65.70996     397.6777        52     1.856     1.730 -56.75   0
        56    867.7951    869.5845 307.5372369  +6.3330409     1774.611     3717.344     3766.483     93.00224     186.0788     372.6027      2.066     4.84     1268.062     65.70996     283.2822        25     1.482     1.233 -72.35   0
        57    174.2191    880.2617 307.8257701  +6.3056016     936.5382     2777.902     3660.927     93.00224     186.3755     372.6398      2.794     7.94     1275.509     65.70996     147.0525        14     1.637     1.076  73.17   2
        58    313.3486    866.8694 307.7682766  +6.3157647     7287.276     20967.59     25804.31      93.2989     186.3014     372.7881      2.727     6.21     1276.621     65.70996     815.7607        73     2.094     1.909 -63.36   0
        59     47.6540    868.1807 307.8788977  +6.3063709     673.3094     1750.942      1936.44     92.85355     186.4496     372.5656      2.399     7.42     1273.255     65.70996     105.5492         9     1.517     1.016 -23.65   0
        60     77.4184    857.3528 307.8668701  +6.3118352      945.531     2274.708     2906.162     92.85355     186.3755     372.5656      2.613     8.32     1273.147     65.70996      123.072        14     1.471     1.316  38.12   0
        61    393.1041    856.9219 307.7353949  +6.3225254     647.4649     968.9802     1865.568     93.15069     186.7458     372.8622      2.746     6.12     1275.109     65.70996      92.4668         7     1.253     0.841  85.41   0
        62    858.0519    851.1644 307.5419193  +6.3403256      1158.76     2576.528     2241.015      93.2989     186.4496      372.714      2.151     7.38     1267.066     65.70996      158.823        18     1.338     1.138 -73.91   0
        63    828.9067    850.3351 307.5540879  +6.3397034     1097.556      2549.84     2665.998      93.2989     186.6718     372.8252      2.249     6.43     1267.547     65.70996     158.6852        15     1.448     1.191   4.15   0
        64    792.3152    850.0078 307.5693413  +6.3386271     1827.277     4110.712     4761.988     93.00224     186.0788     372.6027      2.392     5.82     1268.177     65.70996     221.6843        28     1.586     1.350 -54.38   0
        65     60.7853    850.5640 307.8740298  +6.3140839         1259     2633.138     3138.989     93.00224     186.2272     372.5656      2.222     6.88     1272.912     65.70996     150.8309        17     1.529     0.923  36.08   0
        66    528.3189    841.8227 307.6795863  +6.3332535     148085.8     425739.8     510594.2     93.00224     186.0787      372.714      2.691     6.29     1272.661     65.70996     15426.66       193     2.256     2.087 -70.33   0
        67    372.6823    844.7161 307.7443166  +6.3268870     3189.768     9761.527     11302.88     93.15069     186.7458     372.8622      2.692     6.94     1274.978     65.70996     352.0881        59     2.041     1.891 -43.82   0
        68    315.8945    842.9286 307.7680314  +6.3257362     5319.624     15604.25        18858     93.44688     186.5237     372.7881      2.702     6.61     1275.843     65.70996     562.6871        69     2.109     1.897 -73.69   0
        69    634.2352    838.8990 307.6355665  +6.3379758     1648.246     4281.054     4634.243     93.44688     186.3014     372.9734      2.409     8.13     1270.633     65.70996     187.0116        33     1.674     1.566 -37.74   0
        70    866.5568    837.8478 307.5388276  +6.3461065     3239.081     7546.718     8548.957     93.44688     186.3755      372.714      2.341     5.48     1266.055     65.70996     366.6155        46     1.795     1.591 -52.17   0
        71    608.6953    833.1014 307.6464020  +6.3395229     1472.382     4194.401     5907.128     93.44688     187.0415     372.6027      3.471     8.94      1270.51     65.70996     178.0052        33     1.711     1.583  -8.55   0
        72    999.9700    831.8522 307.4834556  +6.3529944     3255.344     6833.333     7113.042     93.15069     186.5978      372.714      2.154     4.92      1262.29     65.70996     449.7874        36     1.654     1.354 -71.01   0
        73    599.8215    830.2491 307.6501952  +6.3404064     828.6243     2381.618     4544.142     92.85355     186.5237     372.6398      3.588     7.09     1270.476     65.70996     127.1293         7     1.714     0.822  75.19   2
        74    885.3014    825.5490 307.5314358  +6.3518059     2143.219     4448.534     4739.516     93.44688     186.4496     373.0475      2.187     5.56     1265.078     65.70996       244.49        27     1.507     1.236 -52.17   0
        75    343.5962    821.7000 307.7572155  +6.3354245     1171.616     3683.479     5021.514     93.15069      186.153     372.3802      3.130    10.64     1274.805     65.70996     167.6356        29     2.007     1.573 -30.87   0
        76    482.2708    811.6411 307.6997934  +6.3441884     1062.115      1764.88     2568.581      93.2989     186.4496     372.8622      1.548     5.41     1271.632     65.70996     160.5815         9     1.272     0.649 -80.93   3
        77    479.1630    810.7145 307.7011194  +6.3444678     1144.901      2665.92     3045.824     93.44688     186.3755     372.7881      2.421     8.17     1271.619     65.70996     179.7096        16     1.613     1.158 -76.25   2
        78    526.8739    807.6514 307.6813494  +6.3473173     2556.551     7596.706     9941.168     93.44688     186.5237     372.8252      2.922     7.79     1271.096     65.70996     299.5157        52     2.105     1.765 -28.22   0
        79    861.6992    805.0454 307.5419621  +6.3594925     807.0364     1752.742     1607.464     93.44688     186.3755     373.0475      2.195     6.37     1263.951     65.70996     119.9904         9     1.723     0.661  85.78   0
        80    445.2907    806.0161 307.7153888  +6.3452827     744.5889     1424.916     1621.863     93.15069     186.2272     372.6398      1.975     4.68     1271.898     65.70996     118.6478         7     1.348     0.461   9.87   0
        81     87.4813    805.9175 307.8644343  +6.3334116      761.738     1898.214     2363.564     93.44687     186.7458     372.8993      2.117     5.73     1271.939     65.70996     108.2516         9     1.702     0.543  30.93   0
        82    497.3379    801.6247 307.6938577  +6.3488254     7946.071     24919.02     29709.74     93.00224     186.3755     372.6769      2.762     7.02     1271.021     65.70996     889.4073        77     2.137     1.963 -50.43   0
        83    910.7188    799.5530 307.5217279  +6.3633826     2152.583      5032.63     5590.667     93.44688     186.4496     372.8252      2.312     5.81     1263.199     65.70996      263.345        33     1.693     1.339 -45.03   0
        84      9.1970    792.7446 307.8974918  +6.3362396     824.5862      1480.53     1911.973     92.70463     186.2272     372.4173      2.189     6.16     1270.962     65.70996     117.2445        10     1.320     0.807 -65.86   0
        85    290.1831    790.4604 307.7805282  +6.3465482     1248.251     4146.196     5057.425     92.85355     186.3755     372.4915      2.661     9.27     1273.934     65.70996     189.5151        34     1.928     1.776  58.64   0
        86    755.4501    785.8452 307.5868731  +6.3639039      27126.6     71731.86     83521.73     93.44688     186.3014     372.8252      2.578     6.05     1263.973     65.70996     2964.617        99     2.083     1.900 -59.77   0
        87    212.3357    762.8207 307.8138975  +6.3553703     724650.6      2616049      3363258     93.00224     186.4496     372.6398      3.026     8.64     1273.006     65.70996        63689       605     2.816     2.389 -87.10   4
        88    880.7508    781.0392 307.5348387  +6.3700371     4683.907     11270.47     13139.66     93.44687     186.4496     372.6769      2.396     5.54     1262.347     65.70996     531.9762        50     1.905     1.549 -63.40   0
        89    678.5930    777.7218 307.6191652  +6.3647115     34115.98     106213.7     158106.4     93.00224     185.8559     372.5286      3.292     9.59     1265.964     65.70996     4271.045       183     3.437     2.182  29.04   0
        90    322.3904    778.1948 307.7675300  +6.3526853     7800.269      25014.5     30792.41     92.85355      186.153     372.6027      2.825     7.22      1272.74     65.70996     822.9468        83     2.211     2.056  87.82   0
        91    384.3323    776.1177 307.7417985  +6.3556035     8417.064     27093.17     33824.71     93.59461     186.7458     372.8252      2.860     7.05     1271.518     65.70996     894.1143        84     2.151     2.073 -86.38   0
        92    921.1240    774.7421 307.5182333  +6.3739732     1134.999     2683.926     2745.015     93.59461     186.4496      372.751      2.295     8.25     1261.615     65.70996     139.4618        19     1.563     1.217 -49.04   0
        93    877.5800    772.5147 307.5364484  +6.3734526     3768.512     9377.409     10839.91     93.00224      186.153      372.714      2.444     5.71     1261.911     65.70996     443.5764        47     1.754     1.647 -45.83   0
        94    618.2802    771.7480 307.6444926  +6.3651783     2807.312      7811.25     8786.126     93.44688     186.4496     372.7881      2.549     6.74     1265.947     65.70996     311.3213        49     1.953     1.677 -64.40   0
        95    407.7816    768.7633 307.7322807  +6.3594202     683.0557     1562.448       2124.8     92.85355     186.2272     372.5286      2.284     4.20     1270.445     65.70996     130.8708         6     1.782     0.283  37.21   0
        96    387.1880    758.7633 307.7411995  +6.3628652     19902.93     65445.75     82192.05     92.85355     186.2272     372.4544      2.885     7.13     1270.351     65.70996     2321.555       111     2.298     2.099 -62.85   0
        97    655.6101    761.5282 307.6292889  +6.3706370      930.103     1751.805       2351.5     92.85355     186.0045     372.6027      1.879     5.61     1265.359     65.70996     162.5681        10     1.474     0.659  84.05   2
        98    652.0635    760.5172 307.6308006  +6.3709369     848.5925     1740.855     2134.698     93.59461     186.5237     372.8252      2.606     5.62     1265.306     65.70996     123.9375         9     1.195     0.745  42.94   3
        99    504.9854    757.6855 307.6921657  +6.3672251     2647.595     8551.413     10282.29     93.00224      186.153     372.6398      2.807     6.86      1267.06     65.70996     341.4344        58     2.066     1.869 -52.34   0
       100    420.6953    750.0414 307.7275383  +6.3675811     876.6002     2620.181     5669.095     93.44688     186.3755     372.9363      4.251     5.37     1268.928     65.70996     142.7001         9     1.423     0.571  86.00   3
       101    423.1706    756.0892 307.7263015  +6.3651658       1962.8     5116.108     7800.593     93.59461      186.153     372.6769      3.673     8.88     1269.217     65.70996     246.2852        34     1.949     1.661  84.87   2
       102    750.0676    753.9962 307.5901953  +6.3768785     5375.726     14974.19     17952.59     92.70463     186.0787     372.5286      2.627     6.23     1261.376     65.70996     609.3555        62     1.963     1.842 -71.15   0
       103    101.5145    736.5349 307.8609570  +6.3625318     892.8701     1889.674     2551.557     93.59462     186.6718     372.8622      2.815     7.23     1269.922     65.70996      122.827        13     2.392     0.611  48.22   3
       104    117.0263    746.1631 307.8541669  +6.3590730     1318.642      3146.27     2964.088     93.00224     186.2272     372.5656      2.393     8.26     1270.718     65.70996     175.4186        21     1.630     1.242  41.51   3
       105    108.1173    746.7199 307.8578590  +6.3585460     4557.757     14357.07     19868.65     93.44688     186.7458     372.8622      3.150     6.88     1270.453     65.70996     584.8435        89     2.816     2.073   3.48   3
       106    101.1194    742.5491 307.8609163  +6.3600350     1586.406     4260.136     6753.408     93.44687     186.5237     372.7881      3.316    10.36     1270.089     65.70996       187.36        34     2.145     1.529  43.09   3
       107    895.3912    742.4628 307.5300462  +6.3864528     3601.668     8885.159     10409.61     92.70464     186.2272     372.5656      2.494     5.50     1259.923     65.70996     407.6415        49     1.770     1.711 -59.33   0
       108    944.0623    742.2722 307.5097766  +6.3881413     1001.202     2060.062      1950.13     93.59461     186.4496     372.8622      2.187     6.77     1259.487     65.70996     144.4734        13     1.425     0.902 -52.94   0
       109    650.5845    739.3603 307.6321349  +6.3796252     639.2582     1752.187     2327.615     92.85355     186.2272     372.5286      2.918     5.01     1264.092     65.70996     95.82556         7     1.081     0.658 -44.02   0
       110    540.4406    739.5197 307.6780134  +6.3759044     745.2722     1191.423     2253.164     93.44688     186.4496      372.714      1.605     4.22     1265.283     65.70996     123.7296         6     1.135     0.448 -78.14   0
       111    536.9763    738.6418 307.6794864  +6.3761520      730.861      1719.03     2064.658     93.00224     186.3014     372.5286      2.456     4.07     1265.208     65.70996     108.9697         5     0.823     0.574  87.49   0
       112    889.5122    734.4067 307.5327682  +6.3895853     1784.652      4014.17      4907.96     92.85355     186.0788     372.4915      2.434     6.46     1259.496     65.70996     207.7253        27     1.616     1.387 -74.06   0
       113    919.1538    733.9505 307.5204351  +6.3907542     1656.948     4178.811     4416.369     93.44688     186.3014     372.8252      2.400     7.57     1259.182     65.70996     208.3323        35     1.890     1.446 -60.32   0
       114    949.7296    733.6813 307.5077064  +6.3918765     1010.761     2512.667     2520.713     93.74213     186.8198     372.8252      2.321     9.16      1259.05     65.70996     127.0396        19     1.675     1.399 -28.50   0
       115    641.8181    734.3936 307.6359555  +6.3813856     637.0604     1588.886     1840.287     93.00224     186.0787     372.6027      2.256     6.55     1263.778     65.70996     91.00391         8     1.748     0.689 -32.81   0
       116    979.5878    730.9360 307.4953605  +6.3939974     2626.552     2646.707     2384.897     92.85355     186.2272     372.5656      1.005     3.70     1258.787     65.70996     740.9548         8     0.969     0.405 -61.84   0
       117    215.2511    728.6241 307.8138489  +6.3695895     781.3207     2072.878     2739.948     93.00224     186.4496     372.6769      2.887     7.45     1271.306     65.70996     109.6213        12     1.681     0.926  30.46   0
       118    652.1896    723.1725 307.6320158  +6.3863636     534.9085     1216.862     1360.459     93.00224     186.2272     372.6398      2.817     5.34     1263.001     65.70996     87.79211         5     1.217     0.660  69.47   0
       119    933.6702    721.3872 307.5148129  +6.3964227     1398.895     3027.337     3558.646     92.85355      186.153     372.6398      2.305     6.46     1258.298     65.70996     162.3086        24     1.387     1.362 -24.67   0
       120   1008.0024    715.6445 307.4840402  +6.4012516     4504.517     10084.15     10750.03     92.70463     185.9302     372.3802      2.278     5.03     1257.418     65.70996     532.6211        48     1.790     1.557 -76.87   0
       121    974.7062    714.7534 307.4979417  +6.4005192     1073.059     1953.587     1515.842      93.2989     186.3755     372.9363      2.018     4.41     1257.603     65.70996     161.3993        10     0.986     0.881 -58.98   0
       122    776.5342    712.9904 307.5805601  +6.3946898     428.2341     1379.436     2485.974     92.85355     186.3014     372.6769      2.136     5.88     1258.381     65.70996     117.8048         5     2.139     0.456 -17.97   2
       123    863.3871    710.2219 307.5444710  +6.3987087     716.5894     1708.509     2033.795     93.15069     186.2272     372.6769      2.694     3.64      1258.16     65.70996     126.6628         5     0.830     0.666 -38.45   0
       124     21.2650    701.6591 307.8955763  +6.3742568     1232.149      2805.08     3750.427     93.59462     186.3755     372.8252      2.899     7.47     1267.848     65.70996     133.0703        17     1.571     1.142 -83.14   2
       125    631.0488    692.3478 307.6418695  +6.3983923     1366.301     2185.797     3278.053     93.59461     186.3014     372.7881      1.729     5.38     1261.033     65.70996     227.4918        10     1.544     0.528  28.88   3
       126    632.5331    689.1569 307.6413595  +6.3997593      2594.75     6733.161     8428.361     93.44688     186.3755     372.8252      2.680     7.63     1260.816     65.70996     271.9226        47     2.068     1.712  27.57   2
       127    580.3678    688.7630 307.6631048  +6.3981911     708.2521     1852.704      2511.25     93.00224      186.153     372.5286      2.690     7.48     1261.655     65.70996     106.5692         8     1.417     1.106  54.92   2
       128     97.0918    685.9803 307.8645249  +6.3832614     1770.818     3612.479     5242.823      93.2989      186.153     372.6398      2.733     7.29     1266.449     65.70996     206.6472        23     1.731     1.168 -68.19   2
       129     93.7105    684.6138 307.8659801  +6.3837129     1229.203     2522.903     3772.553     93.15069     186.2272     372.6398      2.353     6.10     1266.405     65.70996     168.9071        12     1.392     0.753 -38.66   3
       130    969.0629    684.6749 307.5013107  +6.4127545      1441.42     3102.147     2533.637     93.74213     186.4496     372.7881      2.255     6.12     1255.481     65.70996     168.0178        23     1.415     1.370 -25.52   0
       131    748.9908    682.1048 307.5930821  +6.4065325     8395.819     25332.42     30630.51     93.15069     186.0045     372.5286      2.737     6.81     1256.385     65.70996      922.697        76     2.141     1.929 -68.65   0
       132    607.0369    684.5197 307.6521387  +6.4008285      781.315     2000.265     2645.654      93.2989     186.5237      372.751      2.432     5.47     1260.862     65.70996     99.84131        10     1.823     0.463  63.14   2
       133    877.9354    681.9135 307.5393691  +6.4108810     1701.827     3641.213     4738.873     93.44688     186.6718     372.7881      2.380     7.19     1256.246     65.70996     199.5238        25     1.958     1.004 -71.68   2
       134    881.2907    681.3613 307.5379899  +6.4112201     1030.809     1766.894     2027.509     93.44688     186.3755     372.8252      1.827     5.11     1256.173     65.70996       167.34         8     1.433     0.516 -62.40   3
       135    632.0000    674.9405 307.6420643  +6.4056126     1894.416      2911.57     3790.918     92.55547      186.153     372.3802      1.741     8.36     1259.906     65.70996     274.1914        19     2.125     0.919 -80.40   3
       136    629.0158    673.5196 307.6433558  +6.4061004     2530.448     5666.012     6933.197     93.00224      186.153     372.5656      2.571    11.10     1259.881     65.70996     276.1332        39     2.425     1.416 -69.50   3
       137    222.8294    676.1554 307.8124808  +6.3915096     2051.901     7167.455      9168.67     93.00224     186.5237     372.6398      2.975     8.46     1267.586     65.70996     270.6447        55     2.022     1.978 -15.60   0
       138    889.1302    667.3302 307.5351991  +6.4172740     781.7037     1634.154     1553.112     93.44688     186.5978      372.751      2.386     4.70     1255.228     65.70996     95.76953         6     0.928     0.675  68.45   0
       139    701.2918    663.4404 307.6135872  +6.4126597     1533.637     4662.719     5960.643     93.44688     186.3755     372.8622      2.837     9.54     1256.903     65.70996     213.5596        35     1.833     1.622 -60.80   0
       140    967.3952    659.6693 307.5028517  +6.4230263     5086.884     12068.84     13352.53     92.85355     186.0045     372.6027      2.343     5.63     1253.866     65.70996     583.5786        48     1.803     1.564 -65.74   0
       141    904.2845    660.9791 307.5291006  +6.4203983     997.6978     2561.653     3573.329     93.15069     186.0787     372.6769      3.009     9.07     1254.759     65.70996     146.1208        12     1.847     1.244 -59.28   2
       142     45.1619    655.4175 307.8872010  +6.3941502     9087.765     30709.49     38754.63     93.00224     186.3014     372.4915      2.889     7.19     1265.657     65.70996      1305.18        88     2.257     2.068 -87.94   0
       143    506.3101    655.1293 307.6951005  +6.4096220     750.2968     2244.958     2849.309      93.2989     186.7458     372.7881      2.905     7.72     1261.704     65.70996     118.1371        15     1.889     0.884  18.14   0
       144    476.9955    651.5919 307.7074334  +6.4101091     522.5906     1422.093     2225.132     92.70463     186.0788     372.6027      3.236     6.53     1262.358     65.70996     106.5056         7     1.235     0.968  35.91   2
       145    691.0677    646.7122 307.6184144  +6.4192291     1329.486     4480.503       5610.6     93.59461     186.6718     372.8252      2.940    10.74     1255.907     65.70996     184.1381        31     1.839     1.748  45.87   0
       146    713.0575    645.3446 307.6092994  +6.4205228      1776.74     5371.496     6800.012     93.59461     186.5237     372.8252      2.791     8.66     1255.042     65.70996     196.1958        41     1.978     1.703 -56.04   0
       147    544.7753    641.5214 307.6795381  +6.4165191       1223.1     3156.121     4983.631     93.00224     186.3014      372.751      3.405    11.75     1259.817     65.70996     164.0989        26     2.427     1.584 -51.64   2
       148    985.5187    641.2114 307.4959256  +6.4312482     2818.397     6443.859     7125.758     93.00224      186.153     372.6027      2.376     5.76     1252.478     65.70996     324.3892        43     1.748     1.643 -64.29   0
       149    951.1111    639.9583 307.5103033  +6.4306282      4435.03     10916.78     12075.81     93.44688     186.3755     372.8252      2.418     5.85     1252.831     65.70996     480.2395        51     1.802     1.660 -54.77   0
       150    206.7768    642.1891 307.8203263  +6.4050018     828.5036      1782.25     2858.412     93.00224     186.2272     372.6398      3.017     6.34     1264.652     65.70996     110.5288         6     1.165     0.968  40.68   0
       151    396.6513    634.6788 307.7414806  +6.4144231      1007.04     3359.039     4515.986     93.44688     186.5237     372.7881      2.994    10.98     1262.446     65.70996     152.3547        28     1.917     1.753  13.80   0
       152    109.8819    634.2347 307.8609631  +6.4050569     8322.205     28853.23     36980.36     93.44688     186.3755      372.751      2.940     7.48      1263.67     65.70996     1064.634        87     2.294     2.098 -86.39   0
       153    946.1232    623.0000 307.5129555  +6.4374667     3650.276     9377.241     11231.95     92.55547     185.7071     372.4544      2.557     5.70     1251.717     65.70996     392.9729        54     1.921     1.719 -56.15   0
       154   1001.3051    618.1213 307.4901298  +6.4413058     53180.28     125061.6     141247.9     93.15069     186.7458     372.8252      2.376     5.32     1251.187     65.70996     5586.408       105     1.991     1.795 -64.01   0
       155    539.7104    618.7197 307.6824232  +6.4257675     15479.18     56383.67     72633.08     93.15069     186.6718     372.8993      3.012     8.01     1258.708     65.70996     1765.001       111     2.341     2.206 -62.69   0
       156    147.5822    617.7692 307.8458194  +6.4131135     926.4521      2947.07     4273.183     93.00224     186.2272     372.6398      3.250     9.87     1262.875     65.70996     150.3053        17     2.158     1.259  44.85   2
       157     40.7871    609.1963 307.8906023  +6.4130917     590.0181     1439.526     2070.547     93.00224     186.0787     372.6398      2.266     5.11     1264.802     65.70996     104.8088         7     1.921     0.385  29.97   0
       158    436.9881    602.6275 307.7257666  +6.4290004     19524.61     72992.48      96139.3     93.00224     186.2272      372.714      3.064     8.16     1259.418     65.70996     2236.858       118     2.389     2.243 -74.75   0
       159   1014.3085    601.4702 307.4852755  +6.4486121     1884.051     4324.385      4837.96     93.44688     186.5978     372.7881      2.437     5.99     1249.919     65.70996     237.1787        21     1.696     0.956 -75.87  18
       160    113.5275    597.9817 307.8606818  +6.4201495     788.1367     1694.844     3151.996     92.85355     186.3755      372.714      4.150     6.83     1262.091     65.70996     123.1699         9     1.362     1.024  73.86   0
       161    284.3824    591.3604 307.7897283  +6.4285768     717.0272     1518.453     2940.133     93.00224     186.2272     372.5286      2.781     4.21     1259.485     65.70996     97.10327         5     1.044     0.483  86.90   0
       162    280.9510    590.8741 307.7911744  +6.4286634     670.4191      1776.67     2439.163     93.44688     186.5237     372.8252      2.350     6.22     1259.567     65.70996     110.2184         8     1.739     0.625 -77.30   0
       163    708.9581    586.1278 307.6130168  +6.4448422     1916.596     6561.413     7980.865      93.2989     186.4496     372.8252      2.889     8.91     1251.404     65.70996     223.5386        50     2.019     1.878 -71.74   0
       164    762.4288    581.1324 307.5909082  +6.4486772     5212.124     16756.46     20242.14     93.15069     186.4496      372.751      2.807     7.26     1251.014     65.70996      556.729        72     2.132     1.964 -66.04   0
       165   1001.8397    580.0278 307.4911960  +6.4570554     1187.545     2592.313     2809.927     93.00224     186.2272     372.6398      2.215     6.77     1247.828     65.70996     165.1312        18     1.658     0.946 -61.18   0
       166    586.5037    578.4492 307.6642965  +6.4439516      983.983     3244.724      4219.04      93.2989     186.3755     372.9734      2.963    10.10     1253.674     65.70996     174.2673        21     2.118     1.344  -4.20   2
       167    902.6539    575.0092 307.5326917  +6.4558483     595.7672     1264.859     1668.839     92.70463     186.3755     372.4544      2.095     5.62     1248.604     65.70996     77.80298         6     1.490     0.597 -57.82   0
       168    838.0741    564.2266 307.5599642  +6.4581641     1265.057      3286.99     3737.281     93.00224     186.3755      372.751      2.659     8.22     1249.413     65.70996     150.8932        23     1.712     1.104  57.77   2
       169    797.1136    561.8860 307.5771097  +6.4577745     1038.866     2825.586     2837.894     93.15069     186.6718     372.8252      2.295     9.14      1250.19     65.70996     121.1029        24     1.584     1.473  81.72   0
       170    225.4822    557.1729 307.8154325  +6.4407336     2472.946     9622.615        12751      93.2989     186.2272      372.714      3.073     8.44     1259.072     65.70996     357.2911        67     2.200     2.103  21.57   0
       171    777.7332    552.9966 307.5854860  +6.4608037     57880.35     191081.3     238219.4     92.70463     186.0788     372.5656      2.857     7.19     1249.901     65.70996     6209.162       177     2.493     2.196 -39.37   0
       172    159.6920    551.8549 307.8430235  +6.4407373     17970.33     67611.81     89679.54      93.2989     186.3014     372.9363      3.062     8.23     1260.146     65.70996     2506.186       116     2.421     2.239 -81.09   0
       173     83.7949    548.3318 307.8747637  +6.4396612     2033.439     7364.137     9461.861     92.85355     186.0787     372.5656      2.979     9.58     1260.911     65.70996     263.6107        58     2.134     1.973  79.43   0
       174    814.4263    540.3716 307.5706257  +6.4672328     1667.613     5469.825     6256.415     92.85355     186.2272     372.6027      2.750     9.15     1248.761     65.70996     218.0708        46     2.025     1.710 -74.07   0
       175    332.2325    541.4183 307.7714944  +6.4507939     4045.912     8370.201     9470.307     93.00224     186.2272     372.6398      2.117     8.27     1254.939     65.70996     450.6312        29     2.154     0.968  25.51   3
       176    334.0098    537.8163 307.7708766  +6.4523405     5668.452     15601.24     19306.85     93.15069      186.153     372.6398      2.658     8.44     1254.661     65.70996      656.088        59     2.409     1.488  29.21   3
       177    136.9996    537.2164 307.8529771  +6.4460259     995.3218     1922.021     2841.678     93.00224     185.9302     372.4173      2.920     6.16     1259.559     65.70996      136.261        11     1.320     0.810 -68.64   0
       178    767.3054    534.0568 307.5904732  +6.4682799     2085.631     5578.166     6470.287      93.2989     186.4496     373.0104      2.567     9.17     1248.678     65.70996     241.0592        38     2.208     1.323  81.81   3
       179    770.2166    533.0350 307.5892949  +6.4687983     1759.671     3498.309     3786.177     93.00224      186.153     372.5656      2.067     4.60     1248.588     65.70996     227.3163        19     1.332     1.092  79.94   3
       180    499.4275    533.7309 307.7020960  +6.4595276     1872.352     7544.628     9942.047     93.00224     186.3014     372.6769      3.067    10.25     1252.375     65.70996      248.005        58     2.120     2.027 -62.88   0
       181    146.3187    527.1619 307.8494377  +6.4504888       1906.4     7476.634     9622.385     93.44688     186.5237      372.714      3.052     9.60     1258.622     65.70996     273.2664        60     2.196     2.063  77.86   0
       182    543.8228    524.7998 307.6839025  +6.4646904     768.6306     2231.638     2984.115     93.00224     186.0787     372.5286      3.050     6.75     1250.284     65.70996     145.9525         8     1.308     0.977  36.09   2
       183     18.1214    525.9589 307.9028886  +6.4467087     1843.821     6199.431     7519.253      93.2989     186.4496     372.7881      2.913     8.48     1260.047     65.70996     236.5372        52     2.102     1.840 -85.21   0
       184    241.6323    523.4664 307.8098533  +6.4551911      24037.5     97140.01     132243.8      93.2989     186.5237      372.714      3.173     9.04      1255.54     65.70996     3443.574       131     2.493     2.333 -74.46   0
       185    468.2840    514.0288 307.7157420  +6.4666293     12971.55      47835.3     67741.38     93.44688      186.153     372.6398      3.221     8.38     1251.492     65.70996     1306.256       125     2.471     2.404 -48.63   0
       186    941.2664    516.9740 307.5185688  +6.4810929     759.8609     2257.965     2277.997     93.00224     186.3014     372.6769      2.589     9.16     1243.607     65.70996     119.6007        17     1.786     1.313  -9.12   0
       187    182.3387    510.7802 307.8349897  +6.4584545     763.4714     2136.035     3464.523     93.00224     186.4496     372.6769      3.310     6.68     1256.381     65.70996     96.67896         8     1.591     0.787  64.72   0
       188    630.1413    508.0835 307.6485054  +6.4744589     1001.692     2680.861     4926.855     93.59461     186.4496     372.8622      3.564     7.04     1248.017     65.70996     139.3087        14     1.608     0.864  60.99   2
       189    295.7623    505.8817 307.7879000  +6.4642555     886.7499     1459.878     2599.398     93.44688     186.5237      372.751      2.042     5.50     1251.947     65.70996     152.2397        10     1.367     0.625  48.18   3
       190    299.8796    504.1924 307.7862421  +6.4650902     1058.834      2227.22     3194.069     93.00224     185.9302     372.6027      2.621     6.48     1251.748     65.70996     162.2216        14     1.653     0.713 -63.43   3
       191    296.9331    501.4490 307.7875633  +6.4661250     1206.071     2892.036     4533.404      93.2989     186.3755     372.8252      3.111     6.85     1251.509     65.70996     171.6909        23     1.781     1.236  11.24   3
       192    112.7805    501.9609 307.8642709  +6.4597774      7650.41     29433.91     39059.11     93.00224     186.2272     372.4544      3.072     8.17     1257.602     65.70996      1102.29        96     2.354     2.226 -72.81   0
       193    840.3319    501.9883 307.5611330  +6.4839420     762.3568     2161.782     2796.602     92.85355     186.2272     372.6398      2.620     9.08      1244.51     65.70996     99.58337        16     1.642     1.402 -79.22   0
       194    367.7814    504.3415 307.7579460  +6.4672882     710.0312      1337.09      1928.39     93.00224     186.3014     372.5286      2.476     5.26      1251.32     65.70996     103.7374         6     1.140     0.686  19.26   0
       195     78.8274    498.5229 307.8785342  +6.4600646     989.2852     2645.534     3962.054      93.2989     186.3755      372.751      3.004     7.65     1257.933     65.70996     149.9611        16     1.962     1.057  -5.25   2
       196   1014.8086    501.5970 307.4884463  +6.4898746     766.8081     1659.556     1529.585     92.70463     186.0787     372.6027      2.383     6.14     1240.406     65.70996     106.7593         9     1.103     0.962   5.16   0
       197    764.4543    515.4138 307.5922934  +6.4758847     5873.255     19609.36     24015.25     92.70464     186.3755     372.4915      2.834     7.57     1247.089     65.70996     660.5538        74     2.147     1.986 -60.53   0
       198    938.0379    495.7593 307.5206325  +6.4897474     2266.885     6475.231     6908.897     93.15069     186.4496     372.6398      2.506     7.23     1242.368     65.70996     249.5748        43     1.767     1.678 -68.96   0
       199    408.1650    484.8706 307.7417831  +6.4766722     11304.03     22450.42     24091.01      93.2989     186.3755     372.7881      2.082     7.38     1249.505     65.70996     1150.354        42     2.087     1.082  35.93   3
       200    410.9692    481.8235 307.7407184  +6.4780239     13307.82     35940.59     45126.55     92.70463     186.3014     372.5286      2.711     9.77     1249.248     65.70996      1484.25        73     2.599     1.476  34.29   3
       201    620.0000    481.9505 307.6536186  +6.4849147     3291.403      5638.64     6764.392     92.55547     185.8559     372.2317      1.947     7.88     1246.502     65.70996     395.4231        21     2.076     0.837 -76.43   3
       202    616.8667    480.7156 307.6549661  +6.4853207      4002.41     9668.566     12923.13     93.59461     186.7458     372.8622      2.752    12.07     1246.461     65.70996     401.4835        49     2.646     1.533 -74.10   3
       203    174.9145    480.6074 307.8391123  +6.4706673     5702.893     21962.23     30740.96     93.00224     186.0787     372.6027      3.216     8.44     1253.975     65.70996     763.2782        99     2.424     2.313  85.85   0
       204    539.1058    481.8208 307.6873290  +6.4822830     964.2728     2028.357     4125.492      93.2989     186.2272     372.6027      3.377     6.22     1247.799     65.70996      121.354        11     1.443     0.753  -7.77   2
       205    913.0350    475.7350 307.5317289  +6.4971901     2003.601     5730.719     6662.979      93.2989     186.4496     372.8252      2.628     7.42      1241.41     65.70996       276.54        42     1.955     1.627 -63.69   0
       206    586.0023    477.7386 307.6679275  +6.4855258     1535.825     3350.295     3963.355     92.70463     186.2272     372.4544      2.246     7.19     1246.652     65.70996     191.8444        17     1.569     0.922 -20.04   3
       207    583.6849    475.9559 307.6689537  +6.4861851     1289.673     1933.468     2757.411     93.44687     186.3755      372.751      1.737     5.44     1246.503     65.70996     202.3234        10     1.286     0.649 -59.86   3
       208    586.7563    473.1170 307.6677704  +6.4874594     1880.116     4927.799     6541.337     93.44688     186.4496      372.751      2.620     9.95     1246.195     65.70996     241.9974        34     2.278     1.213  22.45   3
       209    935.8842    468.3340 307.5224586  +6.5010023     1432.225     4142.705      5107.64     93.59461     186.7458     372.8622      2.694     8.76     1240.561     65.70996     188.4232        33     1.743     1.536 -55.00   0
       210    929.9280    469.0970 307.5249147  +6.5004902     4623.801     5063.296      5914.51      93.2989     186.5978      372.751      0.552     1.24     1240.845     65.70996     2590.528         8     0.620     0.365 -87.33   0
       211    500.8618    465.4194 307.7038217  +6.4877860     2335.077     4974.986     7683.714     93.00224     186.3755     372.6398      2.746    10.96     1246.617     65.70996     252.7216        38     2.640     1.268 -67.33   3
       212    496.7546    465.2447 307.7055390  +6.4877217     2172.445      4988.34     6032.874     93.44688     186.4496      372.751      2.368     8.95     1246.689     65.70996     218.8328        30     2.297     0.973 -78.43   3
       213    345.5211    465.5750 307.7685413  +6.4825569     926.5807     2716.018     3528.653     93.15069     186.3014     372.7881      2.853     9.73     1247.997     65.70996     141.2566        20     2.066     1.278  27.49   0
       214    854.7700    461.2451 307.5564979  +6.5012461     1400.621     3972.117     6162.373     93.00224     186.4496     372.6398      3.897    10.50     1240.817     65.70996     156.2795        34     1.896     1.622 -81.48   0
       215    688.2969    451.8197 307.6261843  +6.4996233     957.5517     2551.159     3885.578      93.2989     186.2272     372.5286      3.278    11.32     1243.166     65.70996     154.8971        20     2.191     1.628  -9.01   2
       216    359.6022    451.0097 307.7631703  +6.4890405      1095.19     2410.687      3883.31     92.70463     186.0788     372.5286      2.754     7.56     1246.662     65.70996     140.1545        16     2.050     0.780 -55.82   2
       217    357.0036    449.0000 307.7643215  +6.4897839     1068.734     2592.383     4145.419     92.55547     185.8559     372.4544      3.302     7.44     1246.494     65.70996     124.5328        15     1.522     1.057 -24.25   2
       218     50.1323    452.3585 307.8920665  +6.4781710     742.0594     1445.211     2383.282     93.44688     186.3755     372.8622      2.781     5.30     1255.677     65.70996     105.0725         6     1.176     0.675 -40.04   0
       219    585.0131    447.0773 307.6693817  +6.4981553     2682.306     11242.02     15293.39     93.00224     186.0787     372.5656      3.148     8.69     1243.891     65.70996     335.9875        72     2.310     2.091 -61.24   0
       220    747.7961    443.0692 307.6016888  +6.5052094     5466.201     19519.25     26105.38     92.70463     186.0045     372.5286      3.033     8.06     1241.368     65.70996     633.1803        85     2.368     2.076 -53.32   0
       221    266.6660    442.3957 307.8021870  +6.4895042     773.4919     2107.693     3458.343     92.70464      186.153     372.4915      3.367     6.29     1247.414     65.70996     121.6058         8     1.361     0.816  49.72   2
       222     83.0000    437.0077 307.8788966  +6.4856070      1007.41      2030.33     2589.441     92.55547     186.0045     372.5286      2.309     7.09     1254.644     65.70996     133.1949        14     1.597     0.882  70.34   3
       223     86.6930    435.0272 307.8774256  +6.4865481     1499.784     3647.648     4841.426     93.59461      186.153     372.6027      2.759    10.77     1254.489     65.70996     191.8661        30     2.142     1.511  69.15   2
       224    932.2433    437.7715 307.5250108  +6.5135036     692.4408     1737.465      1625.37     93.00224     186.5237     372.6769      2.633     5.31     1238.525     65.70996     87.30798         8     1.607     0.496 -44.44   0
       225    724.5828    433.4894 307.6116867  +6.5083963     854.8905      2112.62     2826.073     93.15069      186.153     372.6769      2.808     8.49     1240.888     65.70996     102.5892        12     1.653     1.219  88.46   0
       226    986.8143    432.6991 307.5024430  +6.5174029     2167.097     5552.757     6557.338      93.2989      186.153     372.4915      2.621     6.53     1236.394     65.70996     253.2107        43     1.830     1.678 -18.73   0
       227    245.5983    432.9442 307.8112874  +6.4927057     714.8079     1446.891     2737.818     92.70463     186.0787     372.4173      2.713     5.79     1247.731     65.70996     107.0758         8     1.434     0.659  87.56   0
       228    323.8167    430.6674 307.7787740  +6.4962503     939.1887     2006.767     3778.262     92.85355     186.3755     372.6769      3.262    12.55     1245.137     65.70996      104.016        17     3.461     1.266 -18.01   2
       229    321.0057    428.0000 307.7800361  +6.4972583     770.2462     2039.413     3156.901     92.55547     186.0045     372.5286      2.334     6.67     1244.891     65.70996      111.583        12     2.055     0.608  -7.69   2
       230    442.3652    419.2540 307.7297664  +6.5049070     558.4461     1124.692     1999.908      93.2989     186.4496     372.7881      2.258     4.20     1243.154     65.70996     87.14014         5     1.210     0.416 -77.65   0
       231    787.4196    418.3454 307.5860168  +6.5167326     808.2964     1815.599     2793.088     92.85355     186.4496     372.5656      3.247     5.72     1238.962     65.70996       103.02         7     1.086     0.848  83.67   0
       232    684.7584    417.2415 307.6288327  +6.5137860     4343.447     8242.856     9585.027     93.15069     186.4496     372.6398      1.986     5.45     1240.156     65.70996     480.8076        23     1.628     0.868  36.05   3
       233    688.5068    414.7453 307.6273555  +6.5149411     4240.085     8260.244      9748.18      93.2989     186.3755     373.0104      2.078     6.36     1239.932     65.70996     457.5212        26     1.796     0.992 -78.10   3
       234    685.1888    413.6231 307.6287762  +6.5152946     4781.062     9120.033     11758.43     93.00224     186.2272     372.6398      2.209     4.63     1239.904     65.70996     524.8759        24     1.318     1.255 -80.15   3
       235    609.3671    410.8045 307.6604663  +6.5139433     711.2358     1855.262     2967.046     92.55547     186.3014     372.5656      2.807     6.28     1241.046     65.70996     117.5166         9     1.447     0.766  81.28   0
       236    579.5483    406.3417 307.6730432  +6.5147966     5260.252     18410.56      29124.3     93.44688     186.4496     372.7881      3.445     8.50      1240.03     65.70996     623.5461       115     2.797     2.359  38.41   0
       237    911.1400    403.3429 307.5349708  +6.5270239     1527.942     3941.595     5022.979     93.59461     186.3755     372.8252      2.919     9.25     1236.005     65.70996     174.3525        24     2.024     1.180  44.35   2
       238    350.6757    401.2819 307.7685836  +6.5092794     7600.864     31885.43     43605.28     93.74213     186.7458     372.8993      3.197     9.13      1242.39     65.70996     961.2927       104     2.447     2.318 -72.51   0
       239     97.5579    404.0097 307.8739579  +6.4997195     722.1421     1523.291     2886.089     92.70463     186.2272     372.4915      3.131     4.24     1252.673     65.70996     99.76282         5     0.790     0.649  -1.54   0
       240     99.3820    399.7876 307.8733420  +6.5015240     834.4689     1818.129     3117.211     93.15069     186.0787     372.6769      3.075     6.05     1252.422     65.70996     112.0955         9     1.129     0.912  87.83   2
       241    866.7511    398.9535 307.5536167  +6.5273678     713.7602      1812.49     2991.443     93.44687     186.3014     372.8252      3.678     6.04     1236.348     65.70996     92.50244         8     1.241     0.826  54.28   0
       242    879.2213    395.6123 307.5485335  +6.5291604     1950.079     5533.353     6633.933     93.15069      186.153     372.6398      2.763     8.63     1235.898     65.70996     210.2964        38     1.973     1.642 -67.78   2
       243    208.3287    391.9858 307.8282134  +6.5083783     3561.503     15134.56     21121.15     92.85355     186.3014     372.6769      3.200     8.38     1246.912     65.70996     534.7908        82     2.387     2.190 -66.59   0
       244   1012.7213    381.8575 307.4933682  +6.5392558      4573.43     11547.32     12830.35     93.44688     186.4496      372.751      2.431     5.84     1230.978     65.70996     552.1234        50     1.856     1.663 -75.84  16
       245    107.4200    378.5590 307.8707178  +6.5105586     1405.312     3076.763      5244.56     93.00224     186.2272     372.5286      3.029     8.76     1251.005     65.70996     170.0302        23     2.192     0.979 -47.39   2
       246    110.4766    380.7361 307.8693699  +6.5097615     1731.056     3953.768     5338.136     93.74213     186.4496      372.751      2.608     7.00     1250.971     65.70996     193.6968        24     1.687     1.158 -63.59   3
       247    131.6270    377.1125 307.8606808  +6.5119634     1030.341      2715.31     4005.526     93.59461      186.153     372.6769      2.986     9.38     1249.819     65.70996     144.3995        17     2.171     1.131 -53.43   0
       248    355.8341    371.0251 307.7674649  +6.5219460     737.0432     1893.034     3322.092     92.70463     186.2272     372.5286      2.926     6.35      1239.66     65.70996     114.1857         8     1.827     0.621  72.29   0
       249    407.9194    367.5222 307.7458806  +6.5251253     2091.714     4144.446     4945.181     93.74213     186.7458     372.9734      2.137     7.16     1239.277     65.70996     245.8234        26     1.839     1.027  -4.86   3
       250    409.4919    363.7497 307.7453538  +6.5267355     2159.702     5450.186     8343.676      93.2989     186.3014     373.0104      3.269    12.46     1238.906     65.70996     236.3737        45     2.900     1.490   8.46   3
       251      4.4441    365.4557 307.9140726  +6.5125327     1218.356     3635.306     5060.533     93.44688     186.4496     333.6721      2.979     9.24      1255.71     65.70996     192.1216        31     1.941     1.641  39.58  24
       252    747.0679    362.1826 307.6047370  +6.5385896     4327.751     12351.76     17840.82     92.85355     186.3755     372.6769      3.008     8.71     1234.974     65.70996     474.3416        61     2.419     1.719 -81.92   2
       253    750.7071    361.6447 307.6032388  +6.5389323     3587.666     5706.563     6881.152     93.44688     186.3755     372.9363      1.811     4.35     1234.885     65.70996     440.7245        14     1.284     0.775 -70.94   3
       254    991.8998    356.8710 307.5028907  +6.5488866     1746.809     4332.091     5148.948     93.15069     186.5978     372.8252      2.461     6.67     1229.153     65.70996     260.8763        31     1.656     1.442  86.79   0
       255    813.6570    344.4698 307.5775890  +6.5481106     12604.94     40228.64     50763.55     93.59462     186.4496      372.751      2.879     7.32     1232.391     65.70996     1242.323        99     2.338     2.055 -75.28   0
       256    429.0813    347.1443 307.7377562  +6.5342444     728.3293     2028.347     2453.709     93.44688     186.4496     372.8252      2.679     9.00     1236.956     65.70996     100.4147        12     2.145     1.055  24.58   0
       257    455.6822    346.2767 307.7267010  +6.5354870     998.0094     2561.698     4317.709     93.59462     186.7458     372.9363      3.481     6.66      1235.63     65.70996     114.1426        12     1.265     0.985  23.48   2
       258    583.5335    336.8441 307.6737448  +6.5436295     894.8638     2611.991     4132.379     93.44688     186.3755     372.8252      2.940     9.55     1233.164     65.70996     131.0647        16     2.429     1.047 -60.59   2
       259    670.1227    330.6168 307.6378731  +6.5490744     23420.63     89854.65       118762     92.85355     186.0787     372.6398      3.073     8.44     1232.961     65.70996     2489.453       128     2.440     2.248 -68.86   0
       260    533.0145    327.6931 307.6951080  +6.5457311     874.4166     3131.109     4552.125     93.15069      186.153     372.6027      3.227    10.58     1232.204     65.70996     127.0243        26     1.810     1.723  50.27   0
       261     70.0293    326.7215 307.8880684  +6.5307177     1943.156     7264.244     9488.522      93.2989     186.5237     372.7881      3.032     9.11     1251.768     65.70996     274.1498        63     2.327     1.974 -74.41   0
       262    514.3395    326.1866 307.7029414  +6.5457329     1840.506     3916.494     4485.032     92.85355     186.3014     372.4544      2.168     7.51     1232.087     65.70996     223.8169        23     1.713     1.052  33.39   3
       263    517.1385    323.0151 307.7018829  +6.5471356     2113.785     6185.824     8267.806     92.85355     186.3755     372.5656      3.025    11.19     1231.744     65.70996     227.4675        45     2.438     1.432  33.99   2
       264    244.5245    324.9966 307.8154161  +6.5372483     619.8807     1339.098     1783.339     92.85355     185.8559     372.6769      2.659     3.59     1242.027     65.70996      116.626         5     0.773     0.606   0.45   0
       265    378.8815    319.0272 307.7596323  +6.5441863     6612.968     28435.13     39091.52      93.2989     186.2272      372.714      3.213     9.48     1236.848     65.70996      857.141        98     2.451     2.289 -64.22   0
       266    247.1750    320.6060 307.8144613  +6.5391497      776.489     1748.599     2990.282     92.85355     186.2272     372.6027      2.797     9.75     1241.776     65.70996     114.6705        10     2.422     1.094  -9.23   2
       267    243.3267    318.5403 307.8161354  +6.5398746     663.5813     1356.784     2445.649     93.59462     186.4496     372.7881      2.729     4.24     1241.882     65.70996     105.2695         6     1.088     0.471  33.34   3
       268    467.8808    309.4030 307.7228726  +6.5511202     2218.355     9533.715      13177.2     92.70463     185.9302     372.4915      3.281     9.89      1231.36     65.70996     281.6951        69     2.299     2.144 -40.01   0
       269    736.2856    310.1718 307.6109954  +6.5597114     1055.118      2294.45     3150.027     93.59461     186.0788     372.6027      2.642     7.38       1231.1     65.70996     163.7637        14     1.806     0.844 -22.79   2
       270    734.9797    306.6589 307.6116589  +6.5611188      915.556     1936.299     3139.814     93.00224     186.3014     372.5656      2.405     6.06     1230.863     65.70996     145.2201        10     1.601     0.646 -74.10   2
       271    355.5083    291.5009 307.7703099  +6.5547760     1661.133     3671.688     4279.232     93.44688     187.0415      372.751      2.248     8.42     1237.036     65.70996     195.0345        24     1.926     1.027 -80.95   3
       272    358.3705    296.3936 307.7689505  +6.5528507     2054.593     3801.071     4033.036     92.85355      186.153     372.5286      2.003     8.39     1237.013     65.70996     249.2312        23     2.023     0.973  -7.07   3
       273    359.6554    292.8155 307.7685370  +6.5543711     2338.953     4978.957     6073.823     92.70463     186.3755     372.4173      2.248     5.24     1236.866     65.70996     286.5646        24     1.451     1.132  82.79   3
       274    216.4492    293.3905 307.8281933  +6.5493650     624.4712     1457.609     2936.702     92.85355     186.2272     372.4173      2.590     4.76     1242.662     65.70996      103.757         7     1.369     0.468  82.51   0
       275    724.3018    289.8250 307.6166801  +6.5677169     18189.34     49365.65     61387.41     93.59461      186.153     372.6398      2.692     8.75     1229.513     65.70996     1760.531        83     2.556     1.725  89.40   3
       276    727.7719    288.7807 307.6152695  +6.5682632     14443.94     24529.76     27041.22     93.00224     186.2272      372.714      1.806     5.26     1229.433     65.70996     1683.293        26     1.761     0.920  78.12   3
       277    399.1127    287.7213 307.7522678  +6.5577875     778.9665     1775.156     2988.983     93.15069     186.8198     372.9363      3.027     6.47     1234.778     65.70996     110.0546        11     1.359     0.866  58.15   0
       278    901.0388    284.8442 307.5431953  +6.5756272     1123.601     2997.074     3356.056     93.15069     186.3755     372.6769      2.637     7.84     1227.368     65.70996     138.6873        18     1.578     1.089 -21.98   2
       279    958.9883    285.1714 307.5190339  +6.5774089     677.5135     1291.795     1236.535     92.85355     186.2272     372.6398      1.957     3.77     1225.539     65.70996     100.9578         5     0.824     0.496 -65.29   0
       280    383.0275    282.7698 307.7591395  +6.5592972     597.8406     1386.509     1835.424     92.85355      186.153     372.5286      3.014     4.59     1235.222     65.70996     99.25806         5     1.198     0.499 -69.47   0
       281    723.4843    276.4936 307.6174734  +6.5731953     1682.793     3284.937     5320.826     93.15069     186.9677     372.9363      2.742     7.69     1228.328     65.70996     221.3007        19     1.581     1.047 -25.01   3
       282    726.0399    272.5149 307.6165434  +6.5749231     1813.701     3518.373     4469.987     93.44687     186.3755      372.751      2.144     4.98     1228.065     65.70996     213.9137        14     1.267     0.812  62.81   3
       283    722.6191    272.1806 307.6179804  +6.5749478     1942.787      3855.69     5757.249     93.15069     186.3755      372.714      2.603     6.76     1227.988     65.70996     235.4845        24     1.741     0.979 -73.46   3
       284    162.3922    276.5159 307.8512953  +6.5545316      759.233       1766.5     2849.794     93.00224     186.0788     372.6027      3.131     5.69     1246.833     65.70996     94.84131         8     1.383     0.660  80.67   0
       285    741.2417    272.7377 307.6102006  +6.5753350     868.2092      2566.28      3634.75     93.44688     186.3755     372.8622      2.934    10.95     1228.057     65.70996     128.9132        18     1.955     1.708 -42.35   2
       286    978.5144    262.4507 307.5116658  +6.5874377     2878.417     7995.489     9445.308     93.44688     186.3755     372.8252      2.607     6.64     1223.185     65.70996     312.0271        47     1.851     1.717  80.52   0
       287    458.5914    261.9166 307.7283599  +6.5704218     652.7035     1427.015      2148.87     93.00224     186.0787     372.6027      2.619     6.21     1227.847     65.70996     100.7798         7     1.353     0.801  69.32   0
       288    220.3267    259.5350 307.8277326  +6.5634751     1934.054     5594.163     7741.753     93.59462     186.4496     372.7881      2.957     9.92     1242.224     65.70996     243.3313        45     2.354     1.641 -46.83   2
       289    217.6014    256.2667 307.8289797  +6.5647340     1602.829     2625.301     3110.899     92.70464     185.9302     372.5286      1.653     5.55     1242.379     65.70996     198.2504        16     1.359     0.893  84.37   3
       290    531.2317    242.8367 307.6987371  +6.5807150     750.5327     1543.672     2569.111     93.00224      186.153     372.4915      2.510     4.92     1224.432     65.70996     121.0015         8     0.984     0.695  35.09   0
       291    875.4304    238.9880 307.5554219  +6.5937172     761.2658     2126.666     2988.477     92.85355      186.153     372.6769      3.021     9.88     1224.856     65.70996      95.8197        14     1.945     1.398  46.61   0
       292    698.6483    237.6614 307.6291422  +6.5884085     1239.342     2623.979     3727.409     93.44688     186.3755     372.8622      2.689     6.30     1225.295     65.70996     144.4666        14     1.220     1.074 -80.25   3
       293    695.2274    239.8845 307.6304924  +6.5873770     1591.297     2896.528     4575.529     93.59461      186.153     372.6398      2.740    11.80     1225.489     65.70996     190.1628        25     2.290     1.694 -66.06   3
       294    694.3166    236.6251 307.6309827  +6.5886928     1280.285     2089.391     2964.502      93.2989      186.153     372.7881      1.861     5.94     1225.255     65.70996     175.3765        12     1.241     0.893 -61.56   3
       295    194.7482    226.3925 307.8395227  +6.5763091     552.5675     1387.201     2315.798     92.85355     186.2272     372.3431      1.744     4.19     1244.115     65.70996     89.35291         5     1.540     0.326  41.46   0
       296    198.4862    223.6943 307.8380570  +6.5775480     801.6348     1561.319     1976.628     93.44688     186.8937     372.8622      2.123     5.81     1243.931     65.70996     90.27209         8     1.216     0.781 -70.50   0
       297    837.2063    221.1707 307.5719564  +6.5998100     851.7063      1472.25     1807.569     92.85355     186.2272     372.5656      1.762     4.84     1224.213     65.70996     108.0881         8     1.316     0.504 -50.07   0
       298    428.8007    215.6062 307.7423515  +6.5885560     6581.837     15326.88     18967.57     92.70464     186.0787     372.5656      2.514    10.64     1226.411     65.70996     622.7258        43     2.567     1.230  61.36   3
       299    432.4463    213.2531 307.7409123  +6.5896489     7101.749     15889.18     22016.98     93.44688     186.4496     372.8252      2.792    11.19     1226.048     65.70996     767.0164        58     2.723     1.514  56.32   3
       300    754.5561    212.7805 307.6066868  +6.6005370     4693.625     12371.39     16109.08     92.85355     186.3014     372.6027      2.742     8.32     1223.779     65.70996     502.5929        53     2.382     1.650 -88.10   3
       301    758.0000    212.0553 307.6052761  +6.6009506     4197.795     8253.359     10761.35     92.55547     186.0045     372.3802      2.186     5.67     1223.783     65.70996     490.6914        30     1.851     1.002 -87.94   3
       302    116.8639    207.6905 307.8726179  +6.5814351     855.4753      2270.18     3074.996     93.44688     186.6718     372.8622      2.947     7.63     1250.224     65.70996     132.7517        12     1.600     1.018  61.26   0
       303    552.7550    200.9727 307.6911911  +6.5987184     1481.735      3260.51     3840.872     92.85355     186.5237     372.6769      2.312     8.24     1222.362     65.70996     161.8273        23     1.784     1.063  55.95   3
       304    555.4382    198.1139 307.6901700  +6.5999881     1435.439     3351.746     4474.254     93.44687     186.3755     372.7881      2.594     9.57     1222.284     65.70996     170.9653        27     2.473     1.033  35.65   3
       305    914.7668    194.5916 307.5405324  +6.6133536     1135.653     3188.659     3739.848     92.85355     186.2272     372.5656      2.676     6.37     1221.604     65.70996     175.1295        15     1.520     1.067  12.21   2
       306    860.8407    195.2773 307.5629843  +6.6112858     4282.144     13804.83      17048.9      93.2989     186.4496     372.8622      2.807     7.42      1222.09     65.70996     431.8396        66     2.055     1.962  76.66   0
       307    946.3698    193.0886 307.5274120  +6.6150197     4386.157     9510.545     11441.56     93.59461     186.2272      372.714      2.343     6.72     1220.742     65.70996     455.3933        38     2.145     1.179 -86.03   3
       308    949.2423    193.2663 307.5262087  +6.6150414     3487.756     6750.471     7869.299     93.44688     186.3755     372.8622      2.101     6.00     1220.636     65.70996     366.9763        19     1.684     0.937 -88.19   3
       309    659.0898    195.4908 307.6470610  +6.6045118     918.6581     2403.833     4011.691     93.44687     187.0415     372.8993      3.156     6.77     1223.201     65.70996     118.7761        12     1.500     0.856 -12.02   0
       310    709.6745    181.9757 307.6264379  +6.6117708     13075.53      31100.4     39048.07     93.00224     186.2272      372.714      2.543     8.62     1222.702     65.70996     1363.401        63     2.627     1.312  88.06   3
       311    713.4229    181.2903 307.6248989  +6.6121781     11855.36     22597.13     25669.81     93.44688     186.2272     372.6398      2.078     6.74     1222.659     65.70996     1210.936        42     1.988     1.080 -83.72   3
       312    479.1488    186.3863 307.7223634  +6.6022966     827.8553     1382.102     1303.978     92.70463     186.4496     372.4915      1.492     4.61     1221.918     65.70996     139.1371         7     1.381     0.437  -7.23   2
       313    480.8781    183.3152 307.7217473  +6.6036223     713.8932     1882.712     1902.422     93.44688     186.8198     372.8993      2.284     7.08     1221.705     65.70996     115.7572         9     2.085     0.673  13.14   2
       314    315.9142    181.7244 307.7905513  +6.5987918     2491.356     6026.528      8605.46     93.59461     186.8198     372.8622      2.927    10.56     1237.327     65.70996     246.6649        48     2.726     1.410 -66.73   3
       315    312.2391    180.9963 307.7921078  +6.5989701     1897.804     4094.511     6676.619     92.40607      186.153     372.4915      3.158     9.07     1237.724     65.70996     211.1012        25     2.247     1.022 -83.71   3
       316    849.5322    182.9346 307.5681160  +6.6160086     827.5876      2063.09     2968.607     93.44687     186.4496     372.8252      2.757     6.50     1221.549     65.70996     135.2458         9     1.409     0.841 -47.88   2
       317    799.6396    183.4057 307.5888941  +6.6141618      744.494     1969.203     1920.335     92.55547     186.0788     372.4544      2.233     8.33     1222.337     65.70996      103.807        12     1.721     1.126   0.25   0
       318    944.4897    180.3391 307.5286274  +6.6202228     1184.277     3630.233     4472.607     93.44688     186.5978     372.8622      2.708     8.19     1220.083     65.70996     173.1011        28     1.927     1.610  65.91   0
       319    877.8832    180.0132 307.5563989  +6.6181536     2873.296     5903.178     7230.195     93.00224      186.153     372.6027      2.318     9.51     1220.983     65.70996     327.5817        34     2.242     1.357 -10.71   3
       320    877.3116    176.6962 307.5567495  +6.6195045     2467.175     5074.153     6425.578     93.44688     186.8937     372.8252      2.233     9.40      1220.81     65.70996      329.975        23     2.209     1.116  -8.39   3
       321    422.5560    177.9543 307.7462361  +6.6038972     1171.907      5131.79     6387.951     93.44687     186.4496      372.714      3.099    12.30     1224.775     65.70996     178.8813        50     2.264     2.025 -56.40   0
       322    982.5185    178.6214 307.5128358  +6.6221897     771.8521     1905.232     1484.675     93.15069     186.0788      372.714      2.323     7.02     1219.251     65.70996     103.9381        11     1.554     0.889 -49.08   0
       323     81.0388    170.6620 307.8888125  +6.5955307      1583.84     4401.249     6596.989     93.44687     186.4496     372.8252      3.158    10.80     1252.232     65.70996     197.0643        40     2.265     1.698 -66.55   2
       324    225.7271    167.1810 307.8286330  +6.6017936     1647.713      7010.42     9350.121     93.00224     186.3755      372.714      3.151     9.64     1246.153     65.70996     261.7473        66     2.289     2.197 -80.22   0
       325    250.3141    165.9437 307.8184285  +6.6031238     9003.388     37288.03     51348.94     93.44688     186.4496     372.9734      3.199     9.93     1244.097     65.70996     1266.589       107     2.470     2.312 -61.07   0
       326    374.4019    161.3549 307.7668704  +6.6091503      12739.3     55098.71     76122.41     92.70464     186.0045     372.3431      3.202     9.79     1230.749     65.70996     1787.568       118     2.510     2.322 -66.03   0
       327    132.2126    163.1210 307.8677437  +6.6003523     1574.271     3809.674     5557.659     93.00224     186.0787     372.5656      2.823    10.19     1249.147     65.70996     213.9551        31     2.250     1.427  53.74   2
       328    128.0129    164.2721 307.8694546  +6.5997368     986.1815     2000.759     3228.092     92.85355     186.0045     372.5656      2.712     5.51     1249.448     65.70996     116.8444        11     1.305     0.657  52.53   3
       329    279.0419    159.1530 307.8066877  +6.6068850      5304.42     19818.78     29933.26     93.44688     186.4496     372.6398      3.416     9.81     1241.928     65.70996     717.3544       117     3.020     2.441  -0.65   0
       330    713.4994    157.2208 307.6256843  +6.6221207     10810.53     38492.59     49475.17     93.44688     186.2272     372.5286      2.976     8.03     1221.799     65.70996     1114.068        98     2.302     2.159 -74.77   0
       331     30.5362    155.1417 307.9103894  +6.6002539     2786.148      10639.4     14044.81     93.59461     186.3755     372.8252      3.065     8.91      1253.48     65.70996     423.1055        70     2.271     2.073 -74.79   0
       332    972.1300    138.1803 307.5185354  +6.6385474     1177.097      2570.05     3207.008     93.00224     186.3014      372.714      2.734     8.24     1217.117     65.70996     144.2372        19     1.832     1.035  68.74   0
       333    567.1598    133.1527 307.6874940  +6.6272042     643.7673     1288.286     2577.083      93.2989     186.4496     372.5656      2.570     3.42     1220.359     65.70996     119.0385         5     0.752     0.677 -43.43   0
       334    680.6462    128.4881 307.6403530  +6.6328970     2628.112     9338.771     12019.26     93.44688     186.3014     372.7881      2.993     8.38     1220.533     65.70996     286.3639        66     2.166     2.082 -81.14   0
       335     91.9962    126.2333 307.8857640  +6.6142434     1353.281     5593.602      7340.88     92.55547     186.3014     372.5286      3.051    11.50     1250.193     65.70996     203.1882        53     2.155     1.983 -57.02   0
       336    364.3790    121.3250 307.7724115  +6.6253476     1214.353     3387.649     5620.537     93.00224     186.3014      372.714      3.361    10.76     1232.417     65.70996     146.2131        24     2.177     1.481  48.09   2
       337    327.2116    120.7687 307.7879209  +6.6243402     940.5599      3818.63     4835.602     92.85355      186.153     372.6398      2.999    11.89     1238.054     65.70996     144.4803        35     2.241     1.755 -79.47   0
       338     80.2915    123.1032 307.8907490  +6.6151454     657.3322      1441.08     2703.192     93.44688     187.0415      372.751      2.812     5.40     1250.697     65.70996     110.1224         7     1.274     0.647  -2.46   0
       339    249.1743    132.2404 307.8200533  +6.6170039     7803.075     33694.88      47425.3     93.00224     186.2272     372.5656      3.239     9.94     1245.307     65.70996     1111.895       105     2.512     2.303 -67.41   0
       340    179.4171    110.7412 307.8498594  +6.6235571     1830.338     5320.486     6826.906     93.00224     186.3014     372.4915      2.641     8.94     1246.883     65.70996     259.3416        41     2.373     1.409 -44.39   2
       341    177.0560    107.8841 307.8509410  +6.6246582     1379.094     3035.253     3947.508     93.44688     186.4496     372.8993      2.505     6.74      1246.89     65.70996     159.6027        19     1.593     0.933 -72.91   3
       342    640.6581    109.4738 307.6576658  +6.6394227     1990.964      6085.85     7465.736     93.59462     186.4496      372.751      2.759    10.01     1219.747     65.70996      236.845        45     2.191     1.612 -23.19   2
       343    639.3345    106.1285 307.6583311  +6.6407602     1634.311      2988.05     3081.609     93.44688     186.5237     372.8622      1.992     5.84     1219.631     65.70996     219.3359        15     1.472     0.722 -21.20   3
       344     63.6422    109.8465 307.8981408  +6.6200640     807.4351     1873.142     3179.327     93.44688     186.4496     372.6769      3.045     5.95     1251.195     65.70996     105.9187        10     1.145     0.871 -32.10   2
       345    594.6834     98.1826 307.6772116  +6.6425596     16728.03     42376.34     61964.34     93.00224     186.0787      372.714      3.221    10.05     1219.353     65.70996     1709.216       132     4.283     1.745 -79.43   3
       346    598.3345     97.1505 307.6757249  +6.6431070     16109.11     30379.02        33966      93.2989     186.3014      372.751      2.059     6.17      1219.32     65.70996     1666.137        47     2.078     1.114  89.52   3
       347    321.5597    102.4593 307.7909007  +6.6317131     1293.226     2969.134     4321.606     93.44688     186.4496     372.8622      3.063     7.79     1239.511     65.70996     180.1613        20     1.874     1.057 -79.35   2
       348    317.9652    103.3586 307.7923682  +6.6312221       1140.3     2831.676     4706.269     93.15069     186.4496     372.5656      3.447     9.60     1240.153     65.70996     146.1499        21     2.431     1.058  77.39   2
       349    277.8022     90.7040 307.8095388  +6.6351104     1139.539     2832.955      5193.46     92.85355     186.0787     372.4173      3.634     9.82     1245.713     65.70996     144.6295        17     2.378     1.132 -40.75   2
       350    660.3726     80.7743 307.6504240  +6.6519287     1255.215       4076.2     4835.015     92.85355     186.2272     372.6027      2.900    10.76      1218.41     65.70996     149.4888        36     2.091     1.543  85.34   0
       351    404.0124     72.7989 307.7575463  +6.6467057     1269.002     3484.369     5317.529     93.00224     186.0787     372.5656      3.227     9.19     1227.784     65.70996     167.2915        25     2.062     1.143 -58.42   2
       352    855.4778     68.9266 307.5695041  +6.6632877     906.7119       2525.6     3421.367     93.74213     186.7458     372.8252      2.901     7.54      1213.85     65.70996     142.2085        15     1.797     0.886  71.35   2
       353    873.2760     67.8048 307.5621236  +6.6643402     1556.715     3044.898     3726.063     93.00224     185.8559     372.6398      2.215     8.87     1213.571     65.70996     209.5229        24     2.076     1.058 -76.29   2
       354    876.4656     67.9835 307.5607880  +6.6643720     1402.473      2219.68     2534.292     92.85355     186.3014     372.6398      1.864     5.76     1213.554     65.70996     190.6766        12     1.327     0.703 -68.50   3
       355    114.6316     61.7869 307.8785322  +6.6416120     1194.008      3499.87     5289.034     92.85355      186.153      372.714      3.342     8.85     1247.456     65.70996     184.9897        27     2.445     1.258 -48.31   2
       356    795.6221     53.7470 307.5949681  +6.6675741     2336.129     5528.532      6863.39     92.85355     186.4496     372.5656      2.532     8.15     1213.711     65.70996     280.5156        35     2.228     1.205  77.63   2
       357    798.5272     53.4894 307.5937659  +6.6677767      2140.88     4179.518     5102.463     93.44688     186.7458     372.7881      2.147     6.99     1213.497     65.70996     221.7495        16     1.504     0.915 -67.69   3
       358    740.5719     52.7931 307.6179465  +6.6661437     1134.033     2755.885     4012.715     92.85355     186.2272     372.5656      3.844     9.87     1216.053     65.70996     159.3655        22     2.151     1.262  87.74   2
       359    744.5217     52.4810 307.6163107  +6.6664035     1145.102         2211     3145.012     93.74213     186.7458     372.9734      2.503     6.11     1215.824     65.70996     134.5081        12     1.352     0.776 -86.59   3
       360     36.1261     51.5508 307.9116014  +6.6432185     1099.843     3695.502     5143.562     93.44688     186.5237     372.8252      3.043     8.73      1250.07     65.70996      184.208        30     2.080     1.653 -56.76   0
       361    736.3349     40.8515 307.6201180  +6.6709348      815.189     2550.672     2843.838     93.44688     186.3755     372.7881      2.799     9.11     1215.658     65.70996     102.6516        15     1.930     1.200  87.02   0
       362     63.6683     35.3569 307.9006759  +6.6508254     3037.535      10816.8     14779.84     93.44688     186.3755     372.8993      3.080     8.59     1248.206     65.70996     444.0791        70     2.325     2.015 -60.50   0
       363    392.7389     35.5979 307.7635125  +6.6616932     850.0267     2588.247     3977.297     92.70464     186.2272     372.4544      3.083    10.39     1231.442     65.70996     120.4966        16     2.438     1.233 -25.51   0
       364    764.5893   1014.6791 307.5753086  +6.2697032     4635.977     9661.686     10270.87     93.00224      186.153     372.6398      2.173     4.63     1277.406     65.70996     542.0177        47     1.710     1.540 -66.82  16
       365    862.5876   1010.8629 307.5346217  +6.2745234     1060.255     2179.519     1813.793     92.85355     186.2272     372.5286      1.989     6.27     1276.742     65.70996     127.3505        14     1.372     0.987 -26.50   0
       366    185.8287   1010.1879 307.8165052  +6.2523338     1451.201     3121.195     4263.134     92.85355     186.2272     372.6769      2.414     5.78     1277.294     65.70996      185.819        20     1.487     1.058  21.32   0
       367    688.3733   1007.2135 307.6073054  +6.2702610     4669.388     10112.21     11275.82     93.15069     186.2272      372.714      2.275     4.95     1277.348     65.70996      504.392        49     1.688     1.624 -86.91   0
       368    403.2840   1007.5663 307.7260299  +6.2606523     2299.562     5752.294     6911.094     93.44688     186.3014      372.751      2.492     6.22     1279.435     65.70996     267.7244        41     1.774     1.586  76.80   0
       369    409.6736     16.6457 307.7570996  +6.6700831     4566.982     5878.365     6050.712      93.2989     186.5237     372.7881      1.342     3.70     1230.913     65.70996     621.2701         9     0.905     0.830 -32.02   3
       370    544.6213   1006.5865 307.6671982  +6.2657517     2310.567      5807.07     7182.381     93.15069      186.153     372.6769      2.542     6.06     1279.454     65.70996     269.6566        36     1.823     1.385 -45.06   0
       371    720.8813   1002.0563 307.5939408  +6.2734681     870.1069     1378.033     1556.075     93.59461     186.4496     372.8252      1.834     5.58     1277.058     65.70996     121.5214         9     1.276     0.688  -8.57   0
       372    219.0304     18.0300 307.8365139  +6.6631632     971.8373     2068.056     4079.534     92.85355      186.153     372.4915      3.094     5.66      1246.37     65.70996     119.0552        10     1.078     0.836  38.54   3
       373    927.8234    996.5988 307.5079336  +6.2825720     5403.609     10151.24      10620.6     93.00224     186.0787     372.5286      1.986     4.12     1274.236     65.70996     647.9033        38     1.613     1.303 -50.16   0
       374    687.6107    994.7002 307.6080474  +6.2754034     1735.392     4109.496     5779.177     93.15069     186.0045     372.5286      2.918     6.77     1276.753     65.70996     202.9696        30     1.678     1.563 -22.03   0
       375    334.8640    992.3021 307.7550449  +6.2646809     1125.541     2488.298     2473.025     93.44688     186.5237     372.8252      2.244     7.58     1279.202     65.70996     146.3707        16     1.461     1.100  35.29   0
