#   1 NUMBER                 Running object number                                     
#   2 X_IMAGE                Object position along x                                    [pixel]
#   3 Y_IMAGE                Object position along y                                    [pixel]
#   4 ALPHA_J2000            Right ascension of barycenter (J2000)                      [deg]
#   5 DELTA_J2000            Declination of barycenter (J2000)                          [deg]
#   6 FLUX_APER              Flux vector within fixed circular aperture(s)              [count]
#   9 FLUXERR_APER           RMS error vector for aperture flux(es)                     [count]
#  12 FLUX_RADIUS            Fraction-of-light radii                                    [pixel]
#  13 FWHM_IMAGE             FWHM assuming a gaussian core                              [pixel]
#  14 BACKGROUND             Background at centroid position                            [count]
#  15 THRESHOLD              Detection threshold above background                       [count]
#  16 FLUX_MAX               Peak flux above background                                 [count]
#  17 ISOAREA_IMAGE          Isophotal area above Analysis threshold                    [pixel**2]
#  18 A_IMAGE                Profile RMS along major axis                               [pixel]
#  19 B_IMAGE                Profile RMS along minor axis                               [pixel]
#  20 THETA_IMAGE            Position angle (CCW/x)                                     [deg]
#  21 FLAGS                  Extraction flags                                          
         1      1.9032     71.9797 307.9350729  +6.6319395     411349.4     525808.1     556452.2     74.37624     132.3168     244.0279      1.379     9.72     843.8089     55.07085     62883.46       219     2.002     1.316 -86.81  28
         2    619.1103     13.8206 307.6807147  +6.6765366     3031.584     5081.134     5718.159     78.19286     156.0129     312.2746      1.818     5.78     826.6664     55.07085     439.5184        25     1.662     0.824  35.38   2
         3    438.3164     15.7321 307.7557336  +6.6697316     21808.58     35205.11     36517.45     78.56432     156.5098      312.461      1.741     5.36     831.5925     55.07085     2963.935        43     1.755     0.909  32.55   0
         4    318.9886     16.8458 307.8052514  +6.6652951     860.9095      1578.38     924.4542     77.81962     156.0751     312.1502      1.818     6.02     838.2184     55.07085     146.5993        11     1.563     0.653  39.77   0
         5    258.8863     16.2109 307.8302320  +6.6635524     8515.413      14125.8     15151.01     77.94423     156.0129     312.2746      1.742     5.75     838.7377     55.07085     1329.024        34     1.731     0.858  32.06   0
         6    916.3624     15.6794 307.5572019  +6.6856351      1644.98     2897.407     3209.541     78.19286     156.3236     312.4299      1.863     5.76     824.6907     55.07085     188.2531        20     1.717     0.784  40.07   0
         7     24.2107     16.0549 307.9276911  +6.6557768     2048.301     3321.647     3037.421     77.69481     156.1994     312.1191      1.716     5.42      842.699     55.07085     275.3507        20     1.723     0.689  31.56   0
         8    246.7621     12.8182 307.8353808  +6.6645487     2832.385     4774.288     4936.162     77.94423     156.1373     312.1813      1.731     6.29     838.7075     55.07085     374.4584        21     1.650     0.757  31.63   0
         9    300.0897     11.0778 307.8132933  +6.6670464     923.9036     1453.906     1795.186     78.06864     156.5098     312.5541      1.760     4.71     838.6235     55.07085     141.7078         9     1.333     0.472  31.63   0
        10    936.7289      5.2254 307.5490920  +6.6906265     796.1328     1728.713     2018.263     77.94424     156.1373     288.5965      2.405     6.61     824.1083     55.07085     106.8846        14     1.727     0.709  37.69  16
        11    688.3167      5.2935 307.6522582  +6.6823573       1648.4      2688.28     2973.469     78.06865     156.6337     289.3689      1.717     5.30     826.3035     55.07085      226.366        19     1.558     0.793  25.96  16
        12     93.0352      5.8172 307.8994548  +6.6623051     565.9351     881.5826     755.1341     77.94423     156.0751     294.4556      1.719     3.96      838.171     55.07085     112.7726         6     1.027     0.438  36.12  16
        13    254.6006      1.2732 307.8325131  +6.6695772     514.6533     542.8426     765.3336     66.81527     122.8858     233.7497      0.940     2.37     838.6847     55.07085     168.9471         6     0.862     0.444  -2.42  24
        14    199.9684      1.3817 307.8551972  +6.6677088     611.6651     860.6471     527.7669     68.39436      124.689     235.8165      1.508     3.81     838.4896     55.07085     117.8809         6     0.982     0.424  15.48  24
        15    955.0557    994.2410 307.5085440  +6.2828428     4737.204     9782.324     10212.07     78.19286     156.3236      312.461      2.157     5.49     853.4394     55.07085     530.5139        45     1.977     1.247  34.39   0
        16    796.6664   1023.3022 307.5733043  +6.2655944       7035.5        10771     11283.22     72.66015     129.6495     241.0267      1.628     5.82     857.2449     55.07085     1135.287        28     1.765     0.783   9.00  24
        17     66.8048   1023.6323 307.8761511  +6.2411687     2535.685     3439.958     3554.399      67.8244     124.4553      235.487      1.338     3.58     856.8847     55.07085     600.2095        16     1.530     0.543   4.00  24
        18    239.5901    994.6082 307.8054288  +6.2589189      1047.08     2020.982     2034.613     77.81963     156.0751     312.3367      1.853     6.27      857.056     55.07085     147.7122        14     1.476     0.749  16.02   0
        19    715.1229    992.4772 307.6081705  +6.2756177     2181.086     4137.742     5456.622     78.56432     156.5098     312.5231      2.158     5.14      858.631     55.07085     295.4484        28     1.833     0.949  27.12   0
        20    438.6861    993.6053 307.7228460  +6.2659650     818.1352     1414.928     1335.485     77.81963     155.9507     312.1502      1.684     5.49     859.5342     55.07085     106.5385        11     1.395     0.610  26.69   0
        21    730.7506    991.4214 307.6017205  +6.2765723      843.719     1630.735     1922.182     77.81963     156.3236     312.3056      2.055     6.08     858.4271     55.07085     114.1616        10     1.515     0.686  35.45   0
        22    361.4548    990.0851 307.7550118  +6.2648475     1469.126     2827.916     3465.453     78.31688     156.2616     312.5852      2.191     5.89     859.0416     55.07085     180.5058        23     1.775     0.854  27.71   0
        23    294.0731    978.9930 307.7833440  +6.2671827     12343.08     22905.88     26224.23     77.94423     155.8262     312.3367      2.043     4.99      858.532     55.07085     1624.354        69     1.943     1.488  13.30   0
        24    748.3973    979.4802 307.5947957  +6.2820886     6470.918     12144.08     13253.02     77.69481     155.7639     312.1813      1.990     5.01     857.7847     55.07085     765.5366        45     1.912     1.137  33.35   0
        25    543.7604    980.2015 307.6796915  +6.2749946     3480.122     6472.762     7399.911     77.44459     156.0129     312.1191      1.998     5.28     859.9656     55.07085     451.6141        31     1.839     1.000  29.67   2
        26    541.0070    972.4235 307.6810940  +6.2781147     6758.015     12654.18     14392.79     77.81962     156.0751     312.2746      1.947     5.21     859.7002     55.07085     827.7128        41     1.848     1.068  33.60   3
        27    514.7128    981.6256 307.6916979  +6.2734407     885.2336     1513.093     1358.504      78.4407     156.0751     312.3056      1.792     5.43     859.8328     55.07085     112.3039        10     1.345     0.619  32.00   0
        28    418.5121    979.6765 307.7316834  +6.2710450     966.8311     1703.065     1662.625     78.31688     156.5718     312.5231      2.001     5.79      858.985     55.07085      106.991        12     1.178     0.800  23.24   0
        29    809.5332    978.5980 307.5694546  +6.2844806     803.7678     1336.697     1348.718     77.81963     155.8885     312.2124      1.692     5.74     856.3328     55.07085     141.6382        10     1.448     0.642  35.90   0
        30    909.7045    972.8931 307.5280747  +6.2901560     6572.907     13081.64     15019.77     78.31688     156.8195     312.3678      2.211     5.01     854.4044     55.07085     791.9238        50     2.002     1.265  38.85   0
        31    265.4189    976.4751 307.7953187  +6.2672673     915.5426     1404.683     1304.813     77.81963     156.0129     312.3678      1.747     6.51     857.5628     55.07085     108.0331        14     1.324     0.898  17.35   0
        32   1004.8922    968.4402 307.4887206  +6.2951463     3444.308     7303.761     8181.614      78.4407     156.1994      312.492      2.251     5.73     851.0352     55.07085     391.7266        45     2.042     1.320  34.58   0
        33    883.2685    969.0499 307.5391734  +6.2908672     9335.904     18970.67     21723.98     78.19286     156.1994     312.4299      2.229     5.18     854.7022     55.07085     1095.116        63     2.050     1.380  28.88   0
        34    595.7691    969.3508 307.6584716  +6.2812036     1076.141     1816.224     1921.675     77.94424     156.2616     312.3367      1.793     6.65     859.6282     55.07085     154.4716        16     1.539     0.902  24.96   0
        35    527.8461    968.2053 307.6866965  +6.2794190     3354.367     6272.627     7911.699     77.69481     156.0751     312.1191      2.248     5.76     859.5129     55.07085     419.3365        37     2.181     1.025  16.72   0
        36    637.0667    967.3763 307.6413998  +6.2833909     1095.352     2063.017     2304.495     77.94423     156.2616     312.3678      1.929     6.54     859.0305     55.07085     153.0634        17     1.691     0.710  30.67   0
        37     62.3015    967.1035 307.8799175  +6.2643593     799.9863     1340.136      1159.15     78.31688     156.7576     312.2746      1.825     6.79     854.3364     55.07085     109.0467        12     1.328     0.974  29.47   0
        38    480.2785    964.6002 307.7065564  +6.2793255     1851.568     3542.041     3529.482      77.5698     155.6392     312.1502      1.896     5.63     859.2006     55.07085     238.6625        24     1.824     0.832  30.98   0
        39    915.0242    956.5922 307.5264097  +6.2970633     33079.75     65875.12     72628.82     77.94423     156.1373     312.2746      2.124     5.22     853.8814     55.07085     3743.935        80     2.074     1.335  34.96   0
        40    222.1389    954.9923 307.8139982  +6.2746948     1475.068     2818.279     2732.585     77.69481     156.0751     312.2124      1.956     6.19     855.8685     55.07085     198.1927        22     1.748     0.865  25.57   0
        41    621.3808    952.9833 307.6483897  +6.2888130     708.0989     1340.883     1278.081     78.06864     156.0129     312.3367      1.954     4.05     858.9015     55.07085     135.4709        10     1.296     0.585  44.67   0
        42    812.6583    950.2598 307.5691021  +6.2962858     1866.415     3535.002     3479.567     78.31688     156.1994      312.461      2.024     5.96     855.7523     55.07085     216.9096        24     1.643     0.994  26.20   0
        43    761.0576    948.2639 307.5905827  +6.2953986     5234.696     10068.25     12009.19      78.4407     156.1994      312.461      2.145     5.17     856.8067     55.07085     593.8877        47     2.003     1.251  35.84   0
        44    547.6039    947.5460 307.6791877  +6.2886064     822.1525     1530.974     996.5241     77.69481     156.0129      312.088      1.940     5.56     858.9719     55.07085      122.108        10     1.584     0.551  25.30   0
        45    230.5085    947.6170 307.8107724  +6.2780192     1238.959     2173.459     2492.708     78.06865     156.0129     312.3367      1.881     6.60     855.9619     55.07085     181.9373        17     1.719     0.711  31.16   0
        46    195.1708    947.5612 307.8254382  +6.2768637     770.7037     1120.887     897.9886     77.81962     155.9507     312.2746      1.574     4.04     855.3077     55.07085     128.8582         8     1.324     0.613  12.59   0
        47     55.4648    945.8488 307.8834681  +6.2729071     2243.168     3939.192     4447.869     78.19286     156.1373     312.4299      1.917     5.69      853.296     55.07085     259.6737        27     1.785     1.002  26.39   0
        48    949.3428    943.3207 307.5126093  +6.3036800     5158.772     10169.67     10964.96     78.31688     156.2616     312.3989      2.088     5.09     852.7066     55.07085     635.0632        45     1.930     1.266  31.24   0
        49    206.1578    940.7767 307.8211064  +6.2800315     591.1597     730.3904     1097.007     77.94423     156.1373     312.2124      1.445     4.44     855.4017     55.07085     93.65918         7     1.044     0.537  64.50   0
        50    631.5896    937.1880 307.6446806  +6.2956743      669.183     1030.288     478.5041     78.06865     156.0751     312.3678      1.687     4.98     858.1995     55.07085     101.5785         7     1.486     0.472  29.57   0
        51    923.0813    934.7814 307.5237922  +6.3063365      1696.87     3461.145     3625.762     77.94423     155.9507     312.3678      2.095     6.38     853.1933     55.07085     237.5127        23     1.652     0.979  30.69   0
        52    782.7397    931.5989 307.5821403  +6.3029992     1015.121     2095.825     1997.674     77.69481     156.0751     312.1191      1.983     7.21     856.1182     55.07085     134.8577        17     1.687     0.952  35.59   0
        53    643.9336    931.2418 307.6397564  +6.2985396     3728.247     6564.837     6668.129     78.31688     156.1994      312.492      1.851     5.20     857.7917     55.07085     477.4059        30     1.741     0.983  34.15   0
        54    256.0133    931.5638 307.8007267  +6.2854982     3737.074     6664.378     6969.125     77.81962     156.0751     312.1502      1.869     5.22     856.0503     55.07085     462.4672        29     1.756     0.950  31.29   0
        55    993.3820    930.3174 307.4947655  +6.3105074     662.9809     1243.358     1013.253     77.94424     155.9507     312.3989      1.837     5.05     851.2224     55.07085     94.35425         8     1.079     0.669  32.54   0
        56     24.9328    929.2862 307.8966938  +6.2787258     1783.783     3210.081     3884.116      78.4407     156.5098      312.461      1.989     6.18     851.9871     55.07085     215.5599        21     1.615     0.922  26.12   0
        57    875.8112    927.7918 307.5436422  +6.3076567     733.4101     1452.576     1395.841     77.94423     156.0751     312.3678      1.883     4.92     853.4405     55.07085     110.7972         8     1.144     0.598   8.71   0
        58    292.0230    924.9811 307.7860041  +6.2894166     647.8359     1492.415     1274.878     78.06864     156.1994     312.3678      1.971     7.24     856.2311     55.07085     117.2131        11     1.972     0.745  28.32   0
        59    568.3937    923.7454 307.6713554  +6.2991253      1301.31     2423.656     2444.529     77.81963     156.0129     312.1502      2.000     5.71     858.2764     55.07085     201.6157        19     1.728     0.752  32.12   0
        60    466.1082    929.3198 307.7136166  +6.2934220     894.4042     1738.862     1794.713     78.06864     156.5098      312.492      1.755     6.60     858.1866     55.07085     120.3568        15     1.811     0.674  30.49   0
        61    608.0045    919.9489 307.6550439  +6.3020093     1170.263     1767.686      1242.65     77.69481     156.0129     312.0258      1.502     5.51     858.1525     55.07085     169.8004        12     1.468     0.583  35.84   0
        62     57.1655    920.9091 307.8835998  +6.2832616     611.8409     1257.661      1960.25      78.4407     156.1373     312.4299      3.079     5.31     852.2563     55.07085     82.99854         9     1.552     0.513  20.09   0
        63    287.5959    917.9784 307.7880759  +6.2921606     1277.086      2146.84     2626.065     77.94423     156.0129     312.2124      1.934     6.08     856.0091     55.07085     163.6707        18     1.613     0.775  21.39   0
        64    555.6736    915.8737 307.6768972  +6.3019529     668.6268     1254.154      1507.33     78.56432     156.5098     312.5231      2.343     5.38     858.1323     55.07085     85.64703         9     1.164     0.701  43.98   0
        65    754.1312    913.3117 307.5946226  +6.3096014     866.3252       1470.3     1464.206      78.4407     156.5098     312.4299      1.802     5.81     856.2101     55.07085     114.6476        11     1.196     0.838   6.14   0
        66    892.0017    910.1013 307.5375122  +6.3154980      5353.58     10631.92     11880.21     77.81962     156.0129     312.1191      2.109     5.32     853.0288     55.07085     649.6345        47     1.970     1.196  32.92   0
        67    101.4171    909.4171 307.8656226  +6.2894847     481.6667     825.4048     568.6539     78.06865     155.9507     312.3678      1.753     4.82     852.7648     55.07085     83.05017         7     1.356     0.486  35.77   0
        68    427.9227    907.7170 307.7301857  +6.3010715     1945.632     3368.675      3393.81      78.4407     156.5718     312.5541      1.786     5.84     856.9911     55.07085     236.1533        20     1.653     0.785  29.47   0
        69    329.5203    906.0751 307.7710766  +6.2984727     8344.747     14442.02     15640.88     78.56432     156.5098     312.5541      1.861     4.95     855.8022     55.07085     1092.755        41     1.796     1.005  29.63   0
        70    249.6273    905.0940 307.8042638  +6.2962150     6071.138     10675.85     11387.87      78.4407     156.0129     312.2746      1.845     5.09     855.2931     55.07085      795.269        35     1.766     1.001  29.95   0
        71    577.7181    899.5256 307.6682949  +6.3094360     1069.229     2051.758     2486.371     78.56432     156.5718      312.492      2.111     5.58     857.7542     55.07085      157.892        17     1.493     0.975  28.58   0
        72    762.4039    899.4119 307.5916529  +6.3156154     543.6474     776.6093     438.9526     77.94424     155.9507     312.3056      1.428     3.91     855.7808     55.07085     82.19153         5     0.990     0.443  76.23   0
        73    907.6838    895.3676 307.5314945  +6.3221015     953.4543     1818.309     2098.715     78.31688     156.0751     312.3678      1.837     7.11     852.5049     55.07085     121.1262        18     1.915     0.739  30.12   0
        74    863.0569    893.4875 307.5500780  +6.3213992      670.575     1177.524     1206.842     78.31688     156.1373     312.5541      2.159     5.83     853.3513     55.07085     100.0273         7     1.425     0.671  27.87   0
        75    407.0757    894.0126 307.7392957  +6.3060363     491.0506     828.2996     914.1779     77.94423     155.9507     312.2435      1.472     4.10     856.1605     55.07085     81.81274         7     1.462     0.328  27.92   0
        76    976.4446    890.9495 307.5031045  +6.3262029      573.902     1207.719     1924.739      78.4407     156.1373      312.461      2.163     4.46     850.7943     55.07085     100.0287         5     1.002     0.565  10.11   0
        77    744.1327    888.3905 307.5996032  +6.3195602     1420.508      2613.55     3086.424     77.81962     156.0751     312.3678      1.857     5.91     855.9789     55.07085      183.673        18     1.599     0.779  39.70   0
        78    568.4161    889.4973 307.6724903  +6.3132678     697.5947     988.7079     788.0607     78.19286     156.0129     312.2746      1.629     5.26      857.565     55.07085     83.25574         8     1.092     0.715  30.47   0
        79    529.3306    884.6917 307.6888716  +6.3139527     924.1185      1637.02     2078.387     78.31688     156.3857     312.4299      1.913     5.70     857.6036     55.07085     140.2214        13     1.637     0.559  34.43   0
        80    975.2133    884.0002 307.5038468  +6.3290317     897.5826     1655.245     2382.149     77.94423     155.9507     312.2435      2.163     6.25     850.6557     55.07085     127.6874        13     1.536     0.830  27.91   0
        81    607.8876    884.9200 307.6562623  +6.3164696     672.2829     1321.999     1376.493     78.06864     156.5098     312.5541      1.916     6.23     857.2751     55.07085     94.51154        10     1.700     0.642  24.16   0
        82    662.7097    881.6690 307.6336191  +6.3196330     2092.903     3723.129     4054.215     78.31688     156.3857     312.4299      1.862     5.31      856.727     55.07085     296.2615        23     1.692     0.875  34.28   0
        83     59.1960    878.2978 307.8841881  +6.3009239     2452.927     4712.127      4956.42     78.06864     155.9507     312.1191      2.050     5.53     850.8602     55.07085      297.642        34     1.907     1.055  26.73   0
        84    824.5034    879.0443 307.5665597  +6.3260852     795.9695     1236.664     1455.398     78.31688     156.1994     312.5852      1.802     5.71     853.9528     55.07085     100.9815        10     1.171     0.785  18.65   0
        85    202.6586    877.2710 307.8246879  +6.3061370     1986.921     3214.253     3363.069      78.4407     156.2616      312.461      1.739     5.31     854.0945     55.07085     246.4015        20     1.588     0.827  33.31   0
        86     76.7872    877.4603 307.8769162  +6.3018573     1747.094     3164.239     3349.795     77.69481     156.1373     312.1502      1.963     5.26     851.3156     55.07085     283.5135        23     1.810     0.828  30.76   0
        87    940.6176    877.7857 307.5184116  +6.3304524     538.6371     881.0712     1327.495     78.06865     155.9507     312.3678      1.577     3.76     851.3691     55.07085     74.04657         5     1.013     0.401  -5.46   0
        88    960.1380    874.4146 307.5104223  +6.3324908     344.7131     883.0089     1589.845     77.81962     156.1994     312.2435      2.350     4.87     850.7949     55.07085     79.16528         5     1.420     0.473   5.83   0
        89    341.8180    873.4525 307.7670656  +6.3123527     800.0109     1499.397     1831.369     77.81962     156.3236     312.1813      1.891     5.78     855.0975     55.07085     112.1945        12     1.384     0.681  21.95   0
        90    237.1810    873.8927 307.8104748  +6.3086833     654.7492     1265.845      1495.07     78.19286     156.0129     312.2746      1.797     4.91     854.4451     55.07085     100.9995         7     1.068     0.638  21.33   0
        91    657.1720    870.9444 307.6362753  +6.3238775     5856.901     10439.07     10933.75     77.94423     156.3236     312.2435      1.877     4.90     856.6125     55.07085      810.004        36     1.771     1.014  32.54   0
        92     17.0437    869.7784 307.9019665  +6.3030332     1073.639     1900.739     1990.182     77.81962     156.1373     312.2435      1.799     6.04     849.3948     55.07085     153.8212        14     1.379     0.744  26.72   0
        93    895.0809    867.1036 307.5376661  +6.3333550     2060.128     3869.332     4265.723     78.06864     156.5718      312.492      1.946     5.14     852.3132     55.07085     254.2833        28     1.735     1.105  31.52   0
        94     30.6029    868.0990 307.8963961  +6.3041797     987.7183     1857.401     1880.579     78.06864     156.0129     312.1191      1.878     5.56     849.7166     55.07085     146.4789        15     1.529     0.801  25.94   0
        95    340.2368    864.3675 307.7680261  +6.3160514     14277.47     24887.22     27140.36     77.94424     156.0129     312.1813      1.857     5.16     854.8748     55.07085     1795.498        50     1.839     1.043  30.40   0
        96     75.1390    865.4943 307.8780019  +6.3067431     1143.879      1998.36     2047.171     78.19286     156.3236      312.461      1.832     4.92     850.8995     55.07085     153.2502        15     1.499     0.767  39.03   0
        97    210.9713    863.8019 307.8216899  +6.3119758     1075.252      1798.78     2072.597     77.81962     156.0129     312.2435      1.880     5.88     853.9514     55.07085     145.0747        13     1.381     0.705  30.21   0
        98    391.2420    863.3704 307.7468922  +6.3181618     544.0539     816.1292     910.0651     77.94424     156.1373     312.3056      1.703     3.88     855.0461     55.07085     108.2047         5     1.123     0.384  16.12   0
        99    417.7318    855.1429 307.7361741  +6.3224410     905.4612     1581.503     1249.913      78.4407     156.1994     312.3678      1.751     6.44     854.8359     55.07085     129.9628        12     1.374     0.847  33.26   0
       100    103.4016    855.1561 307.8666204  +6.3119557     1489.731     2426.192     2943.067     77.69481     155.9507     312.0569      1.742     5.13     851.3268     55.07085      171.876        18     1.467     0.810  28.89   0
       101    499.8904    851.9882 307.7021828  +6.3264775     1003.408      1245.06      1406.15     78.06864     155.9507     312.2435      1.414     0.00     856.4486     55.07085     534.6331         8     1.546     0.597  17.73   0
       102    671.8455    851.3088 307.6308410  +6.3324727     700.0216     1099.693     1891.901     78.31688     156.1994     312.5541      1.741     3.92     856.1116     55.07085     95.89642         7     0.870     0.580  30.21   0
       103    885.3553    848.6683 307.5423165  +6.3406452     1540.623     2928.698     2887.639     78.31688     156.1994      312.461      1.925     5.42     852.4739     55.07085     202.6911        21     1.624     0.901  24.56   0
       104     87.0087    848.6382 307.8736421  +6.3140995     1989.859     3522.327     4031.955     77.56979     156.0129     312.1502      1.855     5.54     850.7046     55.07085     270.9734        20     1.696     0.740  28.74   0
       105    855.9585    848.2307 307.5545317  +6.3398517     1617.711     2903.052     2883.045     77.81962     156.1373     312.2746      1.928     5.62     853.1426     55.07085     216.4719        25     1.784     0.988  27.71   0
       106    819.4520    847.7115 307.5697003  +6.3388559     2618.999     4559.753     4899.997     78.31688     156.0751     312.5231      1.820     4.98     853.5413     55.07085     354.1975        26     1.689     0.917  31.56   0
       107    335.7207    847.0065 307.7704817  +6.3230695     669.7299     998.9896     1386.653     77.94423     155.7639     312.2124      1.772     5.74     854.4627     55.07085     114.1122         8     1.546     0.601  14.58   0
       108    555.3021    839.3970 307.6796068  +6.3335193     294774.5     505741.1     535770.6     78.06865     156.0129     312.1191      1.836     5.18     856.1221     55.07085     39556.88       160     1.961     1.202  33.42   0
       109    450.4674    845.8890 307.7228980  +6.3273517     607.3363      860.504     1282.166      78.4407     156.4478     312.3678      1.610     4.58     855.2258     55.07085     76.24011         7     1.283     0.464  21.07   0
       110    643.4916    842.5878 307.6428996  +6.3351322     1073.471     1651.546     2110.836     78.06865     156.0129     312.2124      1.826     6.36     856.0626     55.07085     131.4127        15     1.490     0.763  34.39   0
       111    399.6242    842.1372 307.7441242  +6.3272085     6823.265     11633.91     12278.38     77.94423     156.2616     312.3367      1.819     4.88     854.3336     55.07085     872.5693        37     1.766     0.968  32.95   0
       112    456.2930    842.5750 307.7205912  +6.3289140     483.0098     959.9579     1896.867      78.4407     156.0129     312.2746      3.131     6.06     855.1918     55.07085     79.44843         8     1.799     0.575  42.99   0
       113    342.7610    840.5355 307.7677766  +6.3259760     11047.38     18927.58      19669.9     78.31688     156.1994      312.492      1.828     5.12     854.3279     55.07085     1489.644        42     1.809     0.985  29.63   0
       114    893.5872    835.3973 307.5393420  +6.3463979     4234.633     8022.854     8615.049     77.94424     155.9507     312.2746      2.005     4.88     852.1317     55.07085     494.5409        39     2.004     1.154  22.54   0
       115    661.2729    836.6539 307.6357180  +6.3381730     2966.403     5160.357     5573.156     78.19286     156.1373     312.3989      1.835     5.50     855.8309     55.07085     406.7282        27     1.705     0.896  28.88   0
       116    733.3640    833.3998 307.6059067  +6.3419099     640.9915      1027.94     953.3308     77.31917     156.0129     312.2435      1.415     4.15     854.9486     55.07085     125.6133         9     1.126     0.555  45.41   0
       117    635.8582    830.5221 307.6464706  +6.3398609      2941.65     5192.208     5303.653      78.4407     156.2616     312.3678      1.871     5.40     855.8067     55.07085      374.217        27     1.824     0.830  33.63   1
       118    824.2878    829.7005 307.5682936  +6.3464535     1424.977     2630.909     2846.166     78.31688     156.6957     312.4299      1.898     5.63     853.2757     55.07085     183.2597        22     1.673     0.906  34.19   0
       119    626.3170    829.5805 307.6504619  +6.3399327     863.8179     1696.774     2579.366     77.94424     155.9507     312.3678      2.092     5.48     855.8303     55.07085     128.6921        11     1.509     0.562  22.34   0
       120    178.7070    830.2965 307.8362032  +6.3247341     438.1557     866.7695     816.3522     78.31688     156.7576     312.3989      2.234     3.51     852.6725     55.07085     87.46283         5     1.228     0.290  35.72   0
       121   1023.8865    828.3295 307.4854978  +6.3536307     618.0245     809.8803     1079.573     65.49497     121.0557     231.4968      1.155     3.25     848.0224     55.07085     179.1407         5     0.976     0.315  87.49  24
       122    952.1752    828.8292 307.5152444  +6.3510507     699.9952     1212.476     770.8169     77.81962     156.1373     312.2746      1.880     5.13     850.3199     55.07085     99.06702         8     1.085     0.761   0.42   0
       123    629.0825    825.3190 307.6494564  +6.3417843     2035.117      3600.27     4715.611     78.31688     156.5098     312.5231      2.050     5.58     855.6948     55.07085     252.6606        21     1.679     0.826  21.22   1
       124    912.7047    823.0885 307.5318174  +6.3521139     2650.222     4933.563     5208.464     78.31688     156.6337      312.492      1.915     5.54      851.483     55.07085      332.153        29     1.853     0.953  31.70   0
       125    322.2074    824.1057 307.7768568  +6.3320754      967.734     1510.012     1492.183     77.94423     155.9507     312.2435      1.652     4.85     854.0483     55.07085     136.3708        13     1.347     0.734  33.74   0
       126    370.5639    819.3649 307.7569469  +6.3356438     2397.519      4188.82     4709.501     78.06865     156.0129     312.1813      1.871     5.09     853.6302     55.07085     323.4937        25     1.709     0.855  28.30   0
       127    506.8452    809.1672 307.7007282  +6.3443905     2714.393     4815.279     4884.039     78.06864     156.2616     312.2746      1.855     5.61     853.9515     55.07085     373.4751        26     1.710     0.860  27.75   0
       128    852.2854    808.2977 307.5573867  +6.3562194      832.026     1656.528     1939.955     78.31688     156.6337      312.492      1.941     5.22     852.9232     55.07085     134.8596        13     1.449     0.780  40.73   0
       129    571.8312    806.5258 307.6738452  +6.3476420      642.122     1143.119     774.0148     78.19286     156.2616     312.4299      1.807     4.87     854.9905     55.07085     111.1237         6     1.563     0.430  34.03   0
       130    553.6866    805.2192 307.6814195  +6.3475783     5383.093     9043.081     10018.04     78.06865     156.0129     312.3056      1.765     4.98      854.734     55.07085     732.4215        30     1.778     0.872  32.43   2
       131    560.9886    804.7839 307.6784035  +6.3480008     1116.854     2166.696     2592.716     78.06864     155.9507     312.3367      2.638     6.68     854.8062     55.07085     178.4335        14     1.710     0.732  24.36   3
       132    889.2369    802.8887 307.5422303  +6.3596775      1054.54     2041.274     2658.071     78.31688     156.1994     312.4299      2.179     5.57        852.1     55.07085     195.7848        15     1.600     0.715  43.64   0
       133    471.3424    804.0027 307.7156356  +6.3453419     1465.714     2698.363     3082.653     77.69481     156.0751     312.1813      1.874     5.25     852.9979     55.07085      200.104        19     1.494     0.875  17.78   0
       134    265.5754    805.3743 307.8009876  +6.3379222      568.735     822.2734     603.8192     77.81963     156.0751     312.3367      1.804     3.50      853.854     55.07085     87.72681         5     1.088     0.325  20.19   0
       135    113.0398    803.7950 307.8643446  +6.3334849     1243.015     2213.425     2345.788      77.5698     156.0129     312.1502      1.832     5.81     849.7869     55.07085     167.2749        17     1.560     0.818  35.08   0
       136    689.4053    802.0903 307.6251958  +6.3533793     636.7459     1081.261     226.7297     77.81962     155.9507     312.1813      1.857     6.46     854.7126     55.07085     88.53674         9     1.542     0.761  13.38   0
       137    524.3795    799.0934 307.6937877  +6.3491333     17752.13     30094.81      31501.5     78.19286     156.0751     312.2435      1.790     4.97     853.8627     55.07085     2209.312        48     1.800     0.998  31.17   0
       138    365.3697    800.7139 307.7597271  +6.3431721     718.0657       1315.5      1472.52      78.4407     156.0129     312.3367      1.743     4.29     853.1042     55.07085     114.2258         7     1.427     0.368  26.02   0
       139    938.0432    797.0917 307.5221663  +6.3636880     3229.026     6028.348     6736.865     78.31688     156.2616     312.5231      2.000     5.14      850.369     55.07085     377.1716        34     1.885     1.059  30.67   0
       140     57.6154    795.1960 307.8876348  +6.3351843     475.7417     925.5047     777.5576     77.94424     155.8885     312.2746      1.705     3.43     849.0045     55.07085     73.71588         5     1.212     0.281  34.92   0
       141     34.9036    790.0040 307.8972348  +6.3365692     1376.688     2311.815     2345.662     78.06864     155.9507     312.1191      1.770     4.71     848.9816     55.07085     168.7094        19     1.420     0.896  29.45   0
       142    316.9802    787.9487 307.7802374  +6.3468309     2822.641     4779.293     4386.227     77.81962     156.3236     312.2435      1.765     5.16     853.4898     55.07085     374.6498        25     1.678     0.843  32.64   0
       143    579.6078    789.0624 307.6712012  +6.3551115     545.1149     1024.229     854.2061     77.69481     156.0751     312.2435      1.911     4.24     854.4611     55.07085     83.31006         5     1.087     0.472  27.31   0
       144    782.5263    783.5040 307.5871665  +6.3641443     47576.54     82482.62     87743.66     78.06865     156.3857     312.4299      1.877     5.08     852.8697     55.07085     6004.664        78     1.944     1.124  32.66   0
       145     16.7077    786.3140 307.9049101  +6.3374847     1839.413     3333.981     3807.051     78.19286     156.6957     312.5231      2.024     6.39     848.9764     55.07085     245.5344        25     1.867     1.070  23.15   0
       146    239.7829    781.6167 307.8124884  +6.3468720     4684.101     8449.975     10551.27     78.06865     155.9507     312.3678      2.046     5.00     852.5664     55.07085     608.4167        38     1.863     1.010  26.50   0
       147    426.4587    782.4166 307.7349859  +6.3527615     742.1656     793.0805     1004.441     77.81963     156.1994     312.1813      1.497     4.30     852.5755     55.07085     145.1073         5     1.077     0.489   3.60   0
       148    907.8977    778.6351 307.5352929  +6.3703108     7195.146     12998.47     13932.98     78.31688     156.1373     312.5852      1.919     4.99     850.8092     55.07085     904.4462        38     1.802     1.043  32.27   2
       149    904.7385    770.0147 307.5368913  +6.3737657       5410.3     9756.737     10784.01     77.81962     156.1994     312.2435      1.949     4.98     850.6256     55.07085     651.4066        37     1.830     1.012  35.11   2
       150    710.8644    778.1910 307.6170869  +6.3639603     18681.73     32643.68     34737.73     77.81962     156.0751     312.3056      1.820     5.97      853.884     55.07085     2471.177        30     1.710     0.837  25.93   3
       151    704.4792    774.6732 307.6198545  +6.3652009     78236.41     133473.6       144834     78.56432     156.5098      312.461      1.881     5.34     853.8958     55.07085     10410.26       102     2.122     1.167  29.49   3
       152    349.3540    775.7130 307.7672112  +6.3529619     18800.05     31539.63     33403.09     78.31688     156.1373     312.4299      1.798     5.09     852.9299     55.07085     2530.023        46     1.798     0.974  30.84   0
       153    411.2391    773.5018 307.7416009  +6.3559359     20083.24     33720.53     35329.76     78.31688     156.1373     312.6473      1.806     5.29     852.5154     55.07085     2890.408        51     1.812     0.996  32.30   0
       154    398.6800    775.9340 307.7467320  +6.3545134     1297.188     2129.869     2107.713      78.4407     156.3857     312.3989      1.811     6.45     852.6117     55.07085      173.529        17     1.597     0.732  38.54   0
       155    614.6740    774.1649 307.6571449  +6.3624283     436.3849     407.1098     9.211659     78.19286     156.3236     312.3989      1.041     3.55     854.3572     55.07085     81.38232         5     1.161     0.313  10.23   0
       156    239.2366    760.0800 307.8134372  +6.3557465     739967.5      1762016      1972135     78.19286     156.3236     312.4299      2.364     9.35     851.5577     55.07085     62651.31       549     2.549     1.926  33.37   4
       157    948.0643    772.1577 307.5188371  +6.3743159     1605.294     3091.478     3300.901     78.31688     156.1994      312.461      2.062     6.60     849.3044     55.07085     191.9746        22     1.891     0.816  33.07   0
       158    645.2786    769.3378 307.6446037  +6.3654382     5610.829     9415.626     9694.235     78.56432     156.3236     312.4299      1.787     5.49     854.1379     55.07085     738.8114        31     1.712     0.900  31.55   0
       159    136.2209    770.1731 307.8558527  +6.3481416     492.1304     527.8311     725.6058     77.94423     156.0751     312.3678      1.259     3.92     849.4705     55.07085     77.61823         5     0.961     0.457  43.84   0
       160    434.0663    767.3786 307.7323316  +6.3592242     1611.014     2824.213     3087.879     77.94423     156.2616     312.3678      1.852     6.21     852.3947     55.07085     220.0082        19     1.666     0.795  30.19   0
       161    872.9680    761.1458 307.5503733  +6.3763752     712.0054     1189.001     1140.948     78.19286     156.3236     312.3989      1.762     5.81     851.3343     55.07085     98.51544         8     1.116     0.852  29.37   0
       162    599.2319    761.9070 307.6639636  +6.3669767     706.9656      1262.65     1176.088      78.4407     156.0751      312.461      2.244     4.41     853.8444     55.07085     117.4446         6     0.941     0.589  33.08   2
       163    149.5857    760.2252 307.8506398  +6.3526953      872.201      1446.64     1068.834     78.06865     156.0751     312.3678      1.668     5.69     849.3099     55.07085     122.0512        11     1.473     0.620  44.73   0
       164    124.4514    760.2065 307.8610718  +6.3518639     814.5711     1404.552     1489.518     77.81963     156.0751      312.088      1.585     5.68      848.946     55.07085     155.9877        12     1.518     0.598  28.49   0
       165    680.4333    759.4185 307.6303439  +6.3707016     2112.332     3542.525     3663.083     77.81963     156.0751     312.2435      1.776     5.57     853.7506     55.07085     298.3965        19     1.660     0.726  27.51   0
       166    414.1667    756.1571 307.7409663  +6.3631953     47682.97     80659.55     84969.02     78.06864     156.2616     312.2746      1.788     5.28     852.2808     55.07085     6557.152        67     1.822     1.039  29.55   0
       167    957.0975    757.1431 307.5155876  +6.3808149     612.3035     1080.486     1660.862     78.19286     156.1994     312.6162      2.261     5.22     848.5994     55.07085     98.42963         5     1.205     0.638  66.55   0
       168    531.9612    755.1337 307.6921106  +6.3675373     6370.432     10913.01     11107.44     78.19286     156.1994     312.5231      1.767     5.22     852.6227     55.07085     894.8136        32     1.723     0.900  31.15   0
       169    448.7118    753.8210 307.7267068  +6.3653098     4008.143     6910.003     7753.292     78.31688     156.0129     312.3056      1.898     5.19      852.238     55.07085       565.03        29     1.729     0.886  31.75   0
       170    777.1402    751.6016 307.5904658  +6.3771389      9926.37     17388.56     18466.08     77.69481     156.0129     312.1502      1.849     5.04      852.247     55.07085     1424.354        45     1.829     1.028  29.57   0
       171    445.2149    747.1741 307.7283806  +6.3679381     1933.312     3310.715     3696.277     78.06864     156.0751     312.3678      1.878     5.30     852.1536     55.07085     259.1522        19     1.635     0.716  30.63   0
       172      6.5531    748.0911 307.9104088  +6.3529277     878.8643     1375.116     1616.727     78.31688     156.1994     301.4907      1.640     3.66     848.8163     55.07085     150.1281         9     1.039     0.643   8.33  16
       173    798.7109    745.5972 307.5817129  +6.3803338     1121.563      1681.18     1485.514     77.69481     155.9507     312.1502      1.599     5.97      851.613     55.07085     157.5786        15     1.539     0.661  31.05   0
       174    143.0368    744.2601 307.8538936  +6.3590688     2726.262     5019.334     5591.191     78.31688     156.3236     312.3989      2.127     5.95     848.5734     55.07085     353.4048        28     1.739     0.941  29.15   3
       175    134.8156    743.9390 307.8573164  +6.3589270     10318.86     17804.79     18887.45     77.81962     156.1994     312.2124      1.813     5.18     848.5394     55.07085     1339.679        40     1.770     0.972  27.60   3
       176    126.9976    741.3881 307.8606467  +6.3597192     2770.061     5007.629     5711.581     77.94423     155.9507     312.2435      1.902     5.29     848.4147     55.07085     365.5779        25     1.762     0.829  30.76   3
       177    922.7628    740.1366 307.5304050  +6.3867003      5403.23     9620.019     10598.44     78.31688     156.2616     312.4299      1.894     4.96     849.1556     55.07085     688.2083        36     1.789     1.018  33.67   0
       178    972.2030    740.2560 307.5098799  +6.3882883     1315.145     2251.342     2783.976     77.69481     156.0751     312.1191      1.794     5.73      847.697     55.07085     183.1831        14     1.360     0.854  27.42   0
       179    677.9865    737.8145 307.6320806  +6.3795412      1461.37     2597.913     3181.607     78.19286     155.9507     312.3678      2.150     5.96     853.2305     55.07085     186.8994        17     1.694     0.667  29.28   0
       180    565.0528    737.2868 307.6789724  +6.3760069     2141.531     3555.321     3590.098     78.31688     156.1373     312.5852      1.739     5.13     852.4086     55.07085     306.1689        24     1.793     0.787  30.12   0
       181    413.0259    736.9073 307.7420841  +6.3711059      1022.31      1782.62     2002.231      78.4407     156.0129     312.2746      1.839     5.77     852.0588     55.07085     153.6944        13     1.435     0.653  25.81   0
       182    127.0250    734.8645 307.8608543  +6.3624138         1650     2747.378     2803.923     77.94423     156.2616     312.3678      1.750     5.42     848.2599     55.07085     229.3368        18     1.578     0.727  26.58   0
       183    916.9486    732.1559 307.5330841  +6.3898032     2678.831     4749.826     5247.837      78.4407     156.1994      312.461      1.923     5.08     849.1686     55.07085      345.507        30     1.795     0.940  34.79   0
       184    977.2960    731.4337 307.5080596  +6.3920999     1528.504     2792.942     3219.371      78.4407     156.1373     312.5541      2.066     5.64     847.4571     55.07085     226.2047        23     1.859     0.886  27.59   0
       185    946.3256    731.6989 307.5209057  +6.3909649     2445.131     4559.791     4819.829     77.81963     156.3857     312.3989      1.954     5.58     848.3401     55.07085     362.7864        25     1.787     0.904  27.22   0
       186    669.2698    731.6217 307.6359053  +6.3818089      1294.48     2069.926     2525.727     77.94424     156.1994     312.3989      1.817     5.86     853.0804     55.07085     180.5472        16     1.594     0.701  23.67   0
       187    816.6332    729.8192 307.5747999  +6.3874433     822.6866     1292.398     1523.873     77.81962     156.0751     312.2435      1.778     5.08     851.0817     55.07085      129.764        10     1.516     0.482  22.84   0
       188    241.5344    726.7318 307.8136016  +6.3695930       1588.2     2843.592     3545.915     78.31688     156.3236      312.461      1.928     5.40     850.1185     55.07085     221.2458        19     1.537     0.892  20.26   0
       189    891.7001    727.0778 307.5437332  +6.3910636     687.0104     1196.431     1458.407     78.06864     156.5098      312.461      2.088     5.32     849.7764     55.07085     85.87225         7     1.040     0.846  33.38   0
       190    934.5285    721.4905 307.5261423  +6.3947896     809.0078     1402.809      1361.05     78.19286     156.5098     312.4299      1.941     5.96     848.5324     55.07085     126.4711        12     1.486     0.672  37.71   0
       191    157.5197    721.9037 307.8486329  +6.3687835     799.6732     1340.264     557.0829     78.06864     156.5098     312.5231      1.489     5.81     848.0034     55.07085     123.3793        11     1.454     0.655  25.08   0
       192    961.2317    719.3658 307.5151291  +6.3965512     1894.931     3596.838     4428.068     77.81963     156.0129     312.1813      1.984     5.58     847.8361     55.07085     248.5619        24     1.812     0.882  34.06   0
       193    908.3246    720.6227 307.5370478  +6.3942799     911.9766     1739.238     2167.021     77.94424     156.1373     312.3367      1.932     5.32     849.2299     55.07085     112.9739        10     1.399     0.570  30.96   0
       194    680.5747    718.9360 307.6316366  +6.3874225     1011.427     1747.217     2451.627     77.94423     156.2616     312.3678      1.903     5.80     852.6628     55.07085     145.0792        11     1.355     0.699  27.18   0
       195    401.9015    714.2712 307.7474590  +6.3800823     611.4389     833.1541      714.123     78.19286     156.4478     312.3989      1.630     5.17     851.0817     55.07085     89.27258         7     1.255     0.602  46.36   0
       196   1003.0014    712.7227 307.4980124  +6.4006771     1339.219     2614.569     2892.297      77.5698     155.7016     312.2435      1.999     6.01     846.7577     55.07085     175.5198        23     1.783     0.907  28.95   0
       197    471.4234    713.9275 307.7186149  +6.3825384       557.37     685.6344     533.8387     77.94423     156.0751     312.3678      1.489     4.47      851.244     55.07085     103.0383         5     1.399     0.407  30.37   0
       198    804.1810    711.3658 307.5805837  +6.3946503     1009.994     1775.889     1914.914     77.81962     156.0751     312.2435      1.879     6.27     850.9336     55.07085     138.8647        17     1.687     0.815  32.39   0
       199    628.9363    712.3656 307.6532894  +6.3884205     788.0961     1254.934      1948.84     78.19286     156.3236     312.4299      1.586     5.29     852.2011     55.07085     131.5709        10     1.495     0.529  30.17   0
       200    890.5749    708.5587 307.5448171  +6.3986734     1337.363     2402.151      2313.35     77.94424     156.1373     312.2124      2.086     5.91     849.3925     55.07085     146.7972        17     1.550     0.769  26.87   0
       201    864.7513    703.5823 307.5557018  +6.3998725     826.6169     1472.627     1554.626     77.81963     156.3236     312.2124      1.985     5.84     849.8206     55.07085      122.499        13     1.736     0.553  25.54   0
       202    649.4899    702.5953 307.6450845  +6.3931376     533.2713     626.3901     848.8456     77.81963     155.9507     312.1813      1.466     3.45     852.0065     55.07085     84.78961         5     1.091     0.315  21.14   0
       203    847.6281    700.2852 307.5629192  +6.4006664      1294.23     2149.259     2272.542      78.4407     155.9507     312.3056      1.682     5.51     849.9989     55.07085     203.8365        14     1.590     0.616  31.96   0
       204     46.5548    699.4493 307.8954414  +6.3743491     2219.347     3849.366     3724.954     78.31688     156.1373      312.461      1.818     5.55     848.2268     55.07085     287.0211        23     1.578     0.888  29.18   0
       205    111.1264    699.1161 307.8686528  +6.3766437     741.9447      1695.54     2623.017      78.4407     156.5718      312.461      3.228     5.52     847.6918     55.07085     109.0659        10     1.508     0.570  59.28   2
       206    459.6409    698.6462 307.7240167  +6.3884562     547.0952     936.1318     156.2977     78.19286     156.2616     312.2746      1.929     4.36     850.6539     55.07085     96.82965         6     1.080     0.502  30.39   0
       207    659.1614    687.6080 307.6415706  +6.3996475     5598.721     9697.169     9854.181      77.5698     156.0129     312.1191      1.807     5.37     851.5925     55.07085     813.0385        31     1.727     0.882  31.12   0
       208    606.4743    687.1204 307.6634560  +6.3980985     1362.926      2151.59      2207.48     78.56432     156.5098      312.492      1.714     6.03     850.8756     55.07085     191.0411        16     1.603     0.736  26.75   0
       209    517.1566    687.5062 307.7005164  +6.3949697     775.4501     1136.594     911.1295     78.31688     156.2616     312.5541      1.519     5.06     850.3567     55.07085     114.3073         9     1.241     0.582  31.12   0
       210    244.7707    684.1573 307.8136859  +6.3872805     555.1856     935.6177     1008.895     77.94423     156.1994     312.3056      1.693     5.36     847.8836     55.07085     90.26642         7     1.014     0.799  63.61   0
       211    122.0363    683.7678 307.8646400  +6.3833455     3328.832     5704.189     5902.222     77.94423     156.0129     312.1813      1.788     5.43     847.4103     55.07085     423.8911        28     1.730     0.883  27.86   0
       212    996.2648    682.6708 307.5018088  +6.4128635     2027.553     3937.198     4029.101     78.31688     156.3236     312.4299      1.994     5.30     846.9484     55.07085     249.9265        25     1.680     0.950  33.97   0
       213    632.9340    683.2362 307.6526030  +6.4005815      1900.49     3202.945     3653.647     78.19286     156.2616      312.492      1.759     5.58     851.0582     55.07085     265.8956        20     1.680     0.772  35.41   0
       214    308.6261    683.9863 307.7871879  +6.3894801     682.3707     1017.114     914.7354     78.06864     156.0751     312.3678      1.641     5.35      848.898     55.07085     138.6967         6     1.327     0.609  19.49   0
       215    776.0869    679.6193 307.5933037  +6.4068274     17809.12     30371.07     31423.94     78.06864     156.0129     312.3056      1.808     5.02     850.9177     55.07085     2507.319        49     1.813     0.983  31.25   0
       216    906.0854    679.2466 307.5393554  +6.4112911     3085.996     5531.562     5369.947     78.31688     156.1994     312.4299      1.857     5.25     848.5009     55.07085     412.4502        28     1.738     0.929  29.75   0
       217    458.5956    681.0171 307.7250403  +6.3957008     510.2235     857.9286      891.935     77.94423     155.9507     312.2746      1.718     4.81     849.9905     55.07085     121.1572         6     1.322     0.497  50.61   0
       218    503.9282    679.6941 307.7062684  +6.3977555     783.4135     1403.933      1195.55     78.19286     156.3236      312.492      1.729     5.26     850.1182     55.07085     111.9814        10     1.412     0.554  31.42   0
       219    475.0138    679.8990 307.7182631  +6.3967089     1131.528     1937.893      1482.04     78.19286     156.0129     312.1813      1.696     6.21     850.1187     55.07085      184.293        14     1.635     0.663  32.38   0
       220    321.6911    679.7011 307.7819087  +6.3916849      622.684     953.6073     970.0522     78.31688     156.6957     312.3989      1.748     4.95     848.9035     55.07085     92.46173         7     1.081     0.642  14.94   0
       221    249.5601    673.6223 307.8120512  +6.3917903     5657.207      9295.97     9943.967     77.94424     156.0751     312.2435      1.783     5.01     847.3848     55.07085     819.8959        33     1.751     0.922  30.55   0
       222    656.5845    672.4973 307.6431448  +6.4058015     6350.379     10526.04     10725.63     78.31688     156.0129     312.2124      1.795     5.56     851.0118     55.07085     915.4688        34     1.745     0.900  32.20   0
       223    639.5716    674.1589 307.6501510  +6.4045502     740.9298     1220.461     1442.333     77.94423     156.1994     312.2746      1.735     4.54     850.8106     55.07085     132.4851         7     1.158     0.506  30.49   0
       224    352.0517    672.8545 307.7695365  +6.3955236     681.1879     1016.562     780.2579      78.4407     156.2616      312.461      1.452     3.91     849.1892     55.07085     104.3142         6     0.941     0.466  35.12   0
       225    916.7295    664.9861 307.5354121  +6.4175323     1018.345     1783.278     1814.281     77.81962     156.0751     312.3367      1.814     6.39      848.065     55.07085     125.8591        16     1.533     0.747  24.57   0
       226    683.7411    661.4353 307.6322418  +6.4112711     936.5913     1644.029     1811.046     78.31688     156.2616     312.3989      1.898     5.72     850.7604     55.07085     125.7287        12     1.371     0.671  45.31   0
       227    728.3101    660.8679 307.6137607  +6.4129850     3186.555     5725.146     6330.483      78.4407     156.3857     312.3989      1.890     5.57      850.765     55.07085     399.3816        26     1.707     0.899  34.03   0
       228    994.5865    657.3153 307.5033492  +6.4232780     7323.269     13613.23     14417.91     77.94424     156.1373     312.2746      1.971     4.98      846.856     55.07085      880.789        39     1.837     1.061  29.95   0
       229    933.2562    657.7621 307.5287925  +6.4210627     2196.671     3809.708      3755.35     78.31688     156.3236     312.4299      1.842     5.00      847.684     55.07085     277.9237        24     1.650     0.883  36.87   0
       230     13.6312    657.6434 307.9105108  +6.3905106     1660.613     3245.195     3573.151     77.94424     156.2616     312.3056      2.035     6.19     848.2336     55.07085      235.145        24     1.804     0.931  17.63   0
       231    984.2657    658.3148 307.5076001  +6.4225236     488.2751     672.9902     658.3636      78.4407     156.5098      312.492      1.959     5.88     847.0089     55.07085     72.38165         7     1.727     0.563  14.12   0
       232     71.8882    652.5990 307.8865006  +6.3945403     22444.22     38624.88     40753.74      77.5698     155.8262     312.1813      1.830     5.27     847.4211     55.07085     3104.807        52     1.821     1.013  29.09   0
       233    533.2847    653.4647 307.6949603  +6.4095625     1719.868      2870.76      3000.63      78.4407     156.4478      312.492      1.714     5.70      849.201     55.07085     270.7521        18     1.737     0.732  23.87   0
       234    923.5117    649.9393 307.5330979  +6.4239702     824.2282     1507.706     1896.772     78.31688     156.3857      312.461      2.293     6.44     847.6069     55.07085     116.7466        12     1.600     0.728  32.71   0
       235    502.0536    650.5056 307.7080227  +6.4097456     1309.855     1994.755     2598.992     78.19286     156.1994     312.6783      1.642     5.05     849.2034     55.07085     210.0403        15     1.430     0.708  36.72   0
       236    542.4770    647.3257 307.6913499  +6.4124031     903.4116     1464.637     1517.177     78.56432     156.5098      312.461      1.589     5.15     849.0065     55.07085     125.8577        10     1.438     0.522  29.67   0
       237    717.9997    644.6089 307.6185831  +6.4193565      3068.65     5079.431      5141.54     77.69481     155.9507     312.2124      1.761     5.35     850.0178     55.07085     471.5073        24     1.704     0.856  37.10   0
       238    739.9968    642.8450 307.6095111  +6.4208149      3581.98     6140.111     6027.952     77.69481     155.9507      312.088      1.730     5.15     849.9026     55.07085      457.191        26     1.770     0.792  32.16   0
       239    571.4973    640.8228 307.6795214  +6.4160532     3063.836      4976.66     5550.432     78.31688     156.0129     312.2435      1.742     5.44      848.927     55.07085     391.8263        21     1.674     0.757  32.07   0
       240    407.5602    641.2469 307.7475549  +6.4104237      1219.38     2186.795     2089.525     78.19286     156.2616     312.2435      1.916     7.08     847.4608     55.07085     152.9915        18     1.672     0.840  30.77   0
       241   1012.8034    638.7652 307.4964046  +6.4315408     3913.821     7490.884      7689.87     77.44459     156.0751     312.1813      1.972     4.93     846.5804     55.07085     528.8801        35     1.826     1.053  35.69  16
       242    315.9281    640.0106 307.7856307  +6.4078816       1240.8     2144.213     1938.436     77.81962     155.8885     312.2746      1.712     5.61     846.8851     55.07085     180.9946        15     1.626     0.803  19.71   0
       243    231.8164    640.4799 307.8205273  +6.4048833     1564.884     2740.854     3215.252     77.94424     156.0129     312.2746      1.956     6.26     846.6484     55.07085     212.9294        17     1.547     0.712  30.96   0
       244    978.2585    637.6788 307.5107806  +6.4308459     6649.502     12094.74      12759.3      78.4407     156.2616     312.3678      1.934     5.15     846.8523     55.07085     903.1494        38     1.851     1.031  32.60   0
       245    532.5581    639.1277 307.6957412  +6.4154584     596.2418     688.0493      960.459     78.19286     156.2616      312.461      1.338     4.29     848.7852     55.07085     116.9601         7     1.197     0.440  22.08   0
       246    698.3000    636.5402 307.6270297  +6.4220343     776.0653     1415.885     1479.372     78.06865     156.2616     312.5852      1.920     5.77     849.6384     55.07085     134.1823        11     1.493     0.628  18.78   0
       247     90.4989    635.4766 307.8793512  +6.4022320     669.7109     999.5719     1008.572     77.94424     156.3857     312.4299      1.716     2.94     846.9653     55.07085     109.2573         5     0.724     0.465  18.35   2
       248    136.6343    631.4986 307.8603356  +6.4054153     22005.12     36680.54     37912.07     78.31688     156.1373     312.5541      1.808     5.32     846.6694     55.07085     3152.828        50     1.798     0.987  31.00   0
       249    423.5361    632.2845 307.7412236  +6.4146564     2621.096     4359.255     4433.702      78.4407     156.3857      312.461      1.811     5.64     847.1659     55.07085     379.2578        22     1.630     0.772  29.72   0
       250    804.9373    631.7635 307.5829240  +6.4275453     985.6794     1438.592     849.2723     78.31688     156.3236     312.4299      1.627     5.12     848.8997     55.07085     151.0446        11     1.588     0.546  34.63   0
       251    973.0959    620.5876 307.5134926  +6.4377324     5867.329     10825.43        11557     78.06864     156.0129     312.2124      1.968     5.36      846.668     55.07085      707.281        38     1.923     1.005  31.32   0
       252     17.8098    620.3895 307.9100285  +6.4060326     1156.689     1969.313     2048.683     77.94424     156.0751     312.3989      1.640     5.12     847.6786     55.07085     186.8802        13     1.545     0.630  38.03   0
       253    566.6716    616.1104 307.6823505  +6.4260971     44161.23     72787.16     76664.59     78.31688     156.5098     312.4299      1.768     5.39     848.1168     55.07085     6641.208        64     1.822     0.983  31.34   0
       254   1023.6778    614.7483 307.4926897  +6.4418180     917.5507     1552.762     1656.633      67.8244     124.0648      234.868      1.890     5.17     846.5064     55.07085     220.9724        12     1.763     0.554  86.40  24
       255    931.5569    617.7114 307.5308316  +6.4375445     624.8381     988.3245      970.206     78.31688     156.1994      312.461      1.836     5.70     846.7282     55.07085     89.55914         9     1.536     0.596  29.47   0
       256    209.2585    617.7470 307.8306529  +6.4135175     611.5451     1156.804     665.5049     78.31688     156.2616     312.4299      1.808     6.12     846.3742     55.07085     93.88623         8     1.524     0.692  27.71   0
       257    526.2729    616.7589 307.6990981  +6.4244859     664.7198     749.3363     697.6541     78.19286     156.3236      312.461      1.495     5.90     848.1345     55.07085     96.87762        11     1.502     0.651  26.43   0
       258    497.2405    613.3273 307.7112641  +6.4249372     585.1489     922.2386     1076.972     78.19286     156.2616      312.492      1.937     4.30     848.0198     55.07085     96.98047         6     1.360     0.388  38.06   0
       259    174.3218    613.0694 307.8453112  +6.4142830     2581.137     4448.837      4998.11     78.56432     156.5098     312.3989      1.817     4.89     846.3575     55.07085     363.0315        24     1.682     0.864  30.75   0
       260    977.5968    612.1968 307.5119035  +6.4413463     594.8111     881.3843     1415.111     77.69481     155.8262     312.2435      1.715     5.13     846.5456     55.07085     109.4156         8     1.658     0.449  38.06   0
       261     67.1598    607.4421 307.8899801  +6.4130279     1331.963     2178.226     2307.666     78.06864     156.2616     312.3056      1.795     5.52     846.9056     55.07085     160.7117        15     1.544     0.716  14.30   0
       262    463.9236    599.9641 307.7255408  +6.4293465     57335.11     95678.97     100237.4     78.19286     156.3236      312.461      1.764     5.55     846.9356     55.07085     8206.412        72     1.826     1.002  31.27   0
       263      7.7327    601.8896 307.9148329  +6.4133344     1423.446     2179.069     2379.421      78.4407     156.4478     309.6216      1.641     6.11     847.5593     55.07085     196.5292        15     1.423     0.738  29.37  16
       264    649.8228    596.8278 307.6484786  +6.4368225     618.0053      1106.51     1011.191     77.81962     156.0751     312.2746      1.870     6.25     847.6276     55.07085     94.47974        11     1.723     0.637  45.44   0
       265    136.7100    594.4034 307.8615495  +6.4207347     1095.392     2056.667     1826.388     77.81963     155.9507     312.1502      2.051     4.74     846.0598     55.07085     221.5071         9     1.339     0.612  57.59   2
       266    417.5066    592.9770 307.7450422  +6.4306864     875.4062     1333.524     1725.054     78.31688     156.0751     312.2746      1.752     5.27     845.4724     55.07085     125.7043        10     1.289     0.609  34.12   0
       267    610.0353    591.7849 307.6651631  +6.4375829     786.4645     1405.117     1500.497     77.94423     156.0129     312.2435      1.768     5.98     847.1069     55.07085     124.0589        13     1.733     0.580  22.70   0
       268    492.0205    591.4243 307.7141635  +6.4338077     330.6714     761.9763     1083.642     77.94423     156.0751     312.3989      1.395     3.46     846.9779     55.07085      65.6615         5     1.773     0.195  35.64   0
       269    461.8427    588.7025 307.7267814  +6.4339273     931.6912     1597.134     2267.091     78.31688     156.1994     312.6473      2.593     6.45     846.4183     55.07085      129.567        11     1.475     0.792  65.13   0
       270    309.2066    589.4021 307.7901165  +6.4285546     1888.776     3089.655     3280.422     77.69481     155.9507     312.2435      1.733     5.23     844.9428     55.07085     276.9254        20     1.600     0.822  32.08   0
       271     10.7893    591.6060 307.9139099  +6.4176827     503.5686     873.6038     964.0728     77.94424     156.0751     312.3367      1.822     3.49     847.3861     55.07085     67.46771         5     0.783     0.450  17.32   0
       272     17.3949    589.8467 307.9112272  +6.4186300     506.9821     1000.942     1003.121     77.69481     156.0751     312.1191      2.638     4.80     847.2914     55.07085     76.00909         6     1.193     0.547  20.17   0
       273    735.9261    583.3013 307.6131878  +6.4452670     4650.185     7883.326     8064.026     77.94423     156.3857     312.3989      1.730     5.31      847.269     55.07085     661.8916        25     1.715     0.781  30.56   0
       274    789.5390    578.6055 307.5910888  +6.4489849     12384.66     20782.61     21945.63     77.69481     156.0751     312.2124      1.798     5.61     847.2487     55.07085     1711.208        43     1.810     0.937  32.23   0
       275    531.9825    578.8458 307.6979959  +6.4403309     1077.931     1929.792     2327.398     77.81962     156.1373     312.1813      2.082     6.40     846.4611     55.07085     173.4736        15     1.845     0.716  40.21   0
       276   1006.3788    578.8432 307.5010657  +6.4560718     919.8545     1396.393     1489.425     77.81962     156.1373     312.2435      1.556     5.31      845.366     55.07085     138.0357        11     1.318     0.604  32.19   0
       277    613.5058    576.8188 307.6642225  +6.4438781     2634.082     4264.922     3954.592     78.19286     156.0129     312.2746      1.717     5.55     846.4392     55.07085     385.6405        21     1.714     0.704  35.28   0
       278     34.2216    578.2187 307.9046337  +6.4239937     478.6895     1039.063     857.8292     78.06864     156.1373     312.3678      2.013     3.77     846.9528     55.07085     81.53912         5     1.320     0.310  30.38   0
       279    930.6908    572.6677 307.5326914  +6.4561157     1040.882     1954.157     2539.888      78.4407     156.3857     312.4299      2.258     5.82     845.1371     55.07085      155.951        13     1.706     0.559  36.09   0
       280    190.0466    571.8998 307.8401656  +6.4318072     629.5024     978.3475     1246.656     78.31688     156.1373     312.6473      1.554     2.53     844.9405     55.07085     106.2449         5     0.618     0.583  83.60   0
       281    225.7913    570.4149 307.8253781  +6.4336130     1118.809     2020.329     2581.339     78.06865     156.0129     312.3056      1.942     6.76     844.6421     55.07085     177.9274        15     1.509     0.849  42.11   0
       282    371.7603    570.4077 307.7647872  +6.4384821     832.4169     1040.428     1076.641     77.69481     156.0129     312.1502      1.717     4.60     844.5708     55.07085     151.1374         8     1.248     0.482  22.47   0
       283    865.5601    561.8699 307.5600887  +6.4584162     2645.322     4563.556     4892.298     78.19286     156.2616      312.492      1.869     4.99     846.6494     55.07085     370.5736        24     1.730     0.832  31.49   0
       284    160.9177    562.2271 307.8525813  +6.4348289     663.9225     894.1537     519.8554     78.19286     156.0751     312.3678      1.567     4.34     844.7886     55.07085     127.3466         7     1.496     0.359  20.89   0
       285    824.4034    559.4297 307.5772553  +6.4580594     2270.233      3640.33      3627.96     77.81963     156.0751     312.2746      1.725     5.67     846.6854     55.07085     319.8328        20     1.598     0.751  32.54   0
       286    795.2674    555.2476 307.5894899  +6.4588200     2223.784     3755.909     4640.032     78.31688     156.1994      312.461      1.807     5.37     846.5644     55.07085     270.7521        23     1.668     0.866  35.13   0
       287    252.3280    554.5300 307.8148956  +6.4410572     7269.664     12004.27     12212.15      78.4407     156.3857     312.3989      1.772     5.47     843.9911     55.07085     1085.302        37     1.769     0.942  29.44   0
       288    738.1053    555.6879 307.6132046  +6.4567415     528.6555     873.5095     1285.369     78.31688     156.6337      312.492      2.508     5.17     846.1575     55.07085     94.06647         6     1.835     0.412  35.31   0
       289    804.8659    550.4473 307.5856654  +6.4611205     140259.4     236471.3       249522     78.31688     156.1994      312.461      1.807     5.27     846.4703     55.07085     21167.73       113     1.904     1.095  32.14   0
       290    186.4546    549.1275 307.8424208  +6.4410902     53727.93     89375.91     94290.05     78.19286     156.1373     312.3678      1.781     5.21     844.1396     55.07085     7428.983        70     1.837     1.047  28.72   0
       291    110.3913    545.3362 307.8741215  +6.4401161     5691.366      9619.72     9718.786     77.81963     156.0129     312.2435      1.811     5.71     845.6514     55.07085      821.299        32     1.707     0.921  29.03   0
       292    975.7201    542.3569 307.5150076  +6.4701231     1236.464     2134.906     2560.044     78.31688     156.2616     312.3989      1.938     5.17     843.9412     55.07085     173.9715        16     1.514     0.754  39.35   0
       293    224.8122    540.8655 307.8267757  +6.4457816     664.9323     1068.581     769.9918     77.81962     156.0751     312.3367      1.549     6.48      843.555     55.07085     101.3084        11     1.941     0.607  29.15   0
       294    841.3978    537.7357 307.5709236  +6.4675809     3783.466     6456.318     6583.949     77.69481     156.0129     312.2124      1.803     5.34     845.9597     55.07085      543.822        26     1.689     0.823  29.26   0
       295    359.8474    536.0984 307.7708815  +6.4522520     15600.92     26002.12     27057.51     78.31688     156.1994     312.6162      1.765     5.28     843.2531     55.07085     2290.726        48     1.811     0.947  28.65   0
       296    450.2520    536.3633 307.7333444  +6.4551533     799.0555     1075.747     1215.982     78.19286     156.2616      312.461      1.504     5.15     844.2456     55.07085     145.9402        10     1.247     0.602  31.90   0
       297    161.5420    535.2470 307.8532278  +6.4459900     1744.599     2563.432     2892.839     78.31688     156.2616     312.5541      1.645     5.90     844.1733     55.07085     286.8515        18     1.673     0.693  29.63   0
       298    795.4348    531.1096 307.5902255  +6.4687928     5255.731     8742.174     8835.809      78.4407     156.1373     312.4299      1.785     5.20     845.5286     55.07085     719.5804        30     1.754     0.846  33.75   0
       299    526.2076    530.9399 307.7019952  +6.4599201      5887.11     9608.392     10590.76     77.69481     156.0751     312.2124      1.735     5.51     844.2299     55.07085     783.7036        30     1.715     0.823  32.78   0
       300    237.0506    532.9787 307.8219601  +6.4494465     789.2161     1182.384     897.0158     77.81962     156.3236     312.3056      1.704     5.01     843.3221     55.07085     108.5246        10     1.348     0.526  27.10   0
       301     99.4790    532.4532 307.8790838  +6.4450711     716.9424     1340.995     1088.198     78.31688     156.2616     312.4299      1.947     5.95     845.6021     55.07085     167.4642        10     1.500     0.665  40.22   0
       302    384.4330    527.6770 307.7609577  +6.4565484     1394.908     2319.725     2115.379     78.19286     156.2616     312.3989      1.750     6.13     843.2979     55.07085     216.5433        15     1.595     0.662  34.17   0
       303    173.1679    524.3282 307.8487683  +6.4508866     6082.812     10223.59     10185.86     78.19286     156.2616     312.3989      1.773     5.37     843.9661     55.07085     899.2182        32     1.759     0.870  27.91   0
       304    571.0762    523.9939 307.6836014  +6.4642803     2218.481     4109.533     4021.131     77.94423     155.7639     312.2746      1.937     5.45     844.0018     55.07085     283.6561        28     1.723     1.012  17.88   0
       305    268.4297    520.6772 307.8093469  +6.4555725     80201.89     132012.8     138947.1     78.19286     156.3236      312.461      1.799     5.46      842.588     55.07085     10829.38        89     1.854     1.077  31.17   0
       306     44.8460    523.1149 307.9020754  +6.4471014     4391.947     7576.137      8329.93     78.31687     156.1994     312.4299      1.843     5.12     846.1862     55.07085      634.597        28     1.704     0.884  29.05   0
       307    811.8870    523.2443 307.5836578  +6.4725862     1200.124     2013.432     2242.779     78.31688     156.1373     312.4299      1.701     5.59     845.1583     55.07085     201.7766        12     1.470     0.598  27.51   0
       308    557.4783    517.8154 307.6894528  +6.4663795     725.9711     1313.799     1544.197     77.94424     156.0129     312.2746      1.800     6.02     843.7446     55.07085     127.5291         9     1.474     0.692  31.92   0
       309    252.2781    515.6674 307.8162196  +6.4571024     1389.321     2216.183     2381.994      78.4407     156.3236     312.3989      1.740     5.76     842.6365     55.07085     200.4351        16     1.713     0.656  31.46   0
       310    968.0118    514.0681 307.5191496  +6.4815491     1255.026     2524.206     2718.698     77.81962     156.0751     312.3367      2.052     5.85     842.7554     55.07085     186.9698        18     1.737     0.707  29.43   0
       311    791.6085    512.8603 307.5924226  +6.4762014     14307.92      23909.9     24801.25     77.69481     156.1373     312.2124      1.754     5.48     844.5442     55.07085     1976.914        39     1.787     0.887  30.64   0
       312    495.2076    511.3871 307.7155181  +6.4669626     37574.74      65011.9     70666.64     77.94424     156.0751     312.3367      1.841     5.50     843.3427     55.07085     5280.258        76     1.973     1.100  28.64   0
       313    645.7423    509.7940 307.6530796  +6.4726252     802.3011     1620.181     1834.515     77.81962     156.1373     312.1502      1.689     4.47     843.6289     55.07085     133.4879         8     1.668     0.341  28.93   0
       314    207.5069    508.0119 307.8350614  +6.4587698     1743.218     3145.761     3468.449     78.06864     156.0129     312.2435      1.982     5.13     843.2338     55.07085     226.9648        22     1.632     0.933  32.90   0
       315     43.3954    508.2458 307.9031773  +6.4531925     1120.592     1808.774     2265.531     77.69481     155.9507     312.1191      1.793     5.76     846.0437     55.07085     194.8461        15     1.586     0.661  30.75   0
       316    655.1013    506.4077 307.6493075  +6.4743344     2571.475     4583.909     4993.832     78.06864     155.8885     312.2435      1.812     5.75      843.493     55.07085     387.7623        22     1.741     0.724  34.40   0
       317    665.3397    506.2673 307.6450618  +6.4747325      1217.22     2183.147     2326.268      78.4407     156.1994     312.4299      1.743     6.08     843.5502     55.07085     209.5413        15     1.565     0.688  30.05   0
       318    717.5027    505.1889 307.6234429  +6.4769099     1221.381      1970.85     2003.325     78.06865     155.9507     312.2435      1.706     5.89      843.617     55.07085     175.7008        15     1.491     0.720  35.78   0
       319     73.2927    503.6696 307.8909206  +6.4560811     749.5738     1484.363     2244.597     78.31688     156.3857     312.4299      2.123     5.72     845.3664     55.07085     120.5814        11     1.681     0.547  28.20   0
       320    392.7484    502.2477 307.7583575  +6.4673256     1607.344     2437.081     2199.445      78.4407     156.1373     312.4299      1.675     5.91      842.329     55.07085     276.2379        16     1.532     0.686  32.42   0
       321    324.3047    500.4555 307.7868301  +6.4657851     3581.192     6158.238     6563.162     78.19286     156.2616     312.6473      1.814     5.69      841.135     55.07085      551.941        26     1.698     0.838  35.31   0
       322    139.5044    499.1383 307.8635878  +6.4601638     23437.04     38565.38     39977.74     78.06864     156.3236      312.492      1.768     5.08     844.2504     55.07085     3317.445        45     1.769     0.937  30.30   0
       323    867.2603    498.7686 307.5614860  +6.4845288     1361.866     2264.874     2364.748     78.06865     156.3236     312.3989      1.729     5.99     843.8231     55.07085     192.6299        15     1.617     0.649  38.56   0
       324    504.4960    499.7356 307.7120520  +6.4720827     2058.031     3270.673      3970.87     78.19286     156.3857      312.461      1.724     4.83      842.929     55.07085     291.4263        18     1.544     0.767  21.26   0
       325    104.7282    497.4267 307.8780812  +6.4597091     2468.511       4243.6     4390.845     77.94424     156.1373     312.3367      1.828     5.06     844.5831     55.07085     395.0444        22     1.604     0.816  33.42   0
       326    341.9111    495.5995 307.7796840  +6.4683770     990.4504     1671.357     2302.954     77.56979     155.7639      312.088      1.924     6.28     840.9132     55.07085     144.2491        14     1.561     0.769  28.45   0
       327    965.0972    493.3362 307.5210499  +6.4900134     4301.232     7702.944     8450.639     78.19286     156.3857      312.461      1.916     5.23     841.8707     55.07085     610.5516        32     1.800     0.928  31.07   0
       328    129.2282    489.1332 307.8681895  +6.4639518     508.5265     621.2603     945.1375     78.06864     156.1994     312.3989      1.385     3.88     844.2075     55.07085     107.8038         5     0.882     0.488  35.79   0
       329    538.2473    486.1278 307.6984958  +6.4788244     1317.204     2230.772      2510.93     78.31688     156.3236     312.4299      1.721     6.03     842.3739     55.07085     187.5563        18     1.610     0.753  30.17   0
       330      3.7817    483.5697 307.9204504  +6.4620570      22230.8     37711.41     39066.55     77.94424     152.5532     271.1545      1.799     5.27     846.8271     55.07085     3066.105        43     1.747     0.987  30.58  24
       331    436.5155    480.1051 307.7409299  +6.4779260     39107.98     63733.74      66509.8     78.19286     156.6337     312.5231      1.770     5.14       842.15     55.07085     5944.912        57     1.816     0.934  30.85   0
       332    644.5581    479.6843 307.6545771  +6.4850189      11055.9     18259.31     19399.25     78.31688     156.1373     312.3678      1.770     5.44      842.222     55.07085     1544.715        37     1.787     0.865  32.62   0
       333    284.3860    480.3951 307.8040738  +6.4727375     843.7418     1358.076     1585.422     77.94424     156.0129     312.3056      1.942     4.75     840.2486     55.07085     127.2602         9     1.513     0.422  33.30   0
       334    201.6645    477.8449 307.8384989  +6.4710311      17560.6     30017.35     31827.52     78.31688     156.1994     312.4299      1.827     5.48     842.8754     55.07085     2345.254        48     1.878     0.948  31.56   0
       335    978.6816    478.0170 307.5159203  +6.4967890     1042.525     1557.167     1654.307     77.94423     155.9507     312.3367      1.609     5.84     841.2538     55.07085     140.5723        12     1.348     0.712  32.82   0
       336    167.3524    478.7307 307.8527128  +6.4695201     1373.658     2235.992     2210.528     78.31688     156.1994      312.461      1.648     6.21     843.7546     55.07085     187.5145        16     1.662     0.686  31.07   0
       337    818.5811    477.6118 307.5824006  +6.4916511      946.252     1546.852     1686.967     77.94424     155.9507     312.3367      1.774     6.18     842.8156     55.07085     133.4919        14     1.498     0.716  27.88   0
       338    906.6450    477.0636 307.5458587  +6.4947966      672.936     1128.643     933.7352     78.31687     156.1994      312.461      1.427     4.66     841.8171     55.07085     96.82654         8     1.621     0.380  28.89   0
       339    566.3504    476.4473 307.6871527  +6.4837562     2582.275     4049.448     3937.846     78.31688     156.1373      312.461      1.758     5.12     841.8923     55.07085     381.1823        19     1.614     0.699  31.87   0
       340    940.2559    473.3618 307.5320282  +6.4974387     4064.957      7029.21     7431.131     78.31688     156.3236      312.461      1.839     5.37     841.1949     55.07085     543.2863        29     1.766     0.878  31.66   0
       341    613.3499    472.0192 307.6677892  +6.4871470     5935.113     9601.762     9886.356     77.81962     156.3236     312.2746      1.683     5.23     841.7279     55.07085     824.3959        29     1.707     0.831  30.77   0
       342    101.2522    472.8927 307.8803482  +6.4697232     952.6652     1633.674     1869.423     78.19286     156.1373     312.6473      1.709     5.93     844.1558     55.07085     141.0314        12     1.481     0.668  31.29   0
       343    512.5977    471.2044 307.7096431  +6.4841333     524.4517     979.4423     1543.925     77.69481     155.8262     312.1813      1.704     3.46     841.6245     55.07085     64.17139         5     0.768     0.450 -71.69   0
       344    962.8430    465.6277 307.5229084  +6.5013804      2801.28     5107.344     5094.252     77.94423     156.3236     312.3367      1.910     5.76     840.9624     55.07085     369.7211        25     1.776     0.831  35.29   0
       345    371.5576    463.7071 307.7684454  +6.4825337      2587.74     4113.613     5280.643     78.31688     156.2616     312.5541      1.870     5.15     840.3869     55.07085      366.468        23     1.718     0.791  34.22   0
       346    525.5509    463.3024 307.7045300  +6.4878271     6952.488     11215.16     11732.53     78.31688     156.1994     312.5852      1.755     5.27     841.1766     55.07085     1082.553        30     1.703     0.838  29.89   0
       347    401.1696    464.9638 307.7561102  +6.4830011     712.4029     1286.683     1375.881     77.94423     156.0129     312.2746      2.336     6.03     841.1246     55.07085     93.43323        10     1.413     0.724  27.74   0
       348    741.3308    463.7191 307.6149350  +6.4948248     549.1831     847.3926     931.8606     78.56432     156.5098      312.461      1.945     4.27     841.8885     55.07085     98.39069         7     1.479     0.351  23.26   0
       349    881.9879    459.0302 307.5566963  +6.5014261     2768.172     4813.757      5700.32     77.81962     156.0129     312.3367      1.932     5.94     841.6963     55.07085     391.9219        23     1.820     0.748  31.51   0
       350    534.8226    459.9687 307.7007924  +6.4895121      598.404     821.2166     1551.579     77.81962     156.0751     312.2435      1.575     3.80     841.0075     55.07085     98.43921         5     0.829     0.500  31.72   0
       351    889.3135    453.3381 307.5538447  +6.5040192     1872.589     3332.767     3688.435     78.31688     156.4478     312.4299      1.861     5.74     841.3489     55.07085     257.8699        21     1.756     0.828  28.17   0
       352    928.5803    452.4950 307.5375705  +6.5056685     1127.951     1699.894     1349.239     78.19286     156.0751     312.2435      1.643     5.77     840.6242     55.07085     144.6765        13     1.427     0.657  31.58   0
       353    713.4041    449.4826 307.6270042  +6.4997763     2660.763     4276.986      4420.68     77.81963     155.8885     312.1502      1.732     5.68     841.2191     55.07085     413.1669        23     1.724     0.751  35.05   0
       354     75.1913    448.9274 307.8919717  +6.4787479     1749.148     3100.678     3598.638     77.81962     155.8262     312.2746      1.895     5.25     844.6169     55.07085     242.5126        18     1.553     0.758  33.53   0
       355    384.2698    447.8021 307.7637008  +6.4895246     3383.049     5571.815      5656.31     77.81962     155.8262     312.2435      1.767     5.34     840.2755     55.07085     503.2186        23     1.667     0.762  32.32   0
       356    424.3441    448.0459 307.7470560  +6.4907586     964.0529     1514.906     1932.646     78.31687     156.2616      312.461      1.672     4.99     840.7554     55.07085     147.1606        10     1.345     0.525  26.91   0
       357    612.0018    444.2455 307.6692770  +6.4985705     8874.757     14861.92     15477.17     77.69481     155.8885     312.0569      1.726     5.70     840.3433     55.07085     1439.446        33     1.771     0.831  31.02   0
       358    774.6968    440.7464 307.6018493  +6.5054180     14875.09     24465.31     25747.92     78.19286     156.2616     312.6783      1.754     5.48     841.4658     55.07085     2000.663        41     1.783     0.885  32.92   0
       359    294.4320    441.2934 307.8012143  +6.4892181     2538.808     4085.855      4097.04      78.4407     156.0751      312.492      1.727     5.64     839.5285     55.07085     387.0684        22     1.690     0.757  28.96   0
       360    803.8913    437.9841 307.5898210  +6.5075271     1044.363     1784.825     1831.695     78.06864     156.0751     312.3056      1.858     6.06     841.6115     55.07085     150.1918        15     1.635     0.803  37.39   0
       361    377.7467    437.9340 307.7667394  +6.4933820     1651.487      2379.08     2695.799     78.31688     156.1994     312.3989      1.578     4.77     839.9588     55.07085     231.0794        17     1.331     0.885  34.02   0
       362    778.7590    436.0542 307.6003194  +6.5074903     1247.706     2267.317     2356.609     78.19286     156.2616     312.4299      1.804     6.44     841.3505     55.07085     177.7999        16     1.759     0.662  30.97   0
       363    959.6599    435.4330 307.5252356  +6.5137432     1521.829     2587.009     2321.279     78.19286     156.3236     312.3678      1.783     6.57     840.1267     55.07085      202.551        18     1.782     0.679  33.13   0
       364    366.1609    434.0530 307.7716792  +6.4945985     663.0885     1079.078     934.5904     78.19286     156.3236     312.4299      1.941     4.19     839.7652     55.07085     114.9368         7     1.471     0.341  28.67   0
       365    111.9085    432.9204 307.8772671  +6.4865840     3900.106     6916.302     7279.605     78.06864     156.5098      312.492      1.876     5.84     843.7745     55.07085     530.5385        31     1.824     0.888  27.08   0
       366    750.4666    431.7522 307.6122090  +6.5083279     2225.869     3735.929     3838.638     78.31688     156.1994      312.461      1.772     5.51     840.9252     55.07085     344.1814        22     1.702     0.791  26.39   0
       367   1013.8295    430.1939 307.5029201  +6.5177000     3671.277      6717.91     7067.085     77.81962     156.0751     312.2435      1.909     5.51     839.9675     55.07085     448.9858        36     2.022     0.947  30.91  16
       368    270.0123    429.9545 307.8117321  +6.4930857     1447.527     2270.028     2561.421     77.81962     156.0751     312.1502      1.613     5.94      839.687     55.07085     225.6984        16     1.604     0.645  25.07   0
       369    348.1646    427.6784 307.7793639  +6.4966310     2855.735     4896.544     5334.698     78.19286     156.3236     312.4299      1.765     5.29     839.5752     55.07085     398.4414        22     1.691     0.798  29.02   0
       370    704.2117    425.4194 307.6316239  +6.5094074     1543.325      2493.32     2698.925     77.94424     156.0129     312.3367      1.709     6.69     840.2555     55.07085     216.7982        18     1.846     0.679  34.87   0
       371    236.1353    423.7756 307.8260031  +6.4945070     692.4903     1297.341     1220.457     77.94423     156.2616     312.3678      2.197     5.17     840.0734     55.07085     133.5103        10     1.753     0.431  41.24   0
       372    978.7021    424.0854 307.5177076  +6.5190595      631.395     1029.308     1040.935     78.31688     156.6957      312.492      2.099     4.90      839.824     55.07085     94.24744         8     1.010     0.673  17.17   2
       373    407.5188    423.5774 307.7548604  +6.5003017      588.558     865.0744     427.1875     77.94424     155.9507     312.3678      1.498     4.83     839.7583     55.07085     86.88269         7     1.467     0.450  22.66   0
       374    545.3058    418.1388 307.6978392  +6.5071331      819.749      1459.25     1640.367     78.19286     156.3236      312.461      1.800     5.97     838.6935     55.07085     145.8564        12     1.867     0.537  19.39   0
       375    467.8274    416.3596 307.7300646  +6.5052900     1280.624     1895.763     1916.099     77.94423     156.0751     312.2746      1.580     4.50     838.7566     55.07085     204.0105        16     1.531     0.703  28.31   0
       376    830.5467    415.3038 307.5795108  +6.5177764     1332.202     2033.517     2101.889     78.19286     156.2616     312.6783      1.744     5.39     840.5913     55.07085     192.9175        15     1.580     0.667  35.18   0
       377    815.8365    414.2654 307.5856528  +6.5177173     1724.516     2807.564     2748.479     78.19286     156.2616      312.492      1.672     5.74     840.7035     55.07085     285.4186        15     1.633     0.598  36.50   0
       378    713.0227    412.2870 307.6284043  +6.5151226     12979.24     21763.64     22961.92     78.31687     156.0751     312.3056      1.781     6.20     839.8081     55.07085     2013.596        47     2.194     0.900  35.79   0
       379    634.0255    408.4106 307.6613311  +6.5140994     2218.749     3943.413     4430.404     77.94423     156.0751     312.3056      1.845     6.40     838.7258     55.07085     357.0168        21     1.785     0.737  28.59   0
       380    606.6949    403.6870 307.6728358  +6.5151416     13602.17     24726.85     30411.14     78.31688     156.6337      312.492      2.183     7.55     838.2042     55.07085      2369.11        59     2.673     0.892  33.45   0
       381    377.5527    398.5140 307.7681405  +6.5096526     26894.84     43548.22      45325.2     78.31688     156.1994     312.4299      1.786     5.56     838.4922     55.07085     3929.288        52     1.803     0.939  31.17   0
       382    893.2253    396.8860 307.5541020  +6.5274594     1239.153     2679.909      3268.07      78.4407     156.0129     312.2746      2.667     8.67     839.5161     55.07085     183.2842        25     2.664     0.788  39.10   0
       383    123.5355    398.0844 307.8736103  +6.5013564     2283.656     3599.108     4059.771      78.4407     156.3857      312.492      1.766     5.72     843.0894     55.07085      338.115        21     1.656     0.770  33.60   0
       384    907.3486    392.5847 307.5483816  +6.5297036     4291.105     7402.955     6628.535     77.69481     156.3236     312.1502      1.815     5.21     839.3289     55.07085     604.2822        31     1.744     0.957  36.24   0
       385    938.4728    402.1814 307.5351395  +6.5267720     3406.319     5641.686      5456.98     77.81962     156.1994     312.3678      1.777     5.23     839.2847     55.07085      452.847        26     1.729     0.847  30.60   0
       386     57.1153    393.7540 307.9013295  +6.5009252     1199.764     2433.708     2773.134     78.31688     156.1994     312.4299      2.108     6.30     844.3051     55.07085       168.77        15     1.661     0.671  30.23   0
       387    235.0923    389.1239 307.8275985  +6.5087803     12725.72     21217.57      22182.6     78.19286     156.4478     312.4299      1.773     5.36     838.9451     55.07085     1836.802        43     1.771     0.941  31.24   0
       388    732.4093    389.4451 307.6211181  +6.5251981     387.5514      694.406     1013.664     77.81963     156.1373     312.1191      1.966     4.19     838.9923     55.07085     69.55133         5     1.237     0.405  54.54   0
       389     70.5160    383.2424 307.8961196  +6.5057133     884.8235     1482.157     1843.512     78.31688     156.1994     312.3367      1.899     5.91     843.7443     55.07085      100.763        13     1.426     0.689  36.47   0
       390    730.1490    382.4620 307.6222896  +6.5280066     671.1218     1067.268     1279.037     78.31688     156.1994     312.4299      1.784     5.03     838.6501     55.07085     106.5231         9     1.691     0.424  36.74   0
       391    958.6594    380.8433 307.5274691  +6.5362517     864.8152     1569.349     1955.689     78.19286     156.2616     312.5231      2.085     6.19     838.3824     55.07085     136.0236        12     1.660     0.650  46.96   0
       392    698.0109    381.7884 307.6356553  +6.5272177     583.1109     806.9404     706.3951     78.06864     156.0751     312.4299      1.453     4.73      838.165     55.07085      110.959         6     1.399     0.454  44.68   0
       393    180.6942    378.8087 307.8505283  +6.5112241     917.2869     1593.038     1397.204     77.94423     155.8885     312.2124      1.761     6.50      841.261     55.07085     130.4007        14     1.603     0.741  33.24   0
       394    348.3514    378.8668 307.7809220  +6.5167922       1126.3     1793.366     1753.953     78.19286     156.1994      312.461      1.664     5.52     837.6189     55.07085     170.9345        10     1.424     0.603  18.35   0
       395    135.2045    377.7534 307.8694488  +6.5101409     4751.594     7878.091     8014.188     77.69481     156.0129     312.1191      1.767     5.20     842.6379     55.07085     605.7104        30     1.691     0.897  33.83   0
       396    629.1365    376.5028 307.6644271  +6.5271123     414.2944     543.5321     174.0895     78.19286     156.3857      312.461      1.285     3.90     836.8994     55.07085     104.6543         5     1.312     0.332  48.37   0
       397    432.7847    376.2287 307.7459566  +6.5206941     716.2714     1147.723     692.4487     77.94423     156.0129     312.3367      1.656     5.92     836.7379     55.07085     99.43884        10     1.483     0.665  31.30   0
       398    240.1969    376.5532 307.8259011  +6.5141412     1061.602     1881.424     2175.974     77.69481     156.0129      312.088      1.910     5.76     838.4881     55.07085     186.6865        13     1.491     0.627  27.05   0
       399    157.4570    373.6526 307.8603484  +6.5125773     2279.374     3811.072     3732.924     78.31688     156.2616     312.4299      1.831     5.00     842.3901     55.07085     278.9125        24     1.486     1.046  39.55   0
       400    821.9094    374.2572 307.5844658  +6.5344392     646.9703     1007.354     795.2352     78.19286     156.1373     312.5231      1.552     5.03     838.8965     55.07085     124.3273         7     1.249     0.574  19.48   0
       401    552.8408    372.5421 307.6962358  +6.5262114     947.6142     1429.314     1334.796     78.31688     156.2616      312.492      1.739     6.24     836.2859     55.07085      135.382        13     1.482     0.738  27.85   0
       402    380.8393    368.3466 307.7677867  +6.5222186     1785.045         2992     2976.452     78.19286     156.3236     312.4299      1.711     5.71     836.7304     55.07085     313.7231        18     1.597     0.706  31.75   0
       403    268.5742    368.7217 307.8143827  +6.5183214     817.3486     1407.824     1706.376     78.06865     156.1994     312.3989      1.825     5.38     837.8094     55.07085     128.5573        11     1.536     0.532  27.37   0
       404    970.7115    367.8348 307.5228984  +6.5420223     795.2533     1451.434     1772.173     78.31688     156.1994     312.4299      1.684     4.38     837.6122     55.07085     126.7527         7     1.068     0.512  47.41   2
       405    314.6846    366.0473 307.7953290  +6.5209633     622.5292     961.8966     883.7535     78.31688     156.2616      312.461      1.758     5.15     837.2268     55.07085       93.677         9     1.407     0.533  28.90   0
       406    434.6977    361.8671 307.7456432  +6.5266879     6782.188     11292.56     12116.46     78.31688     156.3236      312.461      1.752     5.35     835.8616     55.07085     939.2152        34     1.757     0.884  28.79   0
       407     30.8614    362.8600 307.9132671  +6.5128038     2805.367     5191.192     5677.971     78.31688     156.2616      312.461      1.906     5.21     844.3327     55.07085      411.116        26     1.607     1.077  27.69   0
       408    767.5041    360.6842 307.6075072  +6.5382389     1877.223     2948.098     3382.135     78.31688     156.6338     312.5231      1.756     5.09     837.9937     55.07085     296.7063        21     1.597     0.843  25.23   0
       409    775.3080    359.0443 307.6043218  +6.5391750     11423.67     18978.58     20015.08     78.31688     156.1994     312.5541      1.749     5.66     837.9335     55.07085     1667.282        39     1.772     0.876  32.29   0
       410    195.2175    361.3574 307.8450846  +6.5189147     467.9333     529.6934     452.4752     77.81963     156.0751     312.2124      1.272     3.45     840.0941     55.07085      82.2074         5     0.782     0.441  16.97   0
       411    338.7009    357.7730 307.7856355  +6.5251804     1058.431       1896.4     1578.975      78.4407     156.0129     312.3678      1.826     5.62     836.6791     55.07085     143.5879        13     1.586     0.560  25.80   0
       412   1019.3840    354.0727 307.5031479  +6.5493164     3008.799     5218.797     5305.394     77.81962     156.1373     292.7035      1.819     5.24     835.4054     55.07085     413.7732        24     1.630     0.860  32.15  16
       413    183.3413    349.9285 307.8503987  +6.5232373     647.5626     1004.896     728.7256      78.4407     156.2616     312.4299      1.783     4.23     840.6876     55.07085     115.3607         6     1.308     0.390  29.95   0
       414    900.5652    349.0452 307.5526490  +6.5474574     674.5261     1004.205      851.111     77.94423     156.1994     312.3367      1.618     3.66     838.2275     55.07085     103.2006         6     1.133     0.340  39.96   0
       415    454.9097    346.0433 307.7377814  +6.5338947      2037.83     3474.308     3196.114     78.31688     156.1994      312.492      1.747     6.44     835.0876     55.07085     298.3976        19     1.633     0.714  30.01   0
       416    911.3149    345.2991 307.5483106  +6.5493605     569.2037     964.3443     548.4333     78.31688     156.6957      312.492      1.638     4.82      838.008     55.07085     93.32672         8     1.392     0.473  40.40   0
       417    482.9240    345.3327 307.7261742  +6.5351206     2824.485     4716.726     4979.811      78.4407     156.3857     312.3989      1.744     5.48      834.938     55.07085     454.2593        23     1.768     0.731  31.35   0
       418    840.6492    341.9154 307.5777638  +6.5484153     28445.36     50057.62     52822.05     78.31688     156.2616     312.5231      1.877     5.37     837.6912     55.07085     3878.054        60     1.818     1.123  37.89   0
       419    333.0626    337.8429 307.7886444  +6.5332219     842.8323     1442.647      1329.57     78.31688     156.1994     312.5231      1.553     5.89     836.1998     55.07085     108.6121        12     1.401     0.697  34.31   0
       420     58.1056    338.5371 307.9027742  +6.5237575     572.3986      980.134     1136.201     78.19286     156.3857      312.492      2.098     3.70      843.311     55.07085     89.26807         6     1.537     0.256  35.93   0
       421     21.0804    335.3452 307.9182528  +6.5238377     993.0113     1576.841     1123.874     78.31688     156.2616      312.461      1.619     5.45     844.1331     55.07085     145.6516        11     1.329     0.630  19.16   0
       422    612.4918    334.3794 307.6727456  +6.5439527     2473.385      4080.77     3854.237     78.19286     156.0751     312.2746      1.777     6.40     834.6208     55.07085     399.7734        20     1.678     0.721  32.06   0
       423    143.0003    332.5943 307.8677289  +6.5290477     563.9529     848.5861     711.7054     77.69481     155.9507     312.2435      1.379     4.79      841.963     55.07085     95.02594         7     0.978     0.665  55.38   0
       424    697.1185    327.9577 307.6378236  +6.5494159     72950.23     119255.3     125145.1     78.31688     156.2616     312.3989      1.733     5.82     835.7004     55.07085     10298.17        86     1.826     1.051  31.11   0
       425    855.2500    329.3453 307.5721207  +6.5540899     1200.218     2027.044     2699.245     78.31688     156.2616      312.461      1.794     5.90     837.1968     55.07085     171.6772        14     1.518     0.645  35.52   0
       426     76.4104    327.9451 307.8955308  +6.5287428      1286.42     2150.298     2595.667     77.69481     156.1994     312.1191      1.889     6.59     842.8192     55.07085     193.7744        16     1.540     0.791  39.35   0
       427    938.6659    324.9266 307.5376331  +6.5586789     745.8917     1100.472     908.4479      78.4407     156.3236     312.4299      1.693     5.64     836.5969     55.07085     124.7707         9     1.377     0.652  41.23   0
       428    559.6003    324.9192 307.6950221  +6.5461006     2557.308     4138.755     4305.927     77.56979     155.7016     312.1502      1.726     5.46     834.2905     55.07085     360.0199        21     1.641     0.799  32.95   0
       429     96.7630    323.8336 307.8872193  +6.5311206     5667.907     9497.409     9871.119     78.06864     156.0129     312.2124      1.775     5.54      842.352     55.07085     777.0503        31     1.757     0.857  29.47   0
       430    542.8051    320.8443 307.7021317  +6.5472246     6516.492     10873.83     11353.38     77.69481     155.8885      312.088      1.765     5.70      834.161     55.07085     1010.775        33     1.775     0.907  32.51   0
       431    271.7678    318.6959 307.8147346  +6.5390841     2522.723     4008.495     4315.659      78.4407     156.1373     312.5231      1.730     5.34     836.9655     55.07085     390.8033        22     1.630     0.807  31.74   0
       432    405.6937    316.1625 307.7592158  +6.5445941     24354.91     39846.18      42129.3      78.4407     156.1373     312.5231      1.750     5.42     834.9567     55.07085     3908.584        49     1.782     0.929  31.42   0
       433    513.3593    314.9666 307.7145540  +6.5486721     1239.178     2061.996     1425.275     78.06864     156.2616     312.2746      1.662     6.24     833.9667     55.07085     200.7032        15     1.542     0.710  31.25   0
       434    585.3791    315.7735 307.6846247  +6.5507342     485.6373     869.4377     741.0013     77.94424     156.0751     312.3678      1.636     3.63     833.9991     55.07085     91.97546         5     0.936     0.406   6.98   0
       435    385.4926    314.2206 307.7676681  +6.5447230     1055.813     1965.472      2475.29     78.19286     156.0751     312.2746      2.066     6.38     835.0806     55.07085     162.4547        15     1.849     0.619  28.10   0
       436    484.9568    311.4623 307.7264638  +6.5491739     1069.376     1702.322     1778.823     78.31688     156.1994     312.5231      1.710     5.61     833.8372     55.07085     184.2672        13     1.675     0.529  31.50   0
       437    800.8176    308.5211 307.5954161  +6.5608836     617.8478     1057.092      805.383     77.94424     155.9507     312.3678      1.759     5.86     836.1193     55.07085     126.8541         9     1.844     0.525  35.86   0
       438    637.2408    309.0005 307.6633181  +6.5552547     546.7031     702.9155     525.7667     77.69481     155.9507     312.1502      1.282     4.26     834.0026     55.07085     93.78235         6     1.122     0.461  19.41   0
       439    382.1016    308.3665 307.7692721  +6.5470272     743.8402      1305.48     1575.005     78.31688     156.1373     312.5541      1.765     6.73     834.9847     55.07085     117.9125        11     1.454     0.875  28.79   0
       440    494.8605    306.5149 307.7225174  +6.5515464     8181.913     13409.87     14092.48      78.4407     156.3236     312.5231      1.762     5.44     833.7077     55.07085     1303.616        36     1.762     0.873  31.80   0
       441    763.9479    305.2522 307.6108338  +6.5610100     2905.839     4812.301     5221.169     78.56432     156.1373     312.4299      1.728     6.11     835.8949     55.07085     462.3808        20     1.712     0.692  35.46   0
       442    919.6595    304.8922 307.5461924  +6.5663220     922.8489     1517.989     1431.065     78.19286     156.1994     312.5541      1.831     5.99     835.8097     55.07085     133.3044        13     1.474     0.686  43.35   0
       443    711.8907    304.9151 307.6324596  +6.5594212     617.4929     1137.812     997.6351     78.06864     156.5718     312.5541      1.784     5.36     835.1681     55.07085     117.2386         9     1.671     0.485  17.52   0
       444    321.7984    303.8152 307.7944618  +6.5468968      1066.78     1556.475     1267.919     77.94423     155.9507     312.2124      1.593     5.84      835.738     55.07085     150.8107        13     1.424     0.675  35.01   0
       445    157.0767    297.4620 307.8630645  +6.5440241     1134.059     1815.665     1875.683     78.56432     156.2616     312.4299      1.759     5.72     841.1931     55.07085     173.8494        13     1.522     0.654  39.22   0
       446    433.8344    297.0441 307.7481723  +6.5534255     513.7344     723.0992     709.7691     78.06864     156.1994     312.3056      1.765     3.81     834.2967     55.07085     80.41266         5     1.239     0.336  25.49   0
       447    240.5887    291.5325 307.8285909  +6.5492600     2099.451     3517.363     3685.461     77.81963     156.1373     312.2746      1.832     5.01     837.5359     55.07085     306.7162        20     1.546     0.791  27.50   0
       448    384.6872    290.7933 307.7687873  +6.5543696     7070.229     11590.72     12071.81     77.81962     155.9507     312.1813      1.748     5.49     834.6418     55.07085     1009.435        32     1.682     0.872  30.90   0
       449    738.1278    290.2375 307.6220558  +6.5663529     874.6292     1167.738     1366.937     78.19286     156.2616      312.492      1.551     5.71     835.3271     55.07085     126.2991        11     1.566     0.587  39.04   0
       450    752.5969    286.4988 307.6161728  +6.5683770     49690.55     80418.95     84248.86     78.06865     156.0129     312.1191      1.751     5.31      835.155     55.07085     7330.142        60     1.812     0.926  33.23   0
       451    424.1890    286.1153 307.7525430  +6.5576170     2137.286     3569.796     4120.893     77.94423     156.0129     312.2746      1.789     4.85     834.2717     55.07085     300.0701        16     1.585     0.649  31.13   0
       452    987.4792    283.4717 307.5187458  +6.5774133     1402.765     2486.333     2986.232     78.56432     156.5098     312.3989      2.175     5.89     833.5066     55.07085      176.727        19     1.612     0.792  32.88   0
       453    928.5200    282.6062 307.5432560  +6.5758180     1903.081     3262.319     3692.369     77.94424     155.8262     312.1813      1.900     5.55     834.6412     55.07085     262.6138        21     1.690     0.874  27.95   0
       454    570.5526    283.5501 307.6918582  +6.5635468     1293.994     1869.756     1752.687     78.31688     156.1373      312.461      1.663     5.72     832.9594     55.07085     198.8018        13     1.458     0.632  28.17   0
       455    460.9520    282.1576 307.7374115  +6.5604752     1035.617     1588.658     1438.194     78.31688     156.1994     312.3678      1.570     5.92      833.317     55.07085     166.5623        15     1.763     0.629  26.24   0
       456    410.8499    281.7820 307.7582265  +6.5589620       1962.7      3348.62     3322.771     77.81962     156.3236     312.2124      1.836     5.28     834.3301     55.07085     291.5508        19     1.740     0.673  26.98   0
       457    290.5157    281.2831 307.8082055  +6.5551575     642.7193      933.867     663.2305     78.06865     156.5098      312.492      1.527     4.63     836.2488     55.07085     110.8445         8     1.419     0.428  38.07   0
       458    461.0707    276.4562 307.7375531  +6.5628334     704.8928     1300.257     1022.833      78.4407     156.1994     312.3989      1.766     5.64      833.107     55.07085        109.1        11     1.674     0.535  25.80   0
       459    831.9109    275.8546 307.5835954  +6.5754036     1147.074     2024.418     2161.133     78.31688     156.1373     312.5541      1.932     5.55     834.7265     55.07085     158.2919        12     1.511     0.574  28.26   0
       460    441.5702    273.2162 307.7457583  +6.5635220     1007.038     1604.205     1803.128     77.94424     156.0129     312.3678      1.610     5.39     833.4338     55.07085     165.4218        12     1.512     0.543  29.62   0
       461    187.2617    273.1983 307.8513469  +6.5550506     2221.711     3698.441       3929.1     77.69481     156.0751     312.1502      1.742     5.37     839.7048     55.07085     338.5764        18     1.629     0.689  29.36   0
       462    751.0180    271.0688 307.6173435  +6.5746960     5286.047     9021.276     9503.271     77.81962     156.1373     312.3678      1.768     5.58     834.3615     55.07085      863.171        31     1.713     0.937  29.60   0
       463    222.8850    271.4376 307.8366155  +6.5569667     624.2939     1080.817      997.281     78.31688     156.2616     312.4299      2.120     4.91     838.1603     55.07085     97.77368         6     1.107     0.616  53.63   0
       464    341.8964    271.0724 307.7872149  +6.5610867     587.3582     1212.637     529.0923     78.06864     156.4478     312.3989      1.745     4.87     834.9243     55.07085     98.04822         7     1.425     0.472  30.82   0
       465     83.3724    270.5085 307.8945705  +6.5526912     972.8019     1553.661     1620.766      78.4407     156.0129     312.3056      1.810     6.37     842.2904     55.07085     158.9692        16     1.566     0.728  25.75   0
       466    767.5222    268.9608 307.6105610  +6.5761142     2434.003     4243.438     4198.625     78.19286     156.3236     312.4299      1.826     5.39     834.3098     55.07085      343.682        23     1.615     0.901  27.76   0
       467    357.0276    263.9736 307.7811703  +6.5645221     1676.043     3471.578     3866.837     77.81962     156.0751     312.2746      2.257     7.32     834.5641     55.07085     251.0886        24     2.072     0.925  20.78   0
       468     70.4329    264.7085 307.9001377  +6.5546536     1314.156      2216.68     2357.141      78.4407     156.1373      312.461      1.830     5.36     842.4476     55.07085     180.7849        15     1.579     0.630  28.11   0
       469   1005.5919    259.8112 307.5120128  +6.5877830     5089.308      8928.09     9526.311     77.94424     156.0751     312.3678      1.830     5.56     832.4598     55.07085     634.2343        38     1.838     0.974  36.30   0
       470    483.6039    259.9100 307.7287511  +6.5704156     1853.795     2960.731     2890.107     77.81962     155.9507     312.1502      1.688     5.73     832.0784     55.07085     313.2485        17     1.667     0.648  32.66   0
       471    246.1517    255.6675 307.8274845  +6.5642546     5507.847     9061.075     9774.526     78.31688     156.1994      312.461      1.738     5.30     837.5692     55.07085     814.1906        30     1.725     0.857  32.56   0
       472    914.1580    253.9984 307.5501729  +6.5871550     526.8568     598.3965     1002.242     77.69481     155.9507     312.1502      1.580     4.61     833.5568     55.07085     83.96277         7     1.355     0.445  26.90   0
       473    938.0516    251.6338 307.5403303  +6.5889230     499.8411     850.9025     862.0004     78.19286     156.2616     312.3367      1.954     4.60     833.2933     55.07085     82.55334         6     0.863     0.696  27.69   0
       474    764.6640    248.3704 307.6124351  +6.5845215     632.7141     931.8778     757.8229     78.06865     156.2616     312.3678      1.608     3.44     833.2211     55.07085      113.239         5     1.161     0.294  53.51   2
       475    222.4822    248.6818 307.8375465  +6.5663493     577.5294     954.1241      888.508     78.31688     156.5098     312.5231      1.987     6.33     838.3541     55.07085     102.8297         8     1.590     0.708  23.14   0
       476    380.4618    246.3206 307.7720318  +6.5725921     1636.762     2611.978     2550.711      78.4407     156.3236     312.4299      1.737     5.83     833.9625     55.07085     253.5447        19     1.670     0.786  40.22   0
       477    967.4048    245.0765 307.5283602  +6.5926029     880.2761     1604.749     2316.092     77.94423     155.7639     312.3056      1.879     5.68     832.5983     55.07085      154.494        11     1.488     0.612  27.21   0
       478    187.3092    244.3086 307.8522970  +6.5669809      605.274     910.2086     1154.907     78.31688     156.7576     312.5231      1.628     3.98     839.6481     55.07085     97.10651         6     0.822     0.767 -76.45   0
       479    150.0913    242.4757 307.8678113  +6.5664950     1567.042     2894.956     2528.917     78.31688     156.5098      312.461      1.899     5.81     840.7581     55.07085     218.6926        19     1.768     0.725  25.44   0
       480    302.5202    242.3382 307.8045273  +6.5716385     1130.014     1727.396     986.1697      78.4407     156.3236     312.4299      1.578     5.40     835.9207     55.07085     161.7753        12     1.581     0.521  32.23   0
       481    559.9073    237.6788 307.6978125  +6.5821338     2064.647     3294.097     2923.596     78.06864     156.4478     312.5231      1.711     5.69     831.3718     55.07085     288.9492        20     1.562     0.806  29.42   0
       482    903.3358    236.6493 307.5552449  +6.5939602     1595.954     2772.253     3162.942     78.19286     156.1994      312.492      1.925     5.73     832.8828     55.07085     214.4877        22     1.842     0.743  32.66   0
       483    723.3668    235.1831 307.6300232  +6.5885960      4721.18      7791.57      7954.45     77.94423     156.0751     312.3056      1.758     5.63     832.2228     55.07085     728.4982        25     1.664     0.786  30.84   0
       484    664.1993    235.1722 307.6545916  +6.5866355     1897.688      3176.88     3314.913     77.81962     156.0129     312.2435      1.729     5.33     831.6599     55.07085     295.1104        17     1.637     0.653  33.66   0
       485    961.4513    235.0353 307.5311669  +6.5965520     638.1899      1006.74     1193.274     78.19286     156.2616     312.3367      1.794     4.66      832.338     55.07085     112.8024         8     1.466     0.421  22.79   0
       486    378.4420    229.3498 307.7734392  +6.5795323     557.2875     796.5029      371.209      78.4407     156.2616     312.4299      1.822     3.80     833.7655     55.07085     112.4966         5     1.354     0.305  30.87   0
       487    919.2017    227.3430 307.5489670  +6.5983288      1066.51     1666.218     1632.242     77.69481     155.9507     312.1813      1.625     5.48     832.4639     55.07085     191.0303        11     1.440     0.588  30.48   0
       488    222.6889    220.6087 307.8384028  +6.5779477     2232.562     3387.867     3577.021     77.94424     155.9507     312.1813      1.734     5.03     838.5311     55.07085     301.5992        20     1.630     0.793  30.52   0
       489    865.6174    219.3913 307.5714825  +6.5998362      1489.16     2392.009     2396.271     78.06865     156.0129     312.2746      1.788     5.63     832.0581     55.07085     213.6796        16     1.691     0.600  30.47   0
       490    756.0617    218.8739 307.6169917  +6.5964158     1402.102     2290.866     1808.404     78.56432     156.2616     312.4299      1.610     5.73      831.695     55.07085     197.9646        13     1.498     0.618  27.85   0
       491    244.8750    214.9832 307.8293797  +6.5810109      540.588     905.4784     901.0371     77.81962     156.0129     312.3056      1.630     4.29     837.9263     55.07085     133.2534         6     1.137     0.460  17.10   0
       492    456.7770    210.4865 307.7415447  +6.5899302     21378.41     35358.28     37080.48     78.31688     156.0751     312.3056      1.774     5.82     830.8566     55.07085     3380.464        50     1.770     0.964  32.00   0
       493    318.2693    212.0230 307.7990046  +6.5846811      693.997      1346.44     1017.184     77.94423     156.1994     312.3989      1.975     7.48     835.5824     55.07085     102.4158        11     1.549     1.012  29.61   0
       494    782.8746    209.4903 307.6061711  +6.6011802      12095.9      20204.2     21567.29     78.31688     156.4478      312.461      1.794     5.30     831.3765     55.07085     1844.018        46     1.796     1.019  29.93   0
       495    721.6355    204.9725 307.6317510  +6.6010131     645.0414     1021.158     983.5406     77.94423     156.0129     312.2124      1.652     5.29     830.8736     55.07085     99.35095         8     1.233     0.640  14.81   0
       496    144.9198    204.0256 307.8712500  +6.5821985     2288.738     3801.092     3866.647     78.06864     156.0751     312.4299      1.744     5.43     840.5209     55.07085      306.067        21     1.733     0.745  33.56   0
       497    120.0985    202.9101 307.8815934  +6.5818299     908.9752     1815.385     2333.111     78.31688     156.6957     312.3989      2.334     6.82     840.9489     55.07085     123.3354        14     1.806     0.723  22.64   0
       498    462.5295    205.1153 307.7393360  +6.5923396      1350.96     2106.695     2583.079      78.4407     156.5098      312.461      1.595     5.42     830.4782     55.07085     191.1765        13     1.427     0.581  29.19   0
       499    171.9637    202.0514 307.8600874  +6.5839168     576.7056     826.8785     -24.4695     78.19286     156.2616     312.3678      1.407     3.98     839.9619     55.07085     91.50568         6     1.524     0.297  30.67   0
       500    919.3789    199.9912 307.5498050  +6.6096288     1335.155     2092.483     1873.091     77.94423     156.0751     312.2124      1.709     5.64     831.6812     55.07085     183.5685        16     1.530     0.693  24.52   0
       501    580.8503    196.2129 307.6905032  +6.5999522     4192.304      7112.89     7349.453     77.69481     156.1994     312.1502      1.751     5.39     829.9129     55.07085     718.3397        26     1.706     0.786  33.39   0
       502    543.4352    196.2423 307.7060384  +6.5986958     1962.761     3240.374     2880.298     78.06865     156.2616     312.2746      1.753     5.86     829.4688     55.07085     316.3392        21     1.633     0.798  37.02   0
       503    301.1986    197.0227 307.8065957  +6.5903057     1077.739     1597.352     1712.752     77.94423     155.9507     312.2124      1.580     5.54     836.4979     55.07085     144.4637        13     1.293     0.669  22.78   0
       504    385.2058    195.2249 307.7717742  +6.5938482     1459.382     2570.084     2724.935     77.81962     156.0129     312.2746      1.760     6.17     832.8228     55.07085     238.6779        16     1.613     0.703  34.56   0
       505    941.9370    193.1473 307.5406658  +6.6132022     2273.165     3854.419     3296.264     78.31688     156.1994     312.3989      1.709     5.20     831.5724     55.07085      350.428        19     1.631     0.722  31.46   0
       506    887.8685    192.6197 307.5631355  +6.6116284      9826.23     16621.27     17173.17     77.94423     156.1373     312.3367      1.779     5.37      830.994     55.07085     1331.884        35     1.771     0.878  32.24   0
       507    562.9194    192.8202 307.6980623  +6.6007569     725.3092     1251.742     1270.342     78.06864     155.9507     312.3678      2.008     5.68     829.5603     55.07085     129.9999        11     1.644     0.676  28.66   0
       508    315.6409    193.4027 307.8007204  +6.5922819     904.9287     1512.818     1473.128      77.5698     155.9507     312.1813      1.656     5.96     835.8117     55.07085     142.1705        13     1.537     0.651  31.70   0
       509    206.6141    192.8540 307.8460088  +6.5888713     593.3573      1117.52      913.386     77.69481     156.1994     312.1813      1.611     4.93     839.1743     55.07085     91.42126         8     1.509     0.456  41.72   0
       510    974.6408    190.3822 307.5271775  +6.6154272     8306.504     14323.81     15034.93     77.81963     156.0751     312.2124      1.821     5.36     831.3546     55.07085     1150.771        40     1.797     0.975  31.68   0
       511    686.0383    190.6372 307.6470113  +6.6057503      2689.61     4120.187     4355.549     78.06864     156.1373     312.3056      1.626     5.18      830.159     55.07085     451.2334        19     1.509     0.745  33.96   0
       512     13.9400    189.6296 307.9261174  +6.5837649     23165.31     39466.45     42439.84     78.06864     156.2616     312.3989      1.808     5.46     843.3088     55.07085     3294.218        57     1.821     1.032  32.35   0
       513    260.1075    190.5006 307.8238764  +6.5916281     1119.897     1760.169     1588.773     78.31688     156.7576     312.3989      1.702     5.60     837.9532     55.07085      168.977        12     1.487     0.594  35.21   0
       514    494.7883    185.5810 307.7265951  +6.6014793      1856.87     3144.941     3068.299     77.94424     156.0129     312.3367      1.693     5.71     829.0399     55.07085     283.8721        15     1.635     0.578  34.60   0
       515    826.3721    182.0823 307.5890235  +6.6139406     1795.413     2872.393     2497.391     78.19286     156.0751     312.3678      1.721     5.18     830.0603     55.07085     256.0502        19     1.710     0.723  33.07   0
       516    506.5216    181.5707 307.7218572  +6.6035257     2417.669     4001.489     3943.439     78.19286     156.3237     312.4299      1.800     5.54      828.848     55.07085      403.272        22     1.666     0.773  33.95   0
       517    878.6906    181.0758 307.5673315  +6.6160910     1656.403     2607.761     2768.248     78.31688     156.5098      312.461      1.642     4.76      830.277     55.07085     278.2538        17     1.654     0.621  33.35   0
       518    738.0557    178.6171 307.6258127  +6.6124409     36238.43     60122.24     63159.56     77.81962     156.1994     312.1813      1.747     6.22     829.7986     55.07085     5374.909        65     1.813     0.987  32.14   0
       519    340.7668    180.0007 307.7907368  +6.5986534     3634.232      6098.97     7029.451      77.5698     156.0751     312.1813      1.778     5.65     834.4136     55.07085     501.5471        23     1.741     0.773  32.29   3
       520    341.5749    177.0510 307.7905001  +6.5998983     4563.127      7771.31     8292.741     77.94423     156.2616     312.3367      1.784     4.95     834.3217     55.07085      612.601        26     1.738     0.835  33.18   3
       521    971.7879    177.3327 307.5287969  +6.6207211     2354.496     3892.675     4104.538     77.81963     156.0751     312.3367      1.748     5.32     831.1891     55.07085     337.0481        22     1.607     0.837  29.77   0
       522    905.9545    175.7061 307.5561890  +6.6192119     6627.805      11194.5     11538.87     78.19286     156.1994     312.5541      1.776     5.36     830.6917     55.07085     888.2908        34     1.690     0.953  33.57   0
       523   1010.0923    175.9183 307.5129377  +6.6225734     1489.444     2511.864     2048.636     78.06864     156.5718      312.492      1.763     5.61     831.1104     55.07085     179.6343        17     1.518     0.747  30.34   0
       524    449.4179    174.9197 307.7457915  +6.6043712     4796.328      7868.88     8437.729     77.94423     155.9507     312.3367      1.776     5.53     829.8612     55.07085     695.7531        28     1.754     0.824  35.12   0
       525    315.1486    173.9871 307.8015759  +6.6002824     475.1784     519.8448     56.89148     77.69481     156.1994     312.1813      1.286     3.75     836.0312     55.07085     87.47369         5     1.242     0.325  25.84   0
       526    224.4919    172.3921 307.8392725  +6.5979168     694.5941       1027.2     1068.074     77.94424     155.9507     312.2435      1.647     4.70     839.0485     55.07085     107.2001         7     1.297     0.557  17.83   0
       527    106.9071    166.4601 307.8882954  +6.5964394     4379.326     7345.126     7927.116     78.19286     156.1994     312.5231      1.778     5.40     840.9712     55.07085     686.0502        31     1.755     0.901  29.76   0
       528    252.3809    164.1654 307.8279683  +6.6022443     6091.231     10122.31     10864.23     77.81962     156.0751     312.2124      1.750     5.33     838.6441     55.07085     885.5781        32     1.708     0.918  32.49   0
       529    926.8481    165.6551 307.5478478  +6.6240545     716.1544     1038.171     487.1613     78.31688     156.2616     312.5231      1.586     5.15     830.9589     55.07085     124.0605         8     1.254     0.599  17.43   0
       530    277.1300    163.0384 307.8177296  +6.6035353     31000.21     51712.82     53811.55     78.19286     156.2616      312.492      1.753     5.55     838.2227     55.07085     4425.646        53     1.790     0.958  31.56   0
       531    706.1245    162.0039 307.6396270  +6.6182406     885.5915     1481.725     1580.743     77.94423     155.7639     312.3367      1.800     5.78     829.0511     55.07085     133.5065        12     1.367     0.687  25.88   0
       532    401.1869    158.4611 307.7663702  +6.6095608      46014.2      76700.1     79823.21     77.81962     156.0751     312.1502      1.763     6.07     831.4334     55.07085     7086.658        65     1.806     0.983  31.60   0
       533    157.0602    159.8432 307.8676931  +6.6008470     3774.473     6371.776      6381.38     78.31688     156.2616     312.5541      1.777     5.56     839.9442     55.07085     476.1917        27     1.690     0.857  32.74   0
       534    418.3074    158.9207 307.7592457  +6.6099413     1322.715     2196.526     2032.276     78.06864     156.4478      312.492      1.741     6.24     830.7522     55.07085     201.2661        18     1.692     0.739  37.44   0
       535    305.2023    156.2337 307.8063012  +6.6072812     16729.94     27886.46     29546.28      77.5698     156.0751     312.2435      1.749     5.56     836.9393     55.07085     2463.582        45     1.828     0.910  29.80   2
       536    312.6348    156.3967 307.8032096  +6.6074618     1976.577     3498.853     4306.915     77.44459     156.0751     312.1813      1.889     6.08     836.3475     55.07085     309.1752        19     1.796     0.684  29.13   3
       537    740.4826    154.4874 307.6256106  +6.6224851     30525.46     49642.53      51031.8     78.06865     156.4478      312.492      1.768     5.78     828.7507     55.07085     4300.577        50     1.767     0.939  32.50   0
       538    688.4783    156.4677 307.6471397  +6.6199405     845.4355     1530.521     1278.636      78.4407     156.3237     312.3989      1.852     4.91     828.8474     55.07085     136.0712        10     1.768     0.386  32.79   0
       539    788.8086    154.9712 307.6055267  +6.6238892      1084.06     1791.705     1762.848     77.94423     156.0751     312.2124      1.620     6.02      828.786     55.07085     177.7023        13     1.495     0.681  35.73   0
       540    539.3194    156.8241 307.7090663  +6.6148352     493.7607     584.7111     788.5337     78.06864     156.0129     312.3678      1.554     3.61      827.827     55.07085     76.38477         5     1.000     0.376   3.76   0
       541     26.6769    154.8502 307.9219986  +6.5985512     606.7169     962.1396     1115.991     78.19286     156.3236     312.4299      1.522     4.01     842.9847     55.07085     113.6532         6     0.800     0.574  60.42   2
       542     57.2249    152.0693 307.9094081  +6.6007209     8235.344     14172.69      15003.6     77.94423     156.1373     312.3678      1.793     5.65     842.1346     55.07085     1120.828        34     1.756     0.898  29.10   0
       543    563.7988    152.7221 307.6990385  +6.6173432     502.0479     814.3965     1072.429      77.5698     155.7016     312.2435      2.338     4.69     828.0797     55.07085     109.0596         7     1.543     0.405  40.14   0
       544    313.4021    151.8088 307.8030448  +6.6093818     584.8039     905.8596     2028.477     77.69481     155.9507     312.2124      1.961     4.47     836.3901     55.07085     80.20728         7     1.261     0.450  23.04   0
       545     91.0943    150.1892 307.8954080  +6.6026293     1400.236     2395.753     2304.131     77.94423     155.8885     312.2124      1.717     4.89     841.1565     55.07085     224.4578        20     1.697     0.821  34.91   0
       546    999.3350    148.8292 307.5183070  +6.6334030     933.5856      1588.39     1593.352     78.06864     156.2616     312.3678      1.599     6.06     830.1581     55.07085     153.1141        10     1.449     0.713  24.19   0
       547    725.1061    142.2581 307.6324043  +6.6270243     565.5848     928.4991     909.8104     78.19286     156.2616     312.6162      1.557     4.15     828.3369     55.07085     96.38147         5     1.008     0.521  32.67   0
       548    574.7706    139.6906 307.6949183  +6.6230890      729.632     1089.948     1401.712      78.4407     156.0129     312.3678      1.732     4.09     827.9996     55.07085     144.5444         7     1.101     0.435  30.02   0
       549   1000.1239    135.0645 307.5184379  +6.6391129     1911.768     3187.328     3656.206      78.4407     156.2616     312.3989      1.781     5.73     829.1595     55.07085     258.0623        19     1.575     0.778  29.44   0
       550    583.1621    132.8376 307.6916629  +6.6261977     914.8354      1652.24     1708.991     78.06864     156.1373     312.3056      1.869     6.11     827.9179     55.07085     134.6273        14     1.730     0.606  33.65   0
       551    591.3797    130.9723 307.6883128  +6.6272412     1833.661     3078.076     3119.353     77.94423     156.0751     312.3678      1.745     5.16     827.9165     55.07085     269.7883        20     1.632     0.815  35.47   0
       552    335.4110    131.2729 307.7945944  +6.6185950      1019.87     1516.505     1723.389     77.81963     155.8885     312.3056      1.650     5.55     834.9731     55.07085     141.8622        12     1.400     0.621  35.80   0
       553    276.0456    129.2869 307.8193121  +6.6174353     28264.13     47414.55     50305.92     78.31688     156.1373     312.4299      1.785     5.90     838.5749     55.07085     4356.538        53     1.791     0.979  32.00   0
       554     21.2499    127.8354 307.9251606  +6.6095240     4180.511     6958.967     7398.115     78.19286     156.2616     312.3678      1.732     5.49     843.0821     55.07085     551.1866        28     1.664     0.871  32.52   0
       555    707.6581    125.7104 307.6402025  +6.6332777     7518.769     12462.92     13124.29     78.19286     156.1994     312.5541      1.784     5.65     827.7988     55.07085     1063.077        36     1.753     0.893  33.10   0
       556    185.1579    127.2992 307.8571190  +6.6152228     751.2749     1360.233     1263.133     78.31688     156.1373     312.6473      1.740     5.18     839.3701     55.07085     125.8408        10     1.529     0.495  29.77   0
       557    261.6998    124.6434 307.8254249  +6.6188741     786.2676     1352.448     1963.759     78.31688     156.1373     312.6473      2.161     6.33     838.7615     55.07085     105.4752        12     1.459     0.770  23.68   0
       558    118.4129    123.1081 307.8849746  +6.6147240     4456.236     7419.412     7910.583     78.06864     156.0129     312.2124      1.804     5.18      840.228     55.07085     599.2513        28     1.706     0.885  31.85   0
       559    580.1486    120.8886 307.6933139  +6.6310314     677.6118     1303.794     1220.865     78.31687     156.0751     312.5231      1.928     5.20     827.6467     55.07085       104.86         9     1.875     0.408  39.63   0
       560    646.4803    119.9241 307.6658010  +6.6336347     941.8381     1588.311     1662.271     78.56432     156.5098     312.5541      1.789     6.61     827.6438     55.07085     134.7924        15     1.382     0.886  30.20   0
       561    457.3727    120.1341 307.7443230  +6.6272577     1181.787     2091.607     2183.857     77.94423     156.1994     312.3367      1.808     5.45     828.8347     55.07085     193.5439        16     1.609     0.691  34.89   0
       562    389.1176    119.0737 307.7727018  +6.6254221     3600.076     6599.021     7284.818     78.56432     156.5718      312.492      1.912     6.26     831.8841     55.07085     493.4436        30     1.799     0.969  35.56   0
       563    353.6033    117.9040 307.7874883  +6.6247216     3084.506     4957.477     5113.541     78.06864     155.9507     312.1191      1.680     5.13     833.7048     55.07085     421.5507        20     1.636     0.717  30.26   0
       564    107.9706    117.9118 307.8894852  +6.6165206     1543.768     2562.745     2719.062      78.4407     156.0129     312.3056      1.771     5.26     840.3409     55.07085     232.5711        16     1.537     0.698  33.41   0
       565    567.1593    117.2816 307.6988286  +6.6320889     527.2621      1148.86     1338.058     78.31688     156.2616     312.3678      2.232     4.33     827.5714     55.07085     78.72284         5     0.753     0.709  19.43   0
       566    744.3396    115.8971 307.6252976  +6.6385477     556.0864     799.2041     722.3916     78.06864     156.2616     312.5231      1.423     4.41     827.4059     55.07085     103.7793         6     1.339     0.413  22.19   0
       567    669.3053    115.4226 307.6564730  +6.6362518     569.6075     953.9435      805.744     78.31688     156.0751     312.2746      1.880     5.70     827.4755     55.07085     129.2604         9     1.638     0.558  37.96   0
       568   1000.6768    111.7759 307.5189839  +6.6487476     1495.849     2487.846     2017.604     77.94424     156.1373     312.3989      1.762     4.93     827.5106     55.07085     196.6962        17     1.333     0.895  32.08   0
       569     87.9995    106.9528 307.8981463  +6.6203782     1906.067     3360.677     4220.151      77.5698     155.9507     311.9948      1.800     6.06      840.696     55.07085     262.3872        20     1.693     0.800  32.85   0
       570    205.4285    106.8451 307.8493886  +6.6243451     5214.637     8479.236     8295.396     77.94423     156.3236     312.3367      1.720     5.25     839.1952     55.07085     689.3919        28     1.640     0.865  32.76   0
       571    667.2144    105.4673 307.6576740  +6.6402930     5611.711     9352.317     9760.521     77.81963     156.1373     312.3367      1.751     6.40      827.139     55.07085      877.152        29     1.657     0.865  33.83   0
       572    815.2797    105.1037 307.5961983  +6.6453587     1024.798     1578.116     1239.913     78.06864     156.5098     312.5231      1.635     5.24     827.1542     55.07085     177.1255        10     1.434     0.540  29.93   0
       573    619.3861    102.7765 307.6776256  +6.6398147     8834.211     14241.67     14809.18     78.06865     156.0751     312.3367      1.720     5.54     827.0717     55.07085     1257.777        31     1.672     0.864  31.08   0
       574    254.4689    103.5308 307.8291360  +6.6273503     750.9629      1331.91     1132.766     78.31688     156.3857     312.3989      1.527     4.21     838.9544     55.07085      139.019         7     1.301     0.389  48.83   0
       575     18.3505    102.1730 307.9272277  +6.6200230     923.4655     2042.737     2169.708     77.94423     156.3236     312.3678      2.214     7.46     843.1234     55.07085     133.0635        16     1.482     1.050  16.78   0
       576    556.8555    101.8654 307.7036231  +6.6381117     619.3905     1064.711     1145.013      78.4407     156.1994     312.4299      1.606     5.49      827.413     55.07085     113.6779         8     1.328     0.639  25.65   0
       577    346.4953     98.6037 307.7910870  +6.6324539     3602.453     6506.973     7183.101     78.06865     155.9507     312.1813      1.945     5.11     834.4683     55.07085      471.941        36     1.726     1.202  29.22   0
       578    528.2712     98.0053 307.7156224  +6.6387547     1655.175     2475.693      1905.87     77.94423     155.8885     312.3367      1.511     4.77     827.5736     55.07085     256.3928        18     1.526     0.741  27.48   0
       579    994.3338     97.9021 307.5220802  +6.6542664     531.1677     950.0432     1088.951     78.31688     156.3236      312.461      1.422     2.75     826.6085     55.07085      100.562         5     0.853     0.471  88.96   0
       580    622.9112     94.2604 307.6764465  +6.6434483     49370.41      81651.3     85473.18     78.19286     156.3857      312.461      1.757     5.63     826.8624     55.07085     8013.496        62     1.790     0.969  32.93   0
       581    301.9401     88.1108 307.8099407  +6.6353009     3370.752     5823.593     6900.033     78.19286     156.3857     312.5231      1.842     5.32     837.8872     55.07085     505.4937        25     1.674     0.823  31.20   0
       582    702.4124     82.8415 307.6438131  +6.6508048      790.951     1248.037     1001.319     77.69481     156.0751     312.1813      1.672     4.91     826.6887     55.07085      136.626        10     1.301     0.525  22.81   0
       583    214.6800   1018.7331 307.8149566  +6.2481268     3005.885     5534.466     6304.743      78.4407     156.4478     298.9369      1.971     5.09     856.5892     55.07085     382.8846        33     1.903     1.040  30.24  16
       584    673.2621     81.4555 307.6559650  +6.6504088     1333.864     2142.857     1801.246      78.4407     156.2616     312.4299      1.694     6.01     826.8234     55.07085     198.0507        14     1.547     0.657  32.75   0
       585    687.3248     78.2146 307.6502333  +6.6522142     3081.317     5009.056     5415.395     77.81963     156.0129     312.2746      1.726     5.25     826.7333     55.07085     444.3965        21     1.670     0.707  29.95   0
       586    429.0774     69.3572 307.7577738  +6.6472817     3808.597     6427.609     6303.396     78.19286     156.2616      312.461      1.754     5.71      830.601     55.07085     548.4348        27     1.689     0.820  31.89   0
       587    901.6607     64.4473 307.5616816  +6.6650106     3515.501     6034.459     6728.233     78.19286     156.1994      312.492      1.833     5.05     826.3463     55.07085     482.8344        28     1.686     0.908  31.15   0
       588    883.5804     65.4306 307.5691574  +6.6640053     1948.114     2914.137     2823.368     77.81963     156.0751     312.3056      1.665     5.33     826.3912     55.07085     257.8705        18     1.559     0.714  31.21   0
       589    583.0220     65.9982 307.6939567  +6.6537920     505.8385     574.5458     377.0589     77.94423     155.9507     312.1502      1.178     3.05     826.9243     55.07085     91.36499         5     0.624     0.601   0.08   0
       590    593.7606     63.2285 307.6895899  +6.6552927     1810.937     2913.201     2809.586     77.94424     156.0129     312.3056      1.658     5.04     826.8566     55.07085      284.601        18     1.600     0.688  28.35   0
       591    614.0462     63.3386 307.6811619  +6.6559216     445.2818     560.9462     758.3405     78.19286     156.1373      312.461      2.110     5.41     826.7879     55.07085     97.74042         7     1.643     0.502  18.80   0
       592    239.6172     62.6595 307.8366749  +6.6437306     752.1353     1103.705     1741.504     77.94424     156.1994     312.1813      1.981     5.13     838.9193     55.07085     133.3909         9     1.435     0.518  40.86   0
       593    392.5464     61.2767 307.7732149  +6.6494012     1963.294     3096.665     2792.454      78.4407     156.2616      312.461      1.657     5.87     832.9759     55.07085     318.7308        17     1.437     0.738  29.41   0
       594    140.3517     58.3260 307.8780413  +6.6422055      3056.45     4844.376     4760.998     78.31688     156.3236      312.461      1.716     5.55     838.9587     55.07085     414.7766        22     1.621     0.759  34.49   0
       595     22.1319     56.1726 307.9272048  +6.6391428     11201.48     19319.51     21598.65     77.94423     156.1373     312.3367      1.843     5.42     842.8945     55.07085      1523.87        44     1.790     1.035  33.52   0
       596    288.8300     56.7254 307.8164377  +6.6478228     1355.038     2229.454     2887.133     78.19286     156.2616     312.4299      1.813     5.64     838.7845     55.07085     207.0245        17     1.595     0.768  30.57   0
       597    549.1967     55.4267 307.7083575  +6.6570321     675.4237     936.3315     817.4934     77.81963     156.0129     312.2746      1.798     5.03     826.9703     55.07085     128.4195        10     1.550     0.461  36.68   0
       598    757.5370     54.7944 307.6218574  +6.6642162     645.1155     1064.213     1798.629     77.69481     156.0129     312.1813      2.286     4.85     826.0004     55.07085      94.5907         8     1.428     0.466  38.14   0
       599    561.6762     55.5492 307.7031708  +6.6573966     629.4774     776.6502     291.0007     78.31688     156.3236     312.4299      1.317     3.71     826.9361     55.07085     136.8752         6     1.035     0.382  19.36   0
       600    151.3621     54.0962 307.8736113  +6.6443198     591.6096     906.2612     414.8805     78.31688     156.1373     312.5541      1.477     3.85     838.8406     55.07085     92.91327         5     1.349     0.315  26.36   0
       601    890.4674     51.4749 307.5667627  +6.6699962     612.7922     1081.711     1209.745      78.4407     156.3857     312.4299      1.812     5.59     825.9141     55.07085     125.0337         7     1.551     0.568  32.10   0
       602    823.9847     50.2855 307.5944125  +6.6682828     5609.258     9431.346     9748.279     77.94423     156.0129     312.3367      1.744     5.43     825.7772     55.07085      871.415        33     1.737     0.901  31.72   0
       603    769.0770     50.6657 307.6172027  +6.6663040     3129.778     5273.961      5405.43      78.4407     156.2616     312.3989      1.747     5.25      825.879     55.07085     442.8564        26     1.676     0.813  31.77   0
       604    414.2798     51.5260 307.7645163  +6.6541514     1171.752     1606.398     1217.048     78.56432     156.5098      312.492      1.486     4.98     831.9032     55.07085     192.4607        13     1.413     0.623  26.13   0
       605     46.9637     48.9012 307.9171379  +6.6429756      899.766     1264.198      815.423     78.31688     156.1373     312.6162      1.552     5.68      841.592     55.07085     148.7249        14     1.454     0.818  31.06   0
       606    531.3183     48.7966 307.7160039  +6.6591749     1037.892     1872.996     2077.901     77.69481     155.8885     312.1502      1.748     5.22     827.2628     55.07085     172.0625        11     1.467     0.526  28.15   0
       607     62.3841     47.8667 307.9107694  +6.6439184     2977.657     5220.666     5220.812     77.81962     156.1373     312.3367      1.753     5.84     840.8035     55.07085     389.9611        24     1.730     0.790  34.55   0
       608    424.0842     47.5275 307.7605787  +6.6561290     912.7556     1367.884      1431.18      78.4407     156.5718      312.461      1.503     4.94     831.4703     55.07085     145.8315         9     1.280     0.540  29.05   0
       609    586.3735     44.4323 307.6932863  +6.6628082     1256.017       1931.3     2031.232     77.81963     156.0129     312.2435      1.708     5.67     826.7845     55.07085     220.7153        13     1.461     0.621  33.89   0
       610      4.7018     43.3849 307.9348728  +6.6438398     2306.595     3942.277     4320.702     78.31688     156.0129     282.4442      1.875     5.93     843.7809     55.07085     342.4761        23     1.706     0.879  27.26  24
       611    763.8440     38.2612 307.6197902  +6.6712523     1882.688     3028.708     3278.959     78.31688     156.2616     312.5541      1.703     5.02     825.6675     55.07085     281.7406        20     1.534     0.893  31.88   0
       612     77.3424     38.9477 307.9048577  +6.6481011     630.4337     990.2125     511.8073     78.31687     156.2616     312.4299      1.624     5.88     839.8513     55.07085        104.7        11     1.611     0.603  44.63   0
       613    404.4621     38.4122 307.7690328  +6.6592391     992.9707     1593.469     1272.072     77.81963     156.0751     312.1813      1.704     5.93      833.066     55.07085     157.2466        14     1.535     0.688  33.85   0
       614    101.4894     37.7045 307.8948723  +6.6494215     833.7721     1562.157     1305.241     78.31688     156.6338      312.461      2.097     5.75     838.7248     55.07085     120.4152        10     1.458     0.640  36.18   0
       615     90.2358     32.2634 307.8997283  +6.6512920     8456.418     14475.78     15013.33     78.19286     156.2616     312.4299      1.809     5.24     838.9753     55.07085     1166.098        40     1.787     0.955  30.49   0
       616    419.3219     31.7952 307.7630835  +6.6624664     2393.784     3784.461     4010.897     77.94423     155.7639     312.2124      1.721     5.29     832.2408     55.07085     348.9162        21     1.651     0.775  32.04   0
       617    239.6741     30.8244 307.8377198  +6.6568773     641.3361     765.2563      655.637     77.94423     156.0751     312.3678      1.506     5.15     838.7755     55.07085     106.8239         7     1.205     0.622  49.92   0
       618    256.9394     26.4248 307.8306977  +6.6592701     1386.585     2051.177      2964.64     77.94423     156.2616     312.3367      1.834     5.14     838.7639     55.07085     207.0005        16     1.500     0.766  27.63   0
       619    632.9953     23.9688 307.6746090  +6.6728078     16588.83     27874.43     28774.45     77.69481     156.1373     312.2124      1.752     5.86     826.6824     55.07085     2452.769        44     1.735     0.942  31.75   0
       620    532.8181     20.1242 307.7163407  +6.6710639     4770.635     7828.028     7993.608     77.81962     156.0129     312.3989      1.713     5.46     827.0153     55.07085     738.4637        26     1.724     0.786  29.68   0
       621    250.8930     20.4428 307.8334094  +6.6615383      1856.44     2939.831     3707.074     78.31688     156.2616     312.5541      1.841     5.69     838.7392     55.07085     289.6311        19     1.571     0.774  25.10   0
       622    689.3370     18.7936 307.6513832  +6.6768168     564.6757     787.4058     979.5381     77.69481     156.0129     312.2124      1.510     3.47     826.3676     55.07085     89.51172         5     1.219     0.285  34.96   0
       623      1.5689     19.2269 307.9369866  +6.6537097     666.2245     630.0922     196.6535      70.4907     127.4602     238.7612      0.992     3.76     844.0513     55.07085     125.9859         6     0.736     0.636  49.27  24
       624    621.2940     18.2714 307.6796590  +6.6747714     904.2363     1625.031     1838.623     78.19286     156.3236     312.4299      1.714     5.36     826.6749     55.07085     142.5854        10     1.601     0.507  20.98   3
       625    580.7412   1015.6412 307.6631617  +6.2615900     126516.9     236784.6     255908.7     78.31688     156.2616      312.492      2.001     4.97     861.0972     55.07085     14950.82       108     2.026     1.275  32.32  19
       626    582.5302   1008.4570 307.6626593  +6.2646159     59894.05     110171.9     120476.1      78.4407     156.2616     312.3989      1.987     4.97     860.8472     55.07085     6766.667        88     2.028     1.240  31.68   3
       627    398.8069   1019.5596 307.7385259  +6.2539207     454.3101     881.2227     853.9128     77.69481     155.9507     290.5404      2.388     4.58     860.1376     55.07085     72.22162         5     0.820     0.726 -58.23  16
       628    791.7090   1012.3747 307.5757256  +6.2699423     5191.007        10162     10968.79      78.4407     156.0129     312.2746      2.085     5.31     857.2336     55.07085       615.01        46     1.932     1.257  27.10  16
       629    889.5778   1009.0121 307.5352244  +6.2745748     1150.614     2164.167     2204.894     77.94423     156.0751     312.3367      1.917     5.10     855.8642     55.07085     159.5948        17     1.467     0.851  18.10   0
       630    212.4571   1008.1757 307.8162329  +6.2524119     1855.333     3354.518     3881.899     77.94424     156.2616     312.2435      1.966     4.92     856.4156     55.07085     225.3883        24     1.541     1.099  35.30   0
       631    715.4849   1004.8397 307.6076078  +6.2705249     5720.103     10979.55     11966.68     78.31688     156.1994     312.3989      2.040     5.10     858.9855     55.07085     715.6193        42     1.916     1.110  33.67   0
       632    430.2930   1005.1915 307.7259413  +6.2609016     3285.856     6115.706     6469.796     77.94423     155.9507     312.2435      1.947     5.00     859.7529     55.07085     424.0515        33     1.895     0.991  32.47   0
       633    708.0674   1004.2665 307.6107050  +6.2705154     836.2457     1730.731     2293.487     78.31688     156.2616      312.461      2.230     5.86      859.042     55.07085     115.9798        13     1.426     0.872  45.61   1
       634    571.5782   1004.0207 307.6673522  +6.2660838     3410.286     6311.105      7394.93     78.06864     156.1994     312.3678      2.012     5.34     860.7222     55.07085     428.8549        35     1.957     0.997  35.94   1
       635    747.8475   1000.2379 307.5943317  +6.2734990     880.4163     1681.642     2509.204     78.19286     156.2616     312.3056      2.242     7.44     858.2828     55.07085      129.489        17     1.567     0.989  19.76   0
       636    196.6704    998.4910 307.8231082  +6.2558843     525.0315     730.7999      681.369     78.19286     156.4478     312.4299      1.868     4.15     856.1136     55.07085     78.50934         6     1.071     0.459  55.08   0
