#   1 NUMBER                 Running object number                                     
#   2 X_IMAGE                Object position along x                                    [pixel]
#   3 Y_IMAGE                Object position along y                                    [pixel]
#   4 ALPHA_J2000            Right ascension of barycenter (J2000)                      [deg]
#   5 DELTA_J2000            Declination of barycenter (J2000)                          [deg]
#   6 FLUX_APER              Flux vector within fixed circular aperture(s)              [count]
#   9 FLUXERR_APER           RMS error vector for aperture flux(es)                     [count]
#  12 FLUX_RADIUS            Fraction-of-light radii                                    [pixel]
#  13 FWHM_IMAGE             FWHM assuming a gaussian core                              [pixel]
#  14 BACKGROUND             Background at centroid position                            [count]
#  15 THRESHOLD              Detection threshold above background                       [count]
#  16 FLUX_MAX               Peak flux above background                                 [count]
#  17 ISOAREA_IMAGE          Isophotal area above Analysis threshold                    [pixel**2]
#  18 A_IMAGE                Profile RMS along major axis                               [pixel]
#  19 B_IMAGE                Profile RMS along minor axis                               [pixel]
#  20 THETA_IMAGE            Position angle (CCW/x)                                     [deg]
#  21 FLAGS                  Extraction flags                                          
         1    693.9556     18.3632 307.6451812  +6.6898961     7267.759     11153.45     11442.09     78.20113     156.5267     312.8356      1.641     3.80     829.0272     55.16431     1035.254        33     1.516     1.004 -46.09   0
         2    614.1269     17.4751 307.6783818  +6.6875903     3831.114     5822.606     5508.227     78.69765     156.7754     313.0223      1.619     3.72     829.1898     55.16431     505.7741        24     1.428     0.893 -49.15   0
         3    316.4670     17.1043 307.8020758  +6.6777587     887.3305     1449.306     2035.333     78.44978     156.6511     312.9601      1.684     5.14     839.2964     55.16431     130.6039        10     1.302     0.591 -48.15   0
         4    414.3482     13.6954 307.7615205  +6.6824530     6084.057     9575.864     9797.078     78.32555     156.4645     313.2089      1.696     3.75     836.7519     55.16431     797.0582        32     1.532     1.009 -49.21   0
         5     15.3138     13.2175 307.9273349  +6.6692304     8128.621      13261.8     14266.35     78.07651     156.2777     312.8979      1.740     3.87     838.1902     55.16431     1159.501        40     1.629     1.118 -52.48   0
         6    661.5291     12.0084 307.6588693  +6.6914347     872.7018     1138.862     1088.513     77.95168     156.0906     312.8356      1.383     4.42     828.8699     55.16431     144.4678         8     0.857     0.727  30.49   0
         7    489.9110     10.5498 307.7302293  +6.6862869     855.4948     1340.249      1424.29     78.44978       156.34     313.0846      1.688     5.87     830.0577     55.16431     124.9672        12     1.457     0.666 -73.61   0
         8    310.8429      8.6770 307.8046975  +6.6810495     12677.67     20180.69     22176.71     78.32555     156.5267     312.9912      1.715     3.95     839.4376     55.16431     1627.587        46     1.678     1.056 -49.05  16
         9     84.5350      8.7851 307.8987245  +6.6733925     2405.672     3859.071     4317.502     77.95168     156.4023     312.8668      1.766     4.05      839.517     55.16431     341.3973        22     1.400     0.931 -58.28  16
        10     75.8647      8.0595 307.9023516  +6.6734001     1415.918     2376.447     2250.683     78.57381     156.4645     311.8067      1.684     5.88     839.2588     55.16431     179.4515        18     1.545     0.873 -50.21  16
        11    405.6196      8.8227 307.7653120  +6.6841720     713.3677     1061.089     573.8655     78.20113     156.4645     312.8979      1.460     4.72     837.0822     55.16431     109.3043         9     1.135     0.556 -25.69   0
        12    780.0284      7.1788 307.6097920  +6.6973933     789.3102      1011.48     797.1608     77.82666     156.2777     306.6421      1.310     4.59     827.1417     55.16431     109.2328         8     0.917     0.740 -70.12  16
        13    377.0121      6.8193 307.7772664  +6.6840389     2105.442     3491.463      3152.25     78.20113     156.2777      304.059      1.669     4.10     837.6927     55.16431     278.1232        20     1.417     0.874 -51.55  16
        14    637.8118      2.4476 307.6690465  +6.6945885     10808.63     15260.95     16137.33     77.82666     139.6257     252.6694      1.552     4.08     828.6689     55.16431     1579.115        34     1.447     1.024 -37.56  24
        15    972.2930      3.0888 307.5300365  +6.7055039     815.4854     1238.016     1245.566     78.44978     147.2298     262.3873      1.633     5.26     821.2277     55.16431     115.9894        10     1.187     0.657 -58.32  24
        16    802.2845      2.0623 307.6007160  +6.7002501       1501.6     2357.584     2571.974     76.18269     134.9441     247.2543      1.684     4.30     826.0757     55.16431     235.8592        15     1.189     0.888 -49.17  24
        17    515.4209      2.2627 307.7199091  +6.6905641     1259.305     1854.202     2184.134     77.19851     137.5174     250.0739      1.595     5.93     829.4138     55.16431     166.3626        14     1.318     0.750 -46.33  24
        18     56.1565      2.7439 307.9107203  +6.6749311     695.7751     803.1947     852.8824     78.32555     143.1384     257.3283      1.366     5.00     838.4603     55.16431     110.1063         8     0.963     0.736 -82.12  24
        19    236.9508      1.2361 307.8356517  +6.6816383     1407.042     1614.998     1352.869     66.92866     123.0152     233.8134      1.092     2.80     839.4418     55.16431     373.1561         8     1.065     0.424   1.52  24
        20    467.4381    994.1662 307.7063934  +6.2793789     2117.607     3351.391     3447.168     78.20113       156.34     312.7422      1.717     4.14     862.5221     55.16431     263.8653        22     1.433     0.901 -44.19   0
        21    942.2615   1023.1030 307.5082771  +6.2833076       4809.3     6806.273      6592.41     74.50246     132.6148     244.6013      1.439     3.77     858.1661     55.16431     686.7962        26     1.478     0.873  -6.23  24
        22    701.7118   1022.0472 307.6081873  +6.2757092     2669.285     4387.138     4655.442     78.44978      145.433     260.3381      1.758     4.13     862.5803     55.16431     352.8965        24     1.359     1.049 -46.25  26
        23    696.9650   1023.5217 307.6101085  +6.2749417     678.5338      744.783      1172.99      70.0565     126.6811     237.9418      1.154     3.87     862.7775     55.16431      141.311         6     1.069     0.403 -17.42  27
        24    425.2309   1022.7468 307.7229537  +6.2661625     794.8126     1045.068     890.2404     77.45038     137.5174      249.957      1.309     4.00     862.7097     55.16431     124.1206         9     1.112     0.562 -45.99  24
        25    226.8665   1023.2944 307.8052901  +6.2592788     1101.312     1351.458     1039.786     72.78345     130.0942     241.5567      1.250     4.10     861.0888     55.16431     204.7344         9     1.003     0.648 -36.38  24
        26    901.8692    986.3925 307.5262797  +6.2971187      39607.8     68347.55     73521.57     77.95168     156.2153     312.8668      1.846     4.04     857.7643     55.16431     5140.566        80     1.783     1.324 -47.46   0
        27    209.3876    984.5736 307.8138549  +6.2746799     1651.574     2651.285     3095.191     78.07651       156.34     312.8979      1.774     4.72     860.7903     55.16431     212.8975        19     1.462     0.866 -52.21   0
        28    747.9551    978.2474 307.5904594  +6.2953414     6218.002     10685.42     12173.55     78.44978     156.4645      312.929      1.911     4.62     859.9524     55.16431     824.9023        41     1.882     1.069 -61.46   0
        29    608.4047    982.9681 307.6482423  +6.2887244     833.5361     1088.535     925.0029     77.82666     156.4023     312.7422      1.547     4.81     862.2983     55.16431     124.5457         8     1.107     0.593 -40.97   0
        30     97.1037    983.2014 307.8605184  +6.2714716     604.1458     897.0518      888.454     77.95168     156.2777     312.6176      1.708     5.11     859.4532     55.16431     97.57178         6     1.115     0.662  -5.48   0
        31    800.0250    980.0879 307.5687779  +6.2963214     2191.099     3606.318     3726.542     78.57381       156.34     312.8356      1.771     4.30     858.8817     55.16431     287.6173        22     1.450     0.949 -51.97   0
        32    534.7137    977.5232 307.6790218  +6.2885053     865.6096     1431.168     1649.928     78.44978     156.8375     313.0223      1.927     5.06     862.3885     55.16431     118.9324        10     1.309     0.553 -53.44   0
        33    217.5315    976.9991 307.8107296  +6.2780812     1463.995     2434.432     2788.084     77.95168     156.0906     312.7734      1.746     4.39     860.9188     55.16431     217.6328        17     1.377     0.933 -47.02   0
        34    936.2741    973.1367 307.5124391  +6.3037405     6174.969     10573.52     11308.55     78.69765     156.5267      312.929      1.864     4.02     856.4981     55.16431      753.222        42     1.635     1.278 -45.58   0
        35    182.0088    976.2109 307.8255045  +6.2772129      998.416     1686.837     2265.653     77.95168       156.34     312.8979      1.964     3.37     860.3327     55.16431      155.676        10     0.961     0.705 -52.70   0
        36     42.3768    975.0311 307.8835156  +6.2730038     2502.939     4151.176     4111.278     77.82665     156.2777     312.7111      1.685     4.11     859.4331     55.16431     367.6905        21     1.494     0.852 -46.62   0
        37    192.5306    969.3267 307.8213687  +6.2804091     630.1207     988.2776     967.8373     78.57381     156.6511     312.9601      1.767     5.41     860.4824     55.16431     89.11902        10     1.638     0.504 -46.36   0
        38    910.0173    964.8783 307.5236184  +6.3062745     1886.997     3410.197     3149.162      78.0765     156.2777     312.8979      1.895     5.14      856.829     55.16431     239.1093        23     1.538     1.003 -47.77   0
        39    242.8252    960.8826 307.8007726  +6.2855856     4146.398     6729.195     6688.317     78.20113     156.2777     312.9601      1.691     4.15     861.3386     55.16431      590.385        28     1.535     0.937 -50.75   0
        40    769.5421    961.1302 307.5820715  +6.3031310     1247.474     1996.012     1694.785     78.57381     156.5267      312.929      1.666     4.73     859.1337     55.16431      189.642        16     1.275     0.860 -68.91   0
        41    630.6500    960.7144 307.6397548  +6.2986580     4484.931     7076.549     6498.494     78.44978     156.4023     313.0223      1.699     4.14     861.6132     55.16431     611.3414        29     1.557     0.961 -48.90   0
        42    452.9291    959.1751 307.7135968  +6.2933412     1110.776     1855.669     1505.983      78.0765     156.4023     312.8979      1.706     5.24     862.3314     55.16431     159.7487        14     1.425     0.691 -41.72   0
        43     11.6390    958.1525 307.8968483  +6.2789384      2074.21     3233.894     3410.919     78.32555     156.5267     312.7734      1.655     4.18     859.3916     55.16431      277.214        20     1.373     0.874 -56.28   0
        44    862.4543    957.2899 307.5436220  +6.3078204     983.7567     1560.844      1090.42     78.44978       156.34     313.0846      1.613     4.59      857.757     55.16431     160.3809        14     1.263     0.801 -61.94   0
        45    934.3714    954.5787 307.5138517  +6.3113402     822.1271     1342.743     1417.982     77.82666     156.2777     312.8668      1.768     5.73     855.7839     55.16431     104.1266        10     1.122     0.823 -70.62   0
        46    278.8372    954.6190 307.7860323  +6.2893815     734.8979     1127.626      1497.69      78.0765       156.34     312.7422      1.543     4.01     861.8924     55.16431     162.6491         9     1.330     0.586 -59.43   0
        47    986.3613    953.3712 307.4923048  +6.3135730     814.9366     1379.341     1366.581     77.95168     156.2153     312.8356      2.019     5.53     854.4307     55.16431     146.1857         9     1.664     0.518 -43.99   0
        48    555.4891    953.2056 307.6712148  +6.2992424     1657.141     2610.245     2520.452     77.95168     156.2153     312.7111      1.625     4.29     862.0648     55.16431     243.0266        17     1.352     0.842 -45.04   0
        49     44.2930    949.8226 307.8835732  +6.2834771     775.5297     1402.931     1996.022     78.44978       156.34     312.8045      2.029     5.19     859.3918     55.16431     120.0844         9     1.328     0.574 -52.33   0
        50    594.3472    949.4388 307.6552075  +6.3020989     1072.326     1646.918     1853.661     78.32555     156.5889     312.9601      1.814     4.86     861.6791     55.16431     169.8104        14     1.455     0.770 -43.18   0
        51    274.5091    947.1684 307.7880809  +6.2923126     1409.315     2172.273     1879.818     78.57381       156.34     312.9912      1.740     4.88     861.7542     55.16431      171.717        16     1.406     0.816 -44.94   0
        52    542.3192    945.2027 307.6769525  +6.3021059     434.2606      751.364     135.7503     77.82666     156.0906     312.7111      1.715     5.46     862.0804     55.16431     111.0532         7     1.734     0.485 -42.72   0
        53    741.2578    943.1953 307.5944183  +6.3095915     852.8393     1385.877     1128.688     77.82666     156.4023       312.68      1.587     4.28     858.9641     55.16431     148.5887        11     1.230     0.738 -42.28   0
        54    878.9427    940.0626 307.5373539  +6.3154845     6495.556     10711.66     10952.12     78.57381     156.4645     312.9912      1.746     4.16     856.9063     55.16431     850.1544        33     1.553     1.054 -46.96   0
        55    117.5870    941.4050 307.8534278  +6.2894187     544.6398     593.5923     469.1665     78.07651     156.2777     312.8356      1.219     4.12     859.5054     55.16431     89.12518         5     1.001     0.485 -84.47   0
        56    414.8017    937.2695 307.7301658  +6.3011080     1955.262     3194.165     3444.406     77.95168     156.0906     312.8045      1.754     5.11     862.1434     55.16431     252.2006        24     1.680     0.949 -56.72   0
        57    584.3206    937.7829 307.6597629  +6.3065763     579.0597     1150.707     838.6244     78.07651     156.2153     312.8979      1.779     5.85     861.5789     55.16431      94.8114         6     1.279     0.752 -82.25   0
        58     14.0077    938.5767 307.8965276  +6.2871011     470.2757     630.9506     286.4293     77.95168       156.34     312.8045      1.439     4.20     859.3539     55.16431     78.93219         5     0.796     0.632 -88.92   0
        59    316.4139    935.4489 307.7710779  +6.2985587     9406.163     14869.73     15957.99     77.82666     156.4645       312.68      1.739     4.11     861.9576     55.16431     1368.987        39     1.603     1.040 -50.86   0
        60    236.5840    934.3166 307.8042612  +6.2963455     6827.092     10821.91     11324.65     78.07651     156.2153     312.8668      1.707     4.07      861.176     55.16431     1000.329        37     1.585     1.015 -50.40   0
        61    749.4142    928.2043 307.5915354  +6.3160544     702.5983     1149.162     1184.103      78.0765     156.2777     312.8356      1.501     5.45     858.4672     55.16431     113.5825         8     1.433     0.584 -53.47   0
        62    565.0515    928.6474 307.6680713  +6.3097033     1006.698      1534.85     1210.457     78.57381     156.4023     312.9912      1.615     6.16     861.6666     55.16431     125.9503        12     1.270     0.848 -62.47   0
        63    894.5377    925.1183 307.5313801  +6.3221760     1078.767     1508.053     2078.956     78.57381     156.5267     312.9601      1.537     4.09     855.8853     55.16431     132.2199        13     1.127     0.828 -41.61   0
        64    850.9056    924.0538 307.5495331  +6.3211589     805.9276     1394.267     1161.694     78.32555     156.4645     313.1779      1.935     5.02     857.2698     55.16431     111.0116        11     1.171     0.876  10.87   0
        65    199.1975    924.6851 307.8201093  +6.2990663      589.204     965.1534     758.2387     77.82666      156.153       312.68      1.802     4.62     860.4278     55.16431     86.17426         7     1.083     0.559  23.13   0
        66    393.7577    923.2041 307.7393777  +6.3062101     584.1748     930.2772     790.3373     77.82666     156.2153       312.68      1.576     3.73     861.9559     55.16431     96.33038         5     0.974     0.410 -44.22   0
        67    731.2502    918.0487 307.5994189  +6.3196407     1695.459     2708.485     2948.524     78.44978     156.4023     312.8979      1.713     4.29     858.3683     55.16431     219.8648        19     1.369     0.907 -57.25   0
        68    554.3890    918.9413 307.6728254  +6.3133541     648.4324     923.8551     856.4649     77.82665     156.4023       312.68      1.795     4.82     861.5668     55.16431     107.9077         7     1.104     0.714  75.32   0
        69    962.1597    913.9761 307.5036751  +6.3290334      1146.15     1748.832     2470.567      78.0765       156.34     312.7422      1.631     4.35     854.0396     55.16431     165.9733        13     1.223     0.781 -51.70   0
        70    594.8857    914.8075 307.6561496  +6.3164171     829.0128     1119.389     1077.766      78.0765     156.2153     312.8045      1.408     4.06      860.843     55.16431     119.4252         9     0.954     0.643 -71.24   0
        71    516.1949    914.2738 307.6888414  +6.3140021     1029.491     1418.768     1462.281      78.0765     156.0906     312.8668      1.596     4.61     861.6936     55.16431     154.3585         9     0.974     0.620 -60.05   0
        72    649.6404    911.5106 307.6335251  +6.3196110     2435.695     3700.095     3675.737     78.44978     156.5267     312.9912      1.676     4.37     859.8969     55.16431     318.5913        21     1.523     0.773 -51.03   0
        73     46.1130    907.4027 307.8842532  +6.3010538     2752.822     4627.264     4500.801     77.82666      156.153       312.68      1.776     4.23     858.7622     55.16431      358.829        25     1.553     0.944 -55.14   0
        74    927.5852    906.7226 307.5182749  +6.3308751     610.6658      1182.98     1511.445     78.07651     156.2153     312.8045      2.016     5.35     854.1831     55.16431     90.77972         7     1.454     0.556 -69.78   0
        75    811.1242    907.6851 307.5666012  +6.3265894     796.3874     1293.541     1210.986     78.57381     156.8375     313.0223      1.763     4.26     857.3937     55.16431     123.2747        10     1.095     0.745 -29.61   0
        76    189.6377    906.4941 307.8246932  +6.3062563     2174.354     3247.484     3484.456     78.57381     156.4023     313.0846      1.645     4.09     860.1385     55.16431     290.4879        20     1.390     0.897 -47.29   0
        77     63.5536    906.9407 307.8770277  +6.3018316     1788.138     2965.426     3058.977     78.44978     156.5267     313.0846      1.753     3.67     858.8342     55.16431     263.3413        20     1.381     0.878 -41.72   0
        78    946.1690    904.3568 307.5106376  +6.3324721     544.9468     952.6038     1810.646      78.0765     156.4645     312.8045      4.465     6.56      853.913     55.16431     109.6982         7     1.360     0.888 -55.35   0
        79    328.7430    902.6656 307.7670653  +6.3125093      833.084     1216.443     1791.732     78.57381     156.4645     312.9601      1.584     5.39     861.6149     55.16431     149.4831        11     1.430     0.586 -46.20   0
        80    223.7467    903.6252 307.8106280  +6.3085871     685.4437     947.5111     814.3839     77.95168     156.5889     312.8668      1.387     3.94     860.8168     55.16431     108.4047         6     0.873     0.510 -44.45   0
        81    644.1566    900.7040 307.6361658  +6.3238898      6698.33     10467.52      11121.5     78.44978     156.4645     313.0846      1.672     3.93     859.6093     55.16431     915.7671        33     1.539     0.986 -49.68   0
        82    782.5130    900.9915 307.5787063  +6.3283975     599.0927     860.5978     911.2751      78.0765     156.2153     312.7422      1.367     3.22     857.4203     55.16431     106.4029         6     0.787     0.499  87.49   0
        83      3.9783    899.2023 307.9020247  +6.3030214     1072.571     1576.831      1390.37      78.0765     154.0181     273.9706      1.648     5.60     858.3281     55.16431     133.8242        12     1.240     0.712 -25.66  16
        84    881.7385    896.9812 307.5376391  +6.3333675     2764.187     4508.017      4711.21      78.0765     156.4645     312.8356      1.728     4.29     855.5294     55.16431     366.9067        26     1.552     0.979 -47.00   0
        85     17.6474    896.8878 307.8964278  +6.3044373      945.022     1486.662     1076.205     78.44978     156.4023     313.0223      1.482     6.44     858.3381     55.16431     119.9301        14     1.683     0.692 -45.97   0
        86    327.2301    893.7139 307.7679956  +6.3161549     15708.79     24898.12     26825.11     78.57381     156.2777     312.8668      1.705     4.06      861.497     55.16431     2115.159        46     1.639     1.059 -48.91   0
        87    912.6088    895.0041 307.5248869  +6.3352143     405.2703      682.928     621.9016     77.82666     156.2153     312.8045      1.556     4.59     854.4085     55.16431     64.27313         5     1.040     0.576  15.37   0
        88     61.7326    894.4331 307.8782070  +6.3069348     1218.314     1815.781     1413.057     78.32555     156.5889     312.9601      1.634     5.83     858.5044     55.16431     150.4173        15     1.306     0.811 -54.03   0
        89    197.9695    893.1850 307.8216836  +6.3120318     1098.017     1530.979     1198.084      78.0765     156.2777     312.8979      1.459     4.82     860.2305     55.16431     155.8115        11     1.243     0.637 -55.02   0
        90    378.0453    892.8238 307.7469264  +6.3182277     628.7011     1090.814     1165.901     77.95168     156.5267     312.8356      1.888     5.63     861.3593     55.16431     113.2133         7     1.424     0.626 -39.83   0
        91    404.9442    884.6631 307.7360328  +6.3224997     1096.997     1782.068     2174.645     78.57381     156.5267     312.9601      1.924     4.86     861.0566     55.16431     158.2499        17     1.296     1.030 -50.40   0
        92     90.4325    884.2937 307.8666339  +6.3120871     1662.147     2585.758      2644.73     78.57381     156.4023     313.0223      1.648     4.75     858.4633     55.16431      249.457        14     1.410     0.612 -44.73   0
        93    658.4442    880.8884 307.6308998  +6.3325502     812.9215     1413.791      1943.95     78.44978     156.4023     312.9912      2.603     5.98     858.7009     55.16431     137.2762        11     1.522     0.660 -76.71   0
        94    485.9771    881.0114 307.7025092  +6.3267243     617.5662     1134.913     1344.473      78.0765       156.34     312.8668      1.440     3.59     860.9236     55.16431     108.0554         5     0.976     0.380  59.53   0
        95    872.2249    878.7134 307.5422028  +6.3405932     1941.442     3076.112     3021.049     78.57381       156.34     312.8045      1.709     3.80     855.2974     55.16431     266.5176        19     1.293     0.911 -48.80   0
        96    843.1165    878.0292 307.5543128  +6.3399038     2031.354     3173.855      2437.89     78.44978     156.2777     312.8356      1.645     4.01     855.7866     55.16431     272.7322        22     1.470     0.909 -50.91   0
        97    806.4199    877.6252 307.5695644  +6.3388449     2960.139     4687.208     4964.439     78.07651       156.34     312.8979      1.741     4.24     856.2897     55.16431     382.8522        23     1.513     0.895 -44.42   0
        98     73.8191    877.7732 307.8737524  +6.3142205     2439.641     3879.193     4495.676      78.0765       156.34     312.8668      1.720     3.78     858.2073     55.16431     324.7203        23     1.472     0.903 -41.30   0
        99    322.1547    875.5738 307.7707153  +6.3234749     667.8312     1062.667     1419.192     77.95168     156.5889     312.8668      2.249     5.98     861.2831     55.16431     113.9697        10     1.765     0.569 -53.55   1
       100    542.3121    868.9599 307.6795233  +6.3335882     324757.2     512372.4     541080.1     78.44978     156.4645     312.9912      1.681     3.95     860.5865     55.16431     43358.43       172     1.821     1.253 -49.53   0
       101    386.5686    871.5004 307.7441067  +6.3273185     7579.869     12094.82     12845.95     78.44978       156.34     313.1157      1.746     4.17      860.873     55.16431     1079.136        36     1.601     1.018 -49.46   0
       102    630.5373    871.6978 307.6427969  +6.3354115     1080.086     1640.293     1460.449     78.20113     156.6511     313.0223      1.545     5.23     858.8115     55.16431     168.3517        13     1.472     0.588 -45.27   0
       103    329.7639    869.8985 307.7677474  +6.3260738     12201.21     19251.62     20193.54     78.44978     156.4023     313.1468      1.659     3.91      861.174     55.16431     1812.262        41     1.634     1.017 -48.65   0
       104    648.1626    866.2918 307.6356602  +6.3382336     3430.463     5341.804     5419.453     78.57381     156.4645     312.9912      1.655     3.73     858.3384     55.16431      509.177        26     1.551     0.872 -50.33   0
       105    880.5204    865.0959 307.5392152  +6.3464933     5086.523     8331.768     9735.391     78.20113     156.7754     313.0534      1.838     4.19     854.5802     55.16431     742.4003        38     1.709     1.157 -33.83   0
       106   1014.1000    859.4391 307.4839358  +6.3532856     4472.465     7244.257     7713.988     78.44978     156.4023     313.1779      1.738     3.91     851.6453     55.16431     599.7529        32     1.622     1.065 -46.76  16
       107    720.2238    862.6981 307.6058583  +6.3421278     816.0698     1237.945     1382.137     78.57381     156.2777     312.8045      1.695     3.19     857.0679     55.16431     149.7564         8     0.945     0.793 -47.37   0
       108    623.0165    860.1093 307.6463099  +6.3399450     3295.434     5457.694     5936.876     78.20113     156.2777     312.8668      1.749     4.00     858.4907     55.16431     454.8931        28     1.547     1.000 -46.85   0
       109    811.3800    859.6467 307.5681086  +6.3464345     1633.334     2509.794     2323.382     78.07651     156.5267     312.7734      1.595     3.85     855.5543     55.16431     222.8535        15     1.285     0.717 -58.03   0
       110    615.2768    855.8973 307.6496654  +6.3414252     1931.247     3823.362     5135.859      78.0765     156.7754     313.0223      2.402     7.64     858.4393     55.16431     313.0311        32     2.453     0.854 -60.64   0
       111    166.0612    859.5096 307.8360705  +6.3248643     553.7506     624.4681     701.6167     78.44978     156.6511     313.0223      1.365     3.81     859.4289     55.16431     126.1907         6     1.226     0.460 -57.76   0
       112    437.0230    875.8015 307.7230118  +6.3272346     635.8333     838.9692     1235.672      78.0765     156.2153     312.7422      1.587     4.39     860.7778     55.16431     105.5549         7     0.880     0.655 -64.89   0
       113    938.9795    857.6425 307.5151901  +6.3515220     715.5162      1232.41     1193.486     77.95168     156.4023     312.8356      1.886     5.95     852.8683     55.16431     109.5684         7     1.283     0.777 -24.67   0
       114    899.5001    852.9960 307.5317400  +6.3521233      3145.09     4833.498     5394.961     78.20113     156.2777     312.6176      1.620     3.59     853.7283     55.16431     394.4963        27     1.482     0.977 -51.30   0
       115    309.7498    853.6334 307.7766067  +6.3321181     977.6703     1567.542     1751.185     78.32555     156.5267     312.8979      1.738     5.72     860.9499     55.16431     126.5228        12     1.280     0.761 -51.40   0
       116    357.4770    849.0063 307.7569453  +6.3356306     2644.283     4129.872     4623.717      78.0765     156.0282     312.8045      1.633     4.40     860.6545     55.16431     374.2047        23     1.513     0.850 -50.99   0
       117    326.8033    840.3743 307.7699732  +6.3381655     516.5029     760.7041     612.0588     77.95168     156.2153     312.8045      1.431     4.27     860.5742     55.16431     85.83276         5     1.118     0.465 -55.81   0
       118    493.7456    838.7476 307.7007077  +6.3444364     3116.373     4669.709     4668.463     78.69765     156.4645      312.929      1.611     4.13     859.2379     55.16431     418.0794        24     1.428     0.903 -44.06   0
       119    838.7160    837.5952 307.5574980  +6.3564533     964.2501     1435.198     1644.365     77.95168      156.153     312.6488      1.596     5.16     854.4911     55.16431      123.744        13     1.276     0.797 -41.17   0
       120    540.6155    834.8226 307.6813775  +6.3476274     5804.559     9194.452     10149.26     78.20113       156.34     312.8668      1.699     3.99     858.8885     55.16431     873.2246        32     1.578     0.957 -50.05   2
       121    547.5638    834.1216 307.6785160  +6.3481497     1240.917     2195.366     2334.314     78.32555     156.5889     312.9601      1.810     5.92     858.7625     55.16431     185.5565        16     1.661     0.704 -41.60   2
       122    559.4427    836.0375 307.6735187  +6.3477564     720.3932     1091.298     517.4995     78.20113     156.5267     312.8356      1.755     4.61     858.6503     55.16431     108.5363         8     1.031     0.584 -44.74   0
       123    458.6483    833.9305 307.7154439  +6.3452491     1489.062     2404.895     2000.284     78.44978     156.4645     312.9912      1.689     4.70     859.3392     55.16431     187.2899        17     1.462     0.797 -55.01   0
       124    252.5245    834.5364 307.8010131  +6.3380817     709.8346     979.7615     1156.696     78.69765     156.5267      312.929      1.734     4.42     859.9654     55.16431      96.9975         8     0.860     0.788  76.30   0
       125    100.2628    832.7033 307.8642976  +6.3337201     1349.549     2270.177     2655.782     78.32555     156.6511     313.0223      1.797     5.47     857.7484     55.16431     189.8002        18     1.685     0.776 -48.67   0
       126    876.6475    833.1901 307.5418945  +6.3595389     1197.115      1657.89     1275.011     77.95168     156.4023     312.6176      1.486     4.23      853.737     55.16431     179.4791        14     1.293     0.768 -52.84   0
       127    676.0894    831.6111 307.6252304  +6.3534885     626.2459     789.0427     540.5057     78.20113     156.2153     312.7734      1.502     4.35     856.8146     55.16431     101.6693         7     0.919     0.647 -55.73   0
       128    511.3748    828.6142 307.6937288  +6.3492114     19250.41     30150.22     31521.22     78.20113       156.34     312.8979      1.685     4.09     858.6862     55.16431      2718.53        51     1.639     1.086 -50.49   0
       129    352.7335    830.3005 307.7595461  +6.3431954     736.6747     1299.661     1110.517     78.44978     156.6511      312.929      1.706     5.40      860.334     55.16431     109.6499        10     1.385     0.594 -59.30   0
       130    925.0750    827.0413 307.5219909  +6.3636943     3636.052     6025.986      6296.32     78.32555     156.5267     312.9912      1.742     4.10     852.6271     55.16431     504.4131        26     1.555     0.919 -52.73   0
       131     45.5447    824.7166 307.8872878  +6.3351765     566.2357     808.6139     967.1985     78.44978     156.5267     313.0534      1.726     4.80     857.1556     55.16431     82.06885         5     1.040     0.629  25.93   0
       132     21.6922    819.1361 307.8973807  +6.3366778     1543.835      2417.79     2669.455     78.44978     156.7133     313.0223      1.631     4.51     856.8893     55.16431     260.7369        17     1.447     0.764 -55.19   0
       133    304.0608    817.3081 307.7801954  +6.3469264     3158.307     4947.092     5318.317     78.32555     156.5889     313.0534      1.659     4.06     860.0471     55.16431     410.8201        22     1.460     0.872 -52.54   0
       134      3.9412    815.6160 307.9048704  +6.3375335     2138.485     3749.042     3822.233     77.82665     153.9549     273.5794      1.775     5.19     856.7125     55.16431     302.7784        25     1.664     0.932 -57.57  16
       135    769.5730    813.2567 307.5870279  +6.3641934     53878.69      84685.3     89801.81     78.07651     156.5889     312.8356      1.699     3.94     855.0491     55.16431     8125.149        78     1.703     1.158 -48.71   0
       136    708.1776    815.0594 307.6124623  +6.3613964     622.2717     898.2355       1479.4      78.0765     156.4645     312.8356      1.661     4.31     856.1298     55.16431     95.02429         5     1.092     0.486 -49.19   0
       137    226.8568    810.9171 307.8124691  +6.3469722     4824.594     8093.738     10543.85     78.44978     156.5267     313.0534      1.996     3.94     858.7701     55.16431     707.0745        36     1.652     1.041 -47.63   0
       138    413.0234    811.4661 307.7351468  +6.3529952     858.9312     1281.538     1320.383      78.0765     156.5267     312.8979      1.591     4.07     859.5066     55.16431     136.3737        10     0.990     0.761 -64.27   0
       139    894.9307    808.5162 307.5351305  +6.3703378     8148.766     12975.95     13861.11     78.69765     156.7754     312.9912      1.705     4.15      852.756     55.16431     1114.467        39     1.587     1.098 -46.77   0
       140    697.7665    807.8360 307.6170286  +6.3640310     21054.38     33503.13     36301.25     78.20113     156.2777     312.7111      1.703     3.91     855.9921     55.16431     3083.411        57     1.688     1.151 -48.66   3
       141    691.5274    804.3239 307.6197376  +6.3652726     87168.69     134455.3     141555.9     78.69765     156.7754     312.9601      1.673     3.92     855.8983     55.16431     13193.18        87     1.713     1.148 -49.97   3
       142    336.3920    805.1320 307.7671812  +6.3530395     20103.02     31972.59     33735.89     77.95168     156.2777     312.8668      1.682     3.93     859.8283     55.16431     2857.417        55     1.654     1.105 -49.70   0
       143    385.8043    805.1758 307.7466615  +6.3546796     1406.236     2149.615      1843.05     77.95168     156.2777     312.8045      1.636     3.88     859.6086     55.16431     228.4126        16     1.395     0.734 -54.65   0
       144    624.8930    804.9481 307.6473871  +6.3627853     591.2512     1068.093      1165.61     78.32555     156.4023     313.1779      1.940     5.15     856.2196     55.16431     101.8452         9     1.468     0.510 -45.27   1
       145    398.2843    803.0200 307.7415520  +6.3559884     21372.32     33851.09      36198.3      78.0765     156.2153     312.8979      1.678     3.94     859.4753     55.16431     2844.127        54     1.681     1.077 -47.04   0
       146    226.3734    789.4265 307.8133960  +6.3558297     752741.6      1814238      2033081     77.95168       156.34     312.8356      2.368     6.98     858.2525     55.16431     63298.48       640     2.633     2.025 -52.16   4
       147    935.3820    801.9725 307.5185519  +6.3743899     2101.226     3505.741     4030.773      78.0765       156.34     312.8668      1.810     4.28     851.9401     55.16431     288.7333        22     1.575     0.884 -60.59   0
       148    891.7860    799.9614 307.5367235  +6.3737654     6379.452     10057.54     10603.72      78.0765       156.34     312.6488      1.670     4.06     852.5692     55.16431     870.1766        34     1.524     1.014 -47.66   0
       149    632.3843    799.6319 307.6444552  +6.3652312     6068.926     12601.05     13231.09     78.07651     156.2777     312.8668      2.066     8.36     855.9909     55.16431     1991.978        35     1.756     1.112 -79.74   0
       150    864.6453    800.8904 307.5479631  +6.3724757     742.9978     1050.231     868.4446     78.44978     156.4645     313.0846      1.295     4.90     852.9207     55.16431     142.1985         8     1.100     0.618 -60.50   0
       151    122.2562    798.7161 307.8563151  +6.3484936      624.831     853.1536     1152.577     78.44978     156.5267     313.0534      1.467     4.73     857.5616     55.16431     110.9803         6     1.088     0.583 -70.73   0
       152    421.1272    796.8786 307.7322737  +6.3592905     1620.122     2480.019     2327.516     78.69765     156.7754     312.9601      1.647     4.13     858.9847     55.16431     219.2944        16     1.279     0.806 -49.65   0
       153    146.2848    796.1213 307.8464254  +6.3503732     729.1473     1093.167     587.7933     78.44978     156.8375     313.0534      1.554     3.68     857.8092     55.16431     106.2272         7     1.019     0.512 -23.56   0
       154   1015.0647    791.5162 307.4858124  +6.3813653     750.9317     1001.938     821.6031     78.57381     156.7754     313.0223      1.203     3.78      849.056     55.16431     134.6847         6     1.230     0.333 -39.99   0
       155    584.9663    791.1128 307.6644328  +6.3671616     846.0441     1305.922     1528.128     78.44978     156.4023     312.9601      1.593     4.87     856.1277     55.16431     131.0103        12     1.225     0.821 -42.54   0
       156    859.9823    791.1503 307.5502265  +6.3763420     657.6349     1111.085     1449.257     77.95168     156.5889     312.7734      1.740     4.41     852.8383     55.16431     107.7681         8     1.307     0.424 -30.02   0
       157    667.6714    788.8329 307.6301652  +6.3708712     2356.152     3870.647     4022.435     78.32555     156.5267     312.9601      1.729     4.25     855.3728     55.16431     367.3822        19     1.396     0.835 -46.48   0
       158    136.6921    789.6044 307.8506291  +6.3527415     1017.752     1499.642     827.0915     78.07651     156.2153     312.7422      1.581     3.98     857.5595     55.16431     155.6752        12     1.180     0.653 -45.13   0
       159    111.9438    789.2025 307.8609190  +6.3520750     977.9885     1673.253     2176.956     77.82666     156.2777     312.6488      1.783     5.51     857.2632     55.16431     164.3747        13     1.611     0.719 -35.55   0
       160    401.2346    785.6150 307.7409140  +6.3632742     52364.08     82646.68     87208.67      78.0765     156.2777     312.8045      1.706     3.86     858.7314     55.16431     7275.102        76     1.719     1.161 -49.82   0
       161    518.9413    784.6845 307.6920669  +6.3676046     6843.052     10793.52     11327.95     78.44978     156.5267     313.0534      1.705     3.93     856.6483     55.16431     942.6641        32     1.608     0.934 -46.47   0
       162    435.7553    783.2762 307.7266580  +6.3653977     4262.081     6716.733     7764.784     78.32555     156.5889     312.9912      1.696     4.21     858.0028     55.16431     665.3868        27     1.517     0.901 -49.73   0
       163    764.1984    781.3604 307.5903318  +6.3771846     11351.78      18048.4     18823.03     77.57601     156.2777     312.6488      1.673     3.92     854.2722     55.16431     1532.653        46     1.603     1.121 -45.85   0
       164    432.4010    776.6583 307.7282741  +6.3680180     2203.506     3412.659      3788.31     77.82666      156.153     312.6488      1.673     4.66     857.8298     55.16431     312.3675        17     1.412     0.747 -47.76   0
       165    785.8412    775.4470 307.5815429  +6.3803498     1265.873     1982.198      2229.18     78.32555     156.5267     312.8045      1.748     4.68     853.6632     55.16431     175.6904        16     1.423     0.883 -29.34   0
       166    114.1647    764.1852 307.8608431  +6.3624796     1944.728     3238.119       3877.6      78.0765     156.2777     312.8045      1.956     4.98     856.8622     55.16431      245.636        20     1.508     0.858 -53.42   3
       167    121.9265    773.2889 307.8573121  +6.3589817     11086.86     17652.33     19056.34     78.44978     156.7754     313.0223      1.713     3.93     857.0704     55.16431     1623.624        45     1.639     1.074 -46.43   2
       168    114.0673    770.7279 307.8606622  +6.3597748     2863.987     4988.701      6062.53     78.44978     156.6511     312.9601      1.903     4.40     856.9806     55.16431     382.1472        26     1.456     1.081 -47.72   3
       169    130.0806    773.3832 307.8539231  +6.3592170     2912.716      4470.43     4814.411      78.0765     156.2153     312.8045      1.665     3.91     857.1263     55.16431     390.3022        24     1.403     0.933 -50.35   0
       170    958.7529    770.0045 307.5099190  +6.3883703     1561.319     2543.882     2750.061     77.82666     156.2777     312.6488      1.896     4.32      850.451     55.16431     243.6509        17     1.389     0.822 -50.88   0
       171    909.6652    769.9390 307.5303064  +6.3867594     6389.936     10036.54     10632.76     78.44978     156.4645     312.9912      1.679     3.86     851.5284     55.16431     909.6193        33     1.474     1.073 -46.39   0
       172    665.3057    767.3886 307.6318691  +6.3796470     1729.721     2396.803     2332.024     78.20113     156.2153     312.7422      1.613     4.20     854.5161     55.16431     230.8138        17     1.304     0.803 -46.82   0
       173    552.0145    766.6869 307.6789392  +6.3761442      2299.63     3633.574     3846.162      78.0765       156.34     312.8356      1.616     4.01     855.5242     55.16431     319.6965        18     1.378     0.794 -45.35   0
       174    400.1738    766.1913 307.7420098  +6.3712591      1089.87     1768.294     1517.853      78.0765       156.34     312.8045      1.677     4.10     857.8365     55.16431     179.2465        12     1.261     0.664 -51.86   0
       175    683.2548    765.1190 307.6244917  +6.3811846     548.6256     929.1814     1167.032     78.44978     156.5267     312.9912      1.757     3.50     854.3074     55.16431     81.19427         5     1.033     0.342 -45.94   0
       176    964.2065    761.2242 307.5079488  +6.3921779     1799.304     3109.954     2885.353     77.95168       156.34     312.8045      1.690     4.33     850.1827     55.16431     287.4114        20     1.521     0.847 -47.86   0
       177    933.3617    761.3755 307.5207531  +6.3910863     2888.181     4614.792      4847.88     78.07651       156.34     312.7734      1.678     4.11     850.7709     55.16431     385.2864        23     1.485     0.878 -46.09   0
       178    903.8267    761.9346 307.5329997  +6.3898698     2901.937      4629.42     5229.819      78.0765     156.4645     312.8668      1.701     4.02     851.4468     55.16431     388.9902        21     1.402     0.873 -48.97   0
       179    656.1918    761.1918 307.6358624  +6.3819009     1433.536     2137.413     2133.416     77.82666       156.34     312.8356      1.598     4.71     854.3884     55.16431     191.9954        14     1.282     0.751 -47.88   0
       180    803.7165    759.3340 307.5746611  +6.3876006     1060.406     1472.996     1299.016     78.57381     156.7754     313.0223      1.476     5.57     853.0844     55.16431     142.6895        12     1.361     0.655 -49.02   0
       181    879.0392    757.3992 307.5434458  +6.3909152     746.4445     1182.369     1955.241       77.576     156.2777       312.68      1.908     4.61     851.9203     55.16431     136.5333         8     1.270     0.474 -61.00   0
       182    228.7474    755.8751 307.8135439  +6.3697634     1864.535     3169.679     4002.161     78.44978     156.5889     312.9601      2.092     4.43     857.8355     55.16431      315.476        24     1.566     1.089 -57.42   0
       183    667.7232    748.5116 307.6315003  +6.3875227     892.2743     1771.478     2543.328     78.44978     156.8375     313.0223      2.873     6.97     853.7539     55.16431     131.8111        14     2.117     0.642 -47.14   2
       184    921.9799    751.5471 307.5258096  +6.3947650     938.5687     1408.575     1183.215     77.95168     156.5267     312.7734      1.505     4.65     850.7335     55.16431     127.7034        10     1.108     0.729 -70.44   0
       185    249.3142    751.7009 307.8051445  +6.3721780     628.6323     872.4871     1181.739     78.44978     156.9616     313.0223      1.561     6.01     858.0656     55.16431     110.9797         8     1.384     0.735 -67.39   0
       186    144.3935    751.0157 307.8487362  +6.3689342     794.6757     1159.513     1096.809      78.0765     156.2777     312.8045      1.644     4.75     856.6888     55.16431     109.6835        10     1.156     0.738 -57.74   0
       187    948.3090    749.2891 307.5149512  +6.3965760     2484.378     3821.815     4336.549     78.44978     157.0236     313.0534      1.685     4.10     850.1974     55.16431     355.5387        21     1.444     0.850 -52.58   0
       188    896.1206    749.9006 307.5366039  +6.3945818     1032.571     1711.087     1936.777     78.20113     156.8375     312.9912      1.798     6.22     851.3472     55.16431     175.6259        14     1.608     0.676 -23.02   0
       189   1022.1486    743.3467 307.4844855  +6.4014924      7131.21     11341.67     11465.98     78.57381     144.3577     259.0257      1.715     3.99     849.2292     55.16431     918.7094        35     1.539     1.088 -61.31  24
       190    989.8812    742.7302 307.4979066  +6.4006710     1552.714     2515.373     2804.437     78.69765     156.7754     312.9912      1.792     4.48     849.5855     55.16431     192.0264        17     1.353     0.893 -40.39   0
       191    388.4895    743.3350 307.7476329  +6.3803049     665.4512      883.657      566.689     78.32555     156.7133     312.9912      1.354     3.11     857.0275     55.16431     133.3181         5     0.935     0.470  77.77   0
       192    615.8295    742.7579 307.6532443  +6.3881619     697.6815     965.9562     1001.543      78.0765     156.4645     312.8356      1.496     4.32     854.3386     55.16431     122.4591         7     0.931     0.572 -49.13   0
       193    458.6143    743.6073 307.7185031  +6.3825444     640.7336     911.5739     656.6011     78.07651     156.2777     312.8045      1.578     3.91     856.2144     55.16431     87.61206         5     1.015     0.432  14.39   0
       194    791.5087    740.9661 307.5803480  +6.3947774     1155.691     1821.932     2114.787     78.57381     156.4023     312.9601      1.581     4.57     852.8552     55.16431     176.8644        13     1.389     0.696 -48.55   0
       195    877.7100    738.5010 307.5446324  +6.3986745     1441.578     2451.569      2530.71     78.44978     156.9616      312.929      1.746     4.34     851.6097     55.16431     229.3821        16     1.384     0.790 -50.31   0
       196    852.1365    733.5587 307.5554188  +6.3998614     911.2953     1542.064     2010.445     78.44978     156.4645     313.0534      1.922     4.93     852.0837     55.16431     125.6149        10     1.250     0.551 -52.98   0
       197    638.1440    732.6326 307.6443183  +6.3930898      640.591     895.1406     886.4694     78.32555     156.5889     312.9601      1.780     4.23     853.6512     55.16431     98.47815         7     1.129     0.453 -48.50   0
       198    834.6406    729.7065 307.5628141  +6.4008677     1586.894     2512.682     2765.707     78.57381     156.4645     313.0534      1.734     4.54     852.2271     55.16431      255.313        15     1.361     0.741 -49.41   0
       199     33.8123    728.6431 307.8954120  +6.3744512     2219.501      3943.46     3987.845     77.95168       156.34       312.68      1.875     4.17     856.7271     55.16431      354.874        28     1.656     1.072 -48.33   0
       200    446.2615    727.4523 307.7241776  +6.3888010     557.3003     781.8507     652.4886     78.44978     156.4645      312.929      1.645     4.97     855.7726     55.16431      101.827         5     1.163     0.600 -67.78   0
       201     97.5618    727.1082 307.8689919  +6.3772306     852.8267     1853.598     1704.289     78.57381     156.4645     312.9912      2.200     7.81     856.1016     55.16431      113.975        13     1.418     1.203 -62.77   0
       202    550.7953    724.3833 307.6808704  +6.3935715     620.7816     1129.482     877.0769      78.0765     156.2153     312.8045      1.824     4.37     853.9563     55.16431     85.12927         7     0.978     0.556 -47.22   2
       203    646.2884    717.2091 307.6414552  +6.3997311     6258.255     9834.414     10211.04      78.0765     156.2153     312.7422      1.654     3.95     853.0107     55.16431     868.7003        33     1.531     1.013 -46.27   0
       204    593.0758    716.3031 307.6635842  +6.3983240     1348.901     2167.393     2358.217      78.0765     156.6511     313.0223      1.780     4.30     853.6015     55.16431     203.4083        16     1.395     0.732 -48.90   0
       205    504.3564    716.5280 307.7004204  +6.3952593     779.2142     1141.024     975.2079     78.32555     156.5267     312.9912      1.395     4.37     854.8117     55.16431     115.2737         8     1.100     0.531 -40.32   0
       206    620.2297    713.1196 307.6524147  +6.4005476     1847.896     3286.016     3634.987     78.32555     156.5267      312.929      1.910     4.73     853.2722     55.16431     321.9205        18     1.642     0.695 -45.39   0
       207    109.2717    713.0689 307.8646043  +6.3834215     3711.302     5745.905     6392.009     78.44978     156.6511      312.929      1.683     3.87      855.622     55.16431     512.3276        25     1.489     0.933 -50.39   0
       208    983.2485    712.6631 307.5016696  +6.4128655     2551.924     4059.526     4109.317     78.32555     156.4645     313.0223      1.721     3.88     849.2657     55.16431     366.1946        25     1.449     0.970 -43.84   0
       209    296.0887    712.7935 307.7870350  +6.3898146     654.0232     963.9023     681.6539     77.95168     156.2153     312.7422      1.570     4.81     856.7964     55.16431     93.37982         8     1.259     0.520 -53.89   0
       210    232.4258    712.0758 307.8134965  +6.3879724     584.1738     1176.235      1570.22      78.0765     156.4645      312.929      2.099     3.48     856.3232     55.16431     103.5705         5     0.996     0.352 -47.05   2
       211    763.2026    709.3218 307.5931668  +6.4068982     19513.63     30634.18     32462.82     77.82666     156.0282     312.7422      1.688     3.96     852.1777     55.16431     2706.524        56     1.665     1.107 -48.62   0
       212    893.1714    709.1682 307.5391961  +6.4113031     3631.907     5557.419     5581.137     77.95168     156.2777     312.7422      1.606     3.72      850.838     55.16431     501.7408        24     1.423     0.909 -46.99   0
       213    462.6114    709.5506 307.7179915  +6.3967411     1428.087     2116.966     1639.689     77.82666     156.4645     312.6488      1.595     4.67     855.2592     55.16431     189.5048        18     1.431     0.889 -47.35   0
       214    445.3933    710.7933 307.7250999  +6.3956507     581.4974      705.556       231.68     77.82666       156.34     312.8045      1.462     3.42     855.3461     55.16431     90.17316         5     0.723     0.471 -76.50   0
       215    490.5921    709.2739 307.7063809  +6.3977934     782.8879     1291.286      1141.69     78.07651     156.0906     312.8356      1.471     4.20     854.9306     55.16431     131.8666         7     1.173     0.430 -50.22   0
       216    307.9346    709.5818 307.7822242  +6.3915386     678.1918     861.9797     797.6421      78.0765     156.5267     312.8668      1.469     4.41     856.5216     55.16431     102.4952         7     1.060     0.522 -64.36   0
       217    264.2099    709.6918 307.8003781  +6.3900247     498.5001     591.8975      494.361     78.20113      156.153     312.7111      1.161     3.76     856.4722     55.16431     91.22644         5     0.918     0.443 -47.10   0
       218    236.6518    702.9210 307.8120510  +6.3918946     5823.191     9388.281     10250.21     78.44978     156.5267     312.9601      1.776     3.92     855.8948     55.16431     855.9982        34     1.619     0.969 -54.93   0
       219    643.6124    702.1791 307.6430723  +6.4058478     6857.366     10910.87     12346.47     78.20113     156.2153     312.8668      1.733     3.99     852.5637     55.16431     1006.771        34     1.569     0.993 -46.92   0
       220    626.1182    703.1307 307.6503055  +6.4048694     1081.206     1489.004     1947.589     78.69765     156.7754     312.9912      1.357     3.79      852.848     55.16431     145.7025        10     1.044     0.653 -26.37   0
       221    338.9672    701.8251 307.7695990  +6.3957833     627.5275     880.9565     549.8032     77.95168       156.34     312.8045      1.432     2.61     855.8686     55.16431     120.9116         5     0.769     0.486 -61.64   0
       222    903.6453    694.7158 307.5353315  +6.4176205     1102.201     1662.204      1294.33     78.44978     156.5267     312.9912      1.620     3.72      850.351     55.16431     159.1724        12     1.145     0.690 -46.09   0
       223    715.4457    690.4786 307.6136338  +6.4130824     3617.719     5290.021     6080.859     78.44978     156.5267      312.929      1.620     3.56     851.7856     55.16431     536.2574        23     1.394     0.877 -56.47   0
       224    670.3348    690.8640 307.6323554  +6.4114143     1095.045     1851.384     1907.997     78.44978     156.5267     312.9601      1.813     4.94     851.8766     55.16431     186.6823        15     1.339     0.949 -23.61   0
       225    981.7416    687.2035 307.5031495  +6.4233284     8724.667     13647.82     13957.62     77.82666     156.4023     312.7111      1.650     3.67     848.9033     55.16431     1304.442        38     1.569     1.033 -52.38   0
       226    920.2106    687.8408 307.5286826  +6.4210123     2281.144     3529.345     3865.834     77.82666       156.34       312.68      1.571     4.00     849.7754     55.16431     315.1841        19     1.403     0.798 -51.13   0
       227      1.7057    686.5239 307.9101707  +6.3907614     1473.024     1971.785      2003.47     72.51537     130.1691      241.597      1.429     4.36     857.3589     55.16431     208.3599        14     1.230     0.823 -81.84  24
       228    534.3539    685.4706 307.6890093  +6.4090888     456.6774     629.7919     786.8433     78.44978     156.5267     312.9601      1.539     4.03     853.3129     55.16431     92.49823         6     1.083     0.429 -54.09   0
       229    417.6686    685.1697 307.7374778  +6.4053014      539.057     903.3174     712.9228     78.32555     156.5267      312.929      1.318     3.59      854.706     55.16431     95.89917         5     1.502     0.247 -48.17   0
       230     59.1356    681.9249 307.8864779  +6.3945940     24543.15     39368.98     41721.49     78.57381     156.5267      312.929      1.700     3.92     855.7185     55.16431     3267.898        59     1.691     1.136 -47.95   0
       231    520.5502    682.8612 307.6948298  +6.4097037     1975.514     2838.904     3058.071     78.44978     156.4645     313.0223      1.563     3.59     853.5721     55.16431     284.7369        17     1.285     0.809 -49.49   0
       232    489.1761    680.1207 307.7079517  +6.4097839     1308.485     2158.891     2335.074      78.0765     156.2777     312.9601      1.734     4.85     854.2524     55.16431     166.2615        14     1.344     0.746 -51.68   0
       233    910.3157    679.1597 307.5330834  +6.4242668      1038.43      1361.17     1173.562     78.44978     156.4645     312.8979      1.413     4.38      849.988     55.16431     152.4239        10     1.147     0.685 -43.39   0
       234    529.3782    676.7655 307.6913690  +6.4125166     958.4363     1604.136     1641.276     77.95168       156.34     312.7111      1.832     4.72     853.2395     55.16431      152.624        15     1.359     0.765 -61.23   0
       235    727.1621    672.4879 307.6093730  +6.4209031     4169.863     6335.939      5995.75     78.44978     156.4645     312.9601      1.614     4.02     851.3659     55.16431     530.4164        29     1.540     0.958 -52.38   0
       236    705.0914    674.3383 307.6184769  +6.4194009     3408.781     5250.172     4821.075     78.44978     156.6511     313.0534      1.611     3.82     851.3779     55.16431     481.2025        25     1.531     0.883 -52.13   0
       237    558.5231    670.4203 307.6794790  +6.4161130     3246.812     5093.983     5507.689     78.07651     156.2777      312.929      1.704     4.20     852.5316     55.16431     471.8311        24     1.512     0.887 -52.42   0
       238    394.7994    670.9192 307.7474559  +6.4104186     1256.091     2073.504     1631.219     77.70143     155.9658     312.7111      1.684     5.45      854.299     55.16431     177.3097        14     1.429     0.798 -56.48   0
       239    302.7450    669.5792 307.7857302  +6.4078821     1435.582      2445.58     2123.513     77.95168     156.5267     312.7734      1.737     4.69     854.2671     55.16431     205.3523        19     1.542     0.919 -57.69   0
       240    219.4603    669.7098 307.8203126  +6.4050303     1693.221     2577.376     2683.218     78.32555     156.6511     313.0223      1.620     4.17     854.2413     55.16431      232.416        16     1.291     0.793 -43.76   0
       241    999.9863    668.5900 307.4961965  +6.4316230     4783.805     7342.222     7459.431     78.20113     156.2777     312.8979      1.641     3.93     848.2725     55.16431     623.7999        30     1.503     0.991 -56.16   0
       242    965.4606    667.5735 307.5105698  +6.4308912     7953.052     12555.44     13440.95     78.07651     156.5267     312.8356      1.730     3.96     848.6659     55.16431     1069.531        38     1.608     1.044 -45.52   0
       243    519.4052    667.9190 307.6958089  +6.4158354     552.7233     806.0148     878.7274      78.0765     156.0906     312.7422      1.625     4.37     853.2346     55.16431     91.84808         7     1.114     0.489 -43.62   0
       244    685.3629    666.0429 307.6269493  +6.4221664     854.5265     1331.492     1195.588     78.20113     156.4645     312.8356      1.581     5.85     851.2341     55.16431     125.6201        12     1.391     0.692 -45.11   0
       245   1015.2138    665.5140 307.4899754  +6.4334009     738.0677     925.9763     537.0993      78.0765       156.34     312.8668      1.432     4.36     847.9067     55.16431     99.58014         8     1.030     0.652 -35.68   0
       246     77.0348    664.0930 307.8796486  +6.4025595      764.967     1080.082     1235.232     78.57381     156.4023     313.0223      1.808     4.31     854.7674     55.16431      128.248         8     1.267     0.418 -59.80   0
       247    123.8838    660.8123 307.8603044  +6.4054905     22821.43     36486.84     38386.79      78.0765       156.34     312.8045      1.691     3.98      854.137     55.16431     3201.915        53     1.682     1.075 -49.28   0
       248    792.2372    661.5754 307.5827135  +6.4275845     1172.809     1785.763     2086.627     78.07651       156.34     312.7111      1.628     4.70     851.1457     55.16431     169.6751        11     1.252     0.626 -52.60   0
       249    410.8429    661.7015 307.7411041  +6.4147630     2799.344     4659.798     4703.278     78.44978     156.4023     313.1779      1.802     4.31     854.0137     55.16431     389.7949        25     1.572     0.889 -49.81   0
       250    343.1704    656.1069 307.7693969  +6.4148023     739.8832     1190.809     1035.038     78.57381     156.2777     312.8668      1.717     5.35     853.6569     55.16431     100.3237         9     1.375     0.588 -48.07   0
       251    586.2205    655.0179 307.6684950  +6.4234007     456.0482     660.4631     150.4933     78.20113     156.4023     312.8668      1.366     4.78     851.8885     55.16431     69.91864         5     0.937     0.690 -64.94   0
       252    960.4054    650.5502 307.5132404  +6.4377520      6473.69     11327.04     11953.57     77.82666       156.34     312.5865      1.877     4.04     847.9542     55.16431     856.9164        43     1.570     1.325 -36.01   0
       253   1015.6705    645.6814 307.4904508  +6.4416057     90169.65     141395.8     149157.3     78.69765     156.8375     312.9912      1.690     3.80     846.7085     55.16431      12264.5       101     1.698     1.262 -45.83  16
       254      4.9752    650.0771 307.9100475  +6.4059207     1002.354     1417.669     1046.322      78.0765     156.4023     286.1406      1.430     4.25     856.2021     55.16431     180.5371         9     1.074     0.602 -61.80  16
       255    553.8668    645.7059 307.6822453  +6.4261622     46517.15     73257.25      77157.9     78.32555     156.7133     312.9601      1.671     3.99      851.947     55.16431      6279.01        74     1.705     1.141 -49.91   0
       256    918.2781    647.6841 307.5308331  +6.4375299     658.2181     743.0928     500.6115     78.57381     156.8375     313.0534      1.412     3.42     848.6944     55.16431     142.8408         5     0.865     0.406 -45.76   0
       257    197.3972    646.9791 307.8302434  +6.4136745     624.6884     962.0131     1841.572      78.0765     156.2153     312.7111      1.992     3.97     853.7563     55.16431     132.3257         6     0.876     0.618 -46.80   0
       258    778.6696    645.4286 307.5888911  +6.4337985     519.7629     763.9915     513.7037     78.20113     156.5267     312.8979      1.129     3.90     850.8604     55.16431     114.6843         6     0.992     0.479 -55.72   0
       259    513.4072    645.8012 307.6990453  +6.4247673     520.0408     886.7764     856.5958     77.82666     156.2153     312.7734      1.553     3.41     852.7435     55.16431     86.07733         5     0.773     0.437 -69.29   0
       260    161.3993    642.3503 307.8453494  +6.4143755     2616.401     4088.833     3936.698     77.82666      156.153     312.5242      1.677     3.86     853.8763     55.16431     384.1791        23     1.485     0.889 -45.65   0
       261    484.4593    642.1030 307.7111922  +6.4253242     625.8329     913.7659      495.059     78.20113     156.5267     313.0846      1.474     5.26     853.2803     55.16431     101.9859         8     1.272     0.614 -60.48   0
       262     54.2206    636.4232 307.8900594  +6.4132166     1450.559     2065.347     2162.774     78.20113       156.34     312.8979      1.524     3.89     854.5787     55.16431     212.1809        16     1.277     0.834 -54.76   0
       263    451.1246    629.4720 307.7254622  +6.4294222     59881.93     94378.43     99483.77     78.69765     156.7754     312.9601      1.714     3.95     852.9791     55.16431     7705.326        83     1.748     1.172 -49.72   0
       264    637.4416    626.5728 307.6481800  +6.4368611     768.7863     1268.345     1226.501     78.07651     156.4023     312.8045      1.808     4.57     850.9365     55.16431     119.2391         8     1.227     0.483 -55.54   0
       265    125.5518    624.7111 307.8608331  +6.4204532     1608.687     2419.022     2235.354     78.44978     156.4023     313.0534      1.607     4.07     853.6299     55.16431     240.1542        15     1.359     0.706 -54.37   0
       266    921.1450    622.4105 307.5304907  +6.4480618     685.0275     945.0025       1412.9     77.82666     156.4645     312.6488      1.625     5.06     847.5986     55.16431     100.7663         8     1.045     0.694 -44.29   0
       267    405.1952    622.0495 307.7447874  +6.4309467     877.2337     1496.992     1144.502     77.82666       156.34     312.6176      1.661     4.94     852.6575     55.16431     136.1586        11     1.293     0.760 -63.03   0
       268    597.6287    621.0697 307.6649003  +6.4378007     749.8453     1260.693     1462.568     78.20113     156.5267     312.8979      1.830     4.64     851.0471     55.16431     129.5176         9     1.005     0.855 -67.49   0
       269    479.0679    620.4791 307.7141603  +6.4340725     536.0208     749.6075     1607.567     78.57381     156.7133     312.9601      1.803     5.13     852.6982     55.16431     95.01074         6     1.462     0.509 -46.53   0
       270    296.5878    618.7814 307.7900030  +6.4286506     2026.204     3171.986     3731.354     78.20113     156.2153     312.8668      1.688     3.66     852.5779     55.16431     318.4678        22     1.629     0.822 -50.78   0
       271    449.1417    617.4853 307.7266900  +6.4343053     791.4315     1070.584     1390.923     78.44978     156.5267     313.0534      1.586     4.85     852.6157     55.16431     124.5811         9     1.134     0.588 -64.95   0
       272    723.1812    613.0082 307.6130268  +6.4453308     5123.067     8185.776     8773.584     78.20113     156.2153     312.8045      1.684     3.91     850.5356     55.16431     729.2062        31     1.572     0.951 -52.00   0
       273    776.7390    608.3416 307.5909396  +6.4490483     13709.38     20642.23     21709.75     78.57381     156.4645     312.9912      1.635     3.92     850.1812     55.16431     2080.033        40     1.583     0.979 -45.87   0
       274   1016.2620    607.5718 307.4914832  +6.4573621     1910.973     3037.089     3619.906     78.07651     156.5267      312.929      1.767     4.80     844.4821     55.16431     255.4496        19     1.500     0.815 -45.23  16
       275    994.2231    608.6659 307.5006001  +6.4561754     1000.767     1355.394     1386.761     78.07651     156.5267      312.929      1.379     5.39      845.114     55.16431     126.0378        11     1.069     0.768 -48.68   0
       276    518.9456    608.2479 307.6980108  +6.4404596     1108.306     1778.777     2213.772     78.44978     156.5267     313.0223      1.885     4.39       851.52     55.16431     156.7737        12     1.291     0.685 -53.62   0
       277     22.1524    607.5876 307.9043533  +6.4240434     651.8992     1008.528     1489.417     77.82666     156.4023     312.6488      1.889     5.23     853.9619     55.16431     112.7144         7     1.374     0.562  83.64   0
       278    600.5551    606.3507 307.6641806  +6.4439766     2849.949     4402.755     4601.332     78.44978     156.4023     312.9601      1.658     4.14     850.6981     55.16431     420.7673        25     1.574     0.889 -48.87   0
       279    917.8275    602.6010 307.5325336  +6.4561311     1172.539     1857.761     2747.749     77.95168     156.2777     312.7734      1.694     4.10     846.9758     55.16431     183.7402        11     1.140     0.651 -48.88   0
       280    358.7006    600.1045 307.7648377  +6.4384480      872.269     1308.431     1100.622     78.44978     157.0236     312.8045      1.655     4.80      851.393     55.16431     133.5117         8     1.341     0.486 -40.19   0
       281    213.1877    599.9357 307.8252761  +6.4336302     1119.483     1807.865     1981.445     77.95168       156.34     312.8045      1.582     4.54     852.4692     55.16431     164.1199        15     1.380     0.755 -49.44   0
       282    176.0136    600.8654 307.8406831  +6.4319966     662.9457     1335.317     2437.989     77.95168       156.34     312.8979      2.092     3.95     853.1188     55.16431     86.13391         6     0.981     0.456 -37.40   0
       283    852.8546    591.6061 307.5598886  +6.4585019     2830.691     4416.023     4586.561     77.95168     156.2777       312.68      1.658     3.89     848.2803     55.16431     395.2775        24     1.431     0.921 -63.59   0
       284    147.9036    591.8553 307.8526620  +6.4347716     621.7723     742.9507     216.5766     78.32555     156.4645     313.1468      1.312     4.28      853.333     55.16431     100.0227         8     0.839     0.682 -50.33   0
       285    811.4952    589.0261 307.5771534  +6.4581857     2476.789     3644.214      3412.57     78.57381     156.2777     312.8356      1.553     4.21     848.9005     55.16431     349.8998        19     1.462     0.768 -49.19   0
       286    782.4890    584.8932 307.5893397  +6.4589230     2489.617     4050.561     4854.753     78.44978     156.9616     313.0223      1.850     4.17     849.1295     55.16431     356.0802        22     1.634     0.800 -51.30   3
       287    792.1088    580.2295 307.5855010  +6.4611703     153859.5       237840     251395.2     78.57381     156.2777     312.8979      1.667     3.87     848.7589     55.16431     21189.14       125     1.737     1.245 -49.94   2
       288    239.5022    583.9084 307.8148892  +6.4411325     7410.824     11645.52     12764.09     78.44978     157.0236      312.929      1.715     3.92     851.6718     55.16431     1036.542        35     1.586     1.023 -52.88   0
       289    725.3867    584.8950 307.6130564  +6.4570133     678.3215     1260.077     1783.602     78.20113     156.2777     312.8045      1.936     3.30     849.7347     55.16431     128.6066         5     0.836     0.495 -33.46   0
       290    173.7595    578.4719 307.8423766  +6.4411674     55859.04     88722.31     94708.97     78.32555     156.5267     313.0223      1.734     3.88     852.9178     55.16431     7961.971        87     1.764     1.224 -50.83   0
       291    721.7144    580.6865 307.6147232  +6.4586283     672.5867     1026.998     2050.319     78.20113     156.7133     313.0223      1.553     5.45     849.6106     55.16431     91.00171         9     1.443     0.581 -57.17   0
       292     97.9014    574.6608 307.8740098  +6.4401892     5980.748     9402.567     10203.04     78.20113     156.4645     313.0846      1.674     3.91     853.2617     55.16431     844.6119        36     1.558     1.071 -47.08   0
       293    963.0611    572.1293 307.5147689  +6.4702232     1449.318     2203.549     2122.615     78.57381     156.5267     313.0534      1.597     4.22     844.6994     55.16431     199.9876        16     1.415     0.745 -46.37   0
       294    983.7684    571.1414 307.5062012  +6.4713218     743.8574      1149.69     840.4493     78.32555     156.5267     312.8979      1.517     5.47     844.0901     55.16431     101.7206        11     1.289     0.655 -39.91   0
       295    212.3871    570.3387 307.8266091  +6.4458243     830.7759     1289.208     2160.013     77.95168       156.34       312.68      1.900     4.53     851.6541     55.16431     143.0928        10     1.281     0.687 -47.36   0
       296    828.6731    567.5120 307.5707417  +6.4676434     4387.381     6744.008     7195.085     78.44978     156.7754     312.9912      1.657     4.16     847.7064     55.16431     642.4089        27     1.456     0.942 -47.70   0
       297    347.1345    565.6422 307.7708048  +6.4522899     16388.44     26302.43      28450.9     78.44978     156.4645     313.0223      1.724     3.83     850.4891     55.16431     2171.533        51     1.715     1.070 -48.53   0
       298    437.5565    565.7446 307.7332467  +6.4552816     847.6152     1417.326     1994.745     78.44978     156.5267     312.9601      1.908     4.59     850.5857     55.16431     153.2756         8     1.234     0.485 -56.81   0
       299    149.2474    564.5021 307.8530292  +6.4461113     1751.167      2912.64     2823.529     78.44978     156.4645     313.1468      1.828     4.90     853.2198     55.16431     240.6309        19     1.631     0.795 -38.20   2
       300    224.0259    562.4000 307.8220438  +6.4494935     816.3812     1586.052     2158.062     77.95168      156.153     312.7422      2.172     4.75     851.0144     55.16431     140.6522        10     1.278     0.725 -84.36   0
       301    782.6352    560.7426 307.5900909  +6.4689004      5627.05     8670.646     8985.489     78.32555     156.5267     312.9912      1.643     3.96     848.0465     55.16431      851.022        31     1.509     1.003 -50.63   0
       302    513.4445    560.5211 307.7019042  +6.4599827     6256.545     9837.237     10051.72     78.44978     156.5267     312.9601      1.694     3.87     849.9563     55.16431     890.5752        31     1.549     0.960 -48.90   0
       303     86.5704    561.8794 307.8791483  +6.4450854     833.8693     1393.521     1420.392     78.32555     156.5267      312.929      1.732     5.77     853.1911     55.16431     136.3308        12     1.466     0.639 -45.73   0
       304    371.7655    557.4031 307.7608530  +6.4565187     1229.037     2068.359     2463.436     77.57601       156.34     312.7111      1.855     4.23     850.2248     55.16431     186.3943        13     1.415     0.658 -47.67   0
       305    160.4632    553.7042 307.8487364  +6.4509471     6404.442      10100.6     10435.73     78.32555     156.6511     313.0223      1.721     4.09     853.1737     55.16431     910.1401        32     1.537     0.992 -49.68   0
       306    799.2455    553.2726 307.5834429  +6.4725401     1292.728     2009.699     2240.682     78.32555     156.5889     312.9601      1.531     4.96     847.3242     55.16431     202.7168        13     1.565     0.640 -50.04   0
       307    558.3224    553.4969 307.6835015  +6.4643868     2253.841      3820.21     4510.829     78.20113     156.7133     313.0223      1.860     4.72     849.3638     55.16431     307.9312        24     1.597     0.887 -42.28   0
       308     32.1234    552.2786 307.9020856  +6.4472167     4872.379     8153.884      8309.44     78.69765     156.7754     313.0534      1.784     3.80     852.9318     55.16431     649.5468        39     1.644     1.146 -51.33   0
       309    255.7511    550.0984 307.8092834  +6.4556392     82320.89     132531.2     138498.8     78.44978     156.4645     313.1468      1.725     3.95     850.4758     55.16431     11615.14        89     1.737     1.215 -48.83   0
       310    545.0983    547.8174 307.6891853  +6.4662890     831.9567      1181.94      915.598     78.44978       156.34     312.7422      1.423     4.95     849.2432     55.16431     121.0832         7     1.099     0.631 -43.94   0
       311    239.3484    545.1813 307.8162621  +6.4571183     1345.515     2098.946     2540.035     77.95168     156.5889     312.7111      1.716     4.68     850.3615     55.16431     210.3321        15     1.381     0.732 -52.90   0
       312    955.2538    544.1158 307.5189517  +6.4815304     1577.529     2390.744     2790.397     78.44978     156.5267     313.1157      1.711     4.70     843.9855     55.16431     194.4397        19     1.401     0.898 -44.30   0
       313    778.8911    542.5844 307.5922564  +6.4762733     15845.34     24435.64     25818.96     78.20113       156.34     312.8356      1.628     3.93     847.3954     55.16431     2226.194        47     1.597     1.092 -46.39   0
       314    482.5015    540.9467 307.7154159  +6.4670283     37982.81     65814.84     70647.75     78.32555     156.5267     313.1779      1.890     4.06     849.5038     55.16431     4990.352        78     1.805     1.336 -39.78   0
       315    632.6453    539.9095 307.6530896  +6.4724861     983.9276     1446.405     1743.385     78.44978     156.4645     313.0846      1.627     5.56      848.676     55.16431      133.348        12     1.185     0.735 -49.35   0
       316    195.1479    537.2854 307.8348865  +6.4588930     1868.245     3020.147     2593.811     78.44978     156.4645     313.0846      1.662     4.18      851.442     55.16431      266.019        20     1.504     0.811 -49.78   0
       317     30.6521    537.4562 307.9031987  +6.4532874     1167.857     1992.715     2174.821     78.44978     156.5267      312.929      1.878     5.74     852.7835     55.16431     151.1392        13     1.380     0.824 -46.40   0
       318    642.5162    535.9992 307.6491214  +6.4744312     2751.827     4431.655     4982.736     77.70143     156.0282     312.6488      1.728     3.90     848.4532     55.16431     453.0808        23     1.520     0.831 -46.09   0
       319    652.7286    535.8847 307.6448835  +6.4748203     1364.577     2111.825     2284.177     78.57381     156.7754     312.9912      1.605     4.07     848.3693     55.16431      194.513        14     1.305     0.739 -41.71   0
       320    242.9247    537.1055 307.8150497  +6.4605732     485.4162     753.2692     621.2368     78.20113     156.7133     312.9912      1.550     3.76     850.1432     55.16431     79.25073         5     1.041     0.390 -57.04   0
       321    704.6311    534.9710 307.6233566  +6.4769341     1255.245     1981.486     2120.414     77.95168     156.2777     312.7111      1.690     3.96     848.1511     55.16431     195.2834        12     1.225     0.657 -39.32   0
       322    380.1297    531.8025 307.7582433  +6.4673704     1509.516     2272.809     2275.112     77.95168      156.153     312.7734      1.588     4.45     849.5067     55.16431     232.8933        16     1.478     0.690 -51.15   0
       323    311.7304    529.8867 307.7867165  +6.4658653     3599.247     5745.494     6023.155     78.57381     156.7754     312.9912      1.691     4.06     849.7181     55.16431      497.879        28     1.578     1.000 -44.11   0
       324    126.8578    528.4636 307.8635473  +6.4602388     25070.92     39467.95     41731.32     78.57381     156.4645     312.9912      1.701     3.84      852.752     55.16431     3451.783        59     1.675     1.143 -48.98   0
       325    491.6073    529.2908 307.7120269  +6.4721465     2160.396     3590.555     4220.366     78.07651     156.2153     312.7422      1.854     4.01     849.1521     55.16431     300.6041        22     1.464     0.931 -49.97   0
       326    855.0370    528.6182 307.5610981  +6.4845845     1564.315     2424.089     2618.415      78.0765       156.34     312.7422      1.683     4.38     846.1478     55.16431     230.7584        19     1.419     0.895 -41.96   0
       327     92.0700    526.6597 307.8780564  +6.4598131     2675.294     4002.489     3838.176     78.57381     156.5267     312.9912      1.604     4.14     852.9303     55.16431     337.1479        24     1.463     0.944 -49.58   0
       328    328.8228    524.8826 307.7797865  +6.4685055     1013.553     1568.793     2342.595     78.32555     156.2153     312.8668      1.865     4.63     849.5321     55.16431     160.0828        12     1.311     0.752 -51.69   0
       329    952.3113    523.0984 307.5208793  +6.4901109     5035.105     7906.681     7946.062     78.44978     156.9616     312.9601      1.643     3.87     843.6788     55.16431     722.5659        31     1.519     1.014 -48.49   0
       330    525.5945    515.6369 307.6983707  +6.4789236     1348.834     2047.045     2194.677     77.57601     156.2777     312.7734      1.667     3.95     848.4045     55.16431     227.0796        16     1.340     0.831 -45.60   0
       331    423.8420    509.6299 307.7408360  +6.4779925     40013.82     63796.74     67060.23      78.0765     156.4645     312.8045      1.700     3.99     848.7205     55.16431     5419.897        64     1.674     1.150 -48.19   0
       332    631.8546    509.3551 307.6544468  +6.4850764     11533.02     17884.68     18870.15     78.44978     156.5267     312.9912      1.663     3.87     847.6063     55.16431       1680.3        41     1.625     0.997 -47.58   0
       333    189.0304    507.2046 307.8384445  +6.4711080     17797.01     30395.13     32769.16     77.95168     156.4023     312.7422      1.829     3.86     850.7459     55.16431     2242.085        58     1.708     1.269 -48.80   0
       334    965.9469    507.7529 307.5157305  +6.4969025     1159.988      1784.02     1568.602     78.44978     156.5267     312.9912      1.571     3.82     843.2202     55.16431     197.1328        12     1.252     0.622 -57.33   0
       335    806.0280    507.4211 307.5821669  +6.4917002     1120.832      1681.74     1926.915     77.82666     156.2777     312.8979      1.693     4.63     846.3806     55.16431     173.3236        10     1.212     0.611 -68.56   0
       336    271.9533    509.5668 307.8039239  +6.4729197      927.837     1187.631     1176.133     78.20113     156.5267     312.8979      1.299     2.68     849.3412     55.16431     157.2396         6     0.767     0.491  -6.62   0
       337    154.6249    508.2976 307.8526972  +6.4694996      1533.78     2331.631     2254.185     78.57381     156.2777     312.8356      1.680     4.75     851.8867     55.16431     196.3246        18     1.445     0.910 -47.44   0
       338    894.2921    507.4355 307.5455045  +6.4946423     690.5407      1165.85     1913.939     78.57381     156.4023     312.9912      1.625     4.13     844.5823     55.16431     134.3083         6     1.057     0.460 -58.37   0
       339    553.7010    505.9310 307.6870237  +6.4838731     2798.264      4154.56     4906.642     78.44978     156.6511      312.929      1.588     4.07       847.79     55.16431     397.7098        20     1.346     0.850 -49.90   0
       340    927.5416    503.3549 307.5318306  +6.4974371     4557.831     6855.173     7396.642     78.32555     156.5267     313.0534      1.626     3.70     843.5876     55.16431     692.0349        26     1.496     0.897 -48.65   0
       341    600.6465    501.7696 307.6676648  +6.4871638     6151.468     9687.586     9716.484     77.95168     156.5267     312.8668      1.675     4.05     847.5307     55.16431     892.2623        31     1.607     0.917 -51.44   0
       342     88.2275    502.2159 307.8804798  +6.4697768     1160.266     1739.569     1719.647      78.0765       156.34     312.8668      1.678     5.29     852.6791     55.16431     148.6538        12     1.253     0.680 -35.60   0
       343    950.1470    495.5958 307.5227014  +6.5013954     3378.082     5057.163     5115.822     77.82666     156.2777     312.6176      1.572     3.99     843.1964     55.16431     476.1813        23     1.426     0.833 -51.01   0
       344    512.9376    492.9107 307.7043938  +6.4878836     7192.013     11464.57     12131.11     78.44978     156.6511     313.0223      1.649     3.81      847.934     55.16431     1034.439        37     1.565     1.033 -50.08   0
       345    388.6920    494.1764 307.7559570  +6.4831943     674.3329     1072.503     763.0873     78.44978       156.34     312.8045      1.679     4.39     848.4473     55.16431     98.72729         8     1.053     0.522 -36.76   0
       346    869.4068    488.9043 307.5564635  +6.5014634     3223.738     4990.936     5687.506     78.20113     156.2153     312.7734      1.651     4.04     844.6584     55.16431     471.9562        23     1.475     0.856 -43.29   0
       347    358.8935    493.0516 307.7683717  +6.4826586     2368.797     3881.086     3852.739     78.32555       156.34     313.1779      1.679     4.25     848.6708     55.16431     323.3615        23     1.515     0.909 -50.75   0
       348    217.5681    487.8531 307.8272461  +6.4800579     556.4261     974.1071      1169.85     78.32555     156.5889     312.8668      1.780     5.78     849.1882     55.16431      96.5498         6     1.465     0.642 -57.69   0
       349    876.6078    483.4061 307.5536571  +6.5039742     2155.466      3564.05     3794.954     77.82666       156.34     312.8045      1.815     4.52     844.2729     55.16431     321.8236        22     1.571     0.815 -52.75   0
       350    915.8730    482.5450 307.5373761  +6.5056407     1171.823     1684.669     1547.293     78.32555     156.4023     312.8979      1.508     5.06     843.3264     55.16431     149.5753        15     1.327     0.841 -42.85   0
       351     95.7804    482.3580 307.8780151  +6.4782305     675.6281     1205.899     954.4868     77.95168       156.34     312.7734      1.743     6.86     852.4692     55.16431     103.7715        11     1.731     0.761 -34.68   0
       352    700.6098    479.2323 307.6269023  +6.4998156     2805.738     4485.973     4992.182     77.95168     156.2777     312.8045      1.737     3.88     846.2631     55.16431     449.5775        23     1.452     0.906 -58.42   0
       353    371.4762    477.4294 307.7636729  +6.4895316     3488.708     5576.004     6234.031     78.32555     156.5889     312.9912      1.792     4.05     847.9728     55.16431     520.6785        26     1.568     0.926 -52.32   0
       354     62.5594    477.8105 307.8919668  +6.4789900     1664.854      2893.96     3432.566     77.82666       156.34       312.68      1.886     5.38     852.4932     55.16431     241.1465        21     1.689     0.897 -64.78   0
       355    412.2193    477.2662 307.7467556  +6.4909662     893.6597      1619.35     2012.295      78.0765     156.5267     312.8668      2.069     5.90     847.5962     55.16431     148.8257        11     1.516     0.662 -51.37   0
       356    599.2496    473.8951 307.6691839  +6.4986270     9269.521      14895.3     16386.63     78.32555     156.4023     313.1157      1.729     3.94     846.5494     55.16431     1264.065        43     1.642     1.096 -46.01   0
       357    762.3307    470.1998 307.6015690  +6.5056094      15367.5     24474.11     27302.39     77.95168     156.0282     312.7422      1.751     4.55     845.8604     55.16431     2162.988        61     2.212     1.043 -48.28   0
       358    281.8264    470.6916 307.8011368  +6.4893035     2618.506      3837.15     3907.749     78.57381     156.2777     312.8045      1.561     3.77     848.1627     55.16431     359.5577        21     1.379     0.874 -51.65   0
       359    405.7461    470.3293 307.7496783  +6.4936134     618.0918     928.9033     726.5098     78.32555     156.4645     312.8979      1.573     4.20     847.1643     55.16431     97.30463         7     1.160     0.433 -59.41   0
       360    891.5148    467.9010 307.5479858  +6.5108745     507.1079     657.7891     309.0465     78.44978     156.9616     313.0223      1.325     4.31     843.5144     55.16431     106.4166         5     1.485     0.356 -62.73   0
       361    791.0107    467.6275 307.5897424  +6.5076302     1265.881     1812.267      2002.14      78.0765       156.34     312.8356      1.545     4.49     845.8008     55.16431      151.702        15     1.240     0.818 -54.24   0
       362    364.7436    467.4245 307.7668071  +6.4934369     1506.833     2512.849     3085.031     78.07651     156.5267     312.7734      1.906     4.33     847.2694     55.16431     220.3751        18     1.395     0.899 -56.97   0
       363    947.2988    465.3654 307.5248992  +6.5137835     2070.325     3228.721     3146.563     78.44978     156.4023     313.1157      1.619     4.38     842.5552     55.16431     280.1641        18     1.519     0.750 -44.64   0
       364    695.8102    464.6177 307.6293877  +6.5056898     474.9806     760.0277     1096.359     78.20113     156.2153     312.8356      1.881     4.24     845.8995     55.16431     76.33838         5     0.915     0.559 -49.15   0
       365    737.5818    461.4206 307.6121443  +6.5084071     2069.374     3292.245     3807.334     78.20113     156.4645     312.8668      1.757     4.45     845.5922     55.16431     316.2924        22     1.587     0.884 -53.17   0
       366    353.4227    463.5876 307.7716389  +6.4946412      741.936     1184.003     1616.081     78.07651       156.34     312.8668      1.808     5.10     847.1282     55.16431      110.345         7     1.053     0.698 -67.63   0
       367     99.5356    462.3246 307.8771335  +6.4866289     4195.901     6696.313     7059.058     78.57381     156.5267      312.929      1.756     3.81     851.7643     55.16431     619.7371        28     1.509     0.975 -46.42   0
       368   1001.1351    460.2197 307.5027090  +6.5177042     3922.888     6776.746      6760.75      78.0765     156.5267     312.8045      1.820     4.55     841.7665     55.16431     421.4922        30     1.509     1.120 -31.37   0
       369    257.5911    459.2565 307.8115894  +6.4932110     1544.816     2260.615     2450.932     77.82666     156.4645     312.7111      1.615     3.92     847.9075     55.16431      231.717        16     1.289     0.774 -54.13   0
       370    335.6684    456.9543 307.7792373  +6.4967841     2957.721     4581.294     4501.327     78.44978     156.4645      312.929      1.605     3.93     846.8471     55.16431     426.5173        21     1.361     0.894 -56.99   0
       371    691.4647    455.0676 307.6315142  +6.5094879     1439.708     2259.045     2710.424     78.44978     156.5267     312.9912      1.787     4.97     845.6525     55.16431     206.5493        18     1.489     0.844 -39.67   0
       372    965.2768    453.7245 307.5178221  +6.5191902     513.2798      894.031     1075.042     78.69765     156.7754     313.0223      1.626     4.25     842.0303     55.16431     77.86139         7     1.180     0.437 -60.03   0
       373    223.4744    453.0907 307.8259683  +6.4946103     845.6865     1161.892     1256.613     78.44978     156.7133     312.9912      1.515     4.25     848.0699     55.16431     131.7281         9     1.131     0.633 -45.55   0
       374    395.8784    452.8705 307.7543662  +6.5004914      487.759     774.7215     1034.184     78.69765     156.7754      312.929      2.192     4.31     846.0367     55.16431     81.68787         5     1.060     0.500 -37.15   0
       375    433.3366    449.7781 307.7389118  +6.5030250     537.3234     723.6631     611.7579     78.07651     156.5267     312.8356      1.385     4.55     845.7726     55.16431     88.42413         8     1.134     0.519 -35.65   0
       376    532.9346    447.5984 307.6976153  +6.5072642     960.9192     1319.432     1704.934     77.82666      156.153     312.7422      1.511     4.43      845.769     55.16431     131.2628        12     1.198     0.694 -42.10   0
       377    454.9453    446.0485 307.7300620  +6.5052898     1337.836     2140.259     1947.794     78.44978     156.5267     313.0534      1.616     5.20     845.5611     55.16431     163.4994        16     1.411     0.825 -56.01   0
       378    817.4808    445.1670 307.5795022  +6.5177893     1387.729     2008.374     1941.229     78.32555     156.4645      312.929      1.548     4.04     844.6514     55.16431     197.2751        12     1.250     0.644 -53.96   0
       379    803.0337    444.0940 307.5855395  +6.5177497     1965.359     2718.426     3179.651     78.57381     156.4023     313.0534      1.513     3.87     845.0276     55.16431     320.1902        16     1.274     0.778 -49.04   0
       380    700.4979    442.2228 307.6281942  +6.5150940     14208.14     22067.73     23388.96     78.44978     156.2777     312.8045      1.668     3.84     845.2477     55.16431     2215.346        43     1.601     1.033 -46.68   0
       381    621.7163    438.1179 307.6610568  +6.5141526     2469.089     3666.791     4188.329     78.20113     156.7754     313.0223      1.596     3.95     845.3329     55.16431     366.7559        19     1.330     0.867 -52.29   0
       382    596.7723    435.2661 307.6715141  +6.5144949     4968.312     7928.534     8809.076      78.0765     156.4645     312.8668      1.714     4.04     845.2519     55.16431     675.6266        29     1.566     0.973 -48.23   3
       383    593.0256    432.7513 307.6731552  +6.5154079     13670.67     22423.54     24152.98      78.0765     156.5889     312.8668      1.710     3.96     845.1882     55.16431     1840.216        43     1.629     1.064 -46.87   3
       384    694.2335    436.2563 307.6309971  +6.5173482     580.1555     952.7579     1486.304     78.32555     156.5267     312.9601      2.045     3.95     845.1205     55.16431     83.74457         5     0.965     0.464  45.46   0
       385    925.8161    432.0970 307.5349398  +6.5268041     3683.089       5631.7     5678.395     78.32555     156.2777     312.8045      1.587     3.53     842.3101     55.16431     615.8015        25     1.428     0.905 -43.15   0
       386    364.9753    428.0349 307.7680408  +6.5097093     27069.63     43592.96     46291.58     77.95168       156.34     312.7422      1.689     3.87     844.3115     55.16431     3740.319        62     1.697     1.155 -49.03   0
       387    881.7790    427.7798 307.5533776  +6.5271167     1457.225     2311.131     2755.782     78.20113     156.4645     312.8979      1.728     3.62     842.5557     55.16431     209.4418        15     1.159     0.850 -67.71   0
       388    402.6874    429.0056 307.7523435  +6.5105741     529.3369     799.9976     1322.394     77.95168     156.2153     312.7111      1.869     5.06     844.3175     55.16431     98.72034         8     1.076     0.672 -52.37   0
       389    111.0852    427.4169 307.8735180  +6.5014313      2141.45     3612.737     4435.814      78.0765     156.2777     312.8979      1.905     4.77     850.2817     55.16431     292.0327        22     1.486     1.000 -47.58   0
       390    894.5880    422.5031 307.5482341  +6.5297233     4997.225     7725.653      7508.52     78.20113     156.2777     312.7734      1.661     4.06     842.3422     55.16431     719.7153        29     1.466     0.962 -47.60   0
       391    878.3306    423.7953 307.5549439  +6.5286469      622.475      1215.11     1531.979     77.95168      156.153     312.8045      1.829     4.53     842.4623     55.16431      77.6701         6     0.985     0.592  24.21   1
       392    576.1118    424.0419 307.6804743  +6.5184377     671.2998     1021.018     1217.201     78.44978     156.4645     312.9912      1.540     3.91     844.8915     55.16431     101.3889         6     0.927     0.471 -52.43   0
       393     44.2850    423.0957 307.9014100  +6.5009668     1472.502     2456.358     2568.293     78.44978     156.8996     313.0534      1.844     4.82     852.2647     55.16431     199.3003        16     1.383     0.818 -42.24   0
       394    222.4987    418.5154 307.8275426  +6.5088541     13099.86     20995.39     21949.95     78.44978     156.9616     313.0223      1.765     3.95      847.152     55.16431     1800.779        47     1.669     1.110 -49.33   0
       395     57.9274    412.9991 307.8960855  +6.5055951     814.3867     1119.559     917.9814     77.82666     156.0906     312.8045      1.430     4.65     851.5831     55.16431     130.6684         9     0.955     0.730 -17.48   0
       396    717.5132    412.1524 307.6221381  +6.5280801     649.6895      790.755     1226.659     78.44978     156.4023     312.9912      1.228     3.63     844.2357     55.16431     136.7363         5     0.870     0.496 -85.19   0
       397    685.2734    411.7023 307.6355454  +6.5271874     572.6319     930.5687     432.0884     78.07651     156.6511     312.9601      1.574     3.62     844.4641     55.16431     110.6663         5     0.944     0.399 -45.41   0
       398    945.7277    411.0133 307.5273764  +6.5361747     941.6495     1362.108     1719.091     77.95168     156.2153     312.7734      1.666     4.79     841.2708     55.16431     153.5945         9     1.115     0.584 -33.45   0
       399    122.6899    407.2176 307.8693817  +6.5101623     4852.852     7730.051     8127.593     78.20113     156.2777     312.8668      1.695     4.05       849.22     55.16431     642.0763        31     1.647     0.920 -52.08   0
       400    363.4749    408.0490 307.7693389  +6.5179115     571.2737     785.9673     905.7934     78.32555     156.5889     312.9912      1.642     6.07     843.0873     55.16431     78.74207         8     1.283     0.807 -41.70   0
       401    335.5439    408.1301 307.7809380  +6.5169403     1404.597     2248.527       2276.4     78.57381     156.4645     312.8979      1.812     4.45     843.7515     55.16431     212.8073        13     1.353     0.649 -53.19   0
       402    168.1887    408.7085 307.8504327  +6.5110773     728.7022     1032.181     1157.861     78.20113     156.2153     312.7734      1.442     3.25     847.9977     55.16431     132.6268         8     1.095     0.593 -60.21   0
       403    420.4221    405.9368 307.7457555  +6.5206947     726.5338     1218.641     1096.096      78.0765     156.5267     312.8356      1.781     5.88     842.9922     55.16431     101.5643        10     1.232     0.790 -53.43   0
       404    227.4364    406.2332 307.8259069  +6.5140916      1329.09      1972.56     2354.042      78.0765     156.2777     312.7111      1.640     4.07     846.7012     55.16431     219.9912        18     1.387     0.839 -53.37   0
       405    615.8175    405.5624 307.6646036  +6.5273980     531.4916     847.6754      945.017      78.0765     156.4023     312.7111      1.472     3.42     843.8787     55.16431     96.48907         5     1.275     0.265 -55.09   0
       406    145.0184    402.8186 307.8602561  +6.5127299     2098.755     3872.211     4235.328     78.20113       156.34     312.8979      1.969     4.94     848.4719     55.16431     306.6237        28     1.781     0.994 -66.56   0
       407    809.1876    403.7094 307.5843408  +6.5346313     821.5538     1110.659     918.7106     78.20113     156.2777     312.7734      1.467     4.71     843.5136     55.16431     147.1574         9     1.215     0.665 -43.76   0
       408    540.4653    402.1789 307.6960181  +6.5262712     1031.173     1381.947     1241.232      78.0765     156.5267     312.8356      1.574     4.07     843.4102     55.16431     165.3901        12     1.140     0.760 -68.74   0
       409    956.5292    397.4840 307.5233436  +6.5421218     1064.321     1862.903     2376.014     78.69765     156.7754     312.9912      1.992     6.15     840.3149     55.16431     148.2394        14     1.683     0.632 -59.93   0
       410    368.2617    397.5254 307.7677059  +6.5224175     2066.751     3324.346     3438.631     78.69765     156.5267     312.9601      1.763     4.14     842.6541     55.16431     247.0433        22     1.296     1.111 -67.13   0
       411    256.1417    398.1082 307.8142582  +6.5184113     751.8488     1114.565     376.8074     78.32555     156.4645     313.0534      1.437     5.16     845.8437     55.16431     112.8669        10     1.230     0.613 -30.55   0
       412    302.2703    395.4351 307.7951879  +6.5210648     642.0134     1166.415     933.9614     78.32555     156.4645     312.9912      1.656     3.89     844.4802     55.16431     110.7805         6     1.272     0.464 -65.04   0
       413    422.1425    391.4263 307.7455305  +6.5267440     6867.312     11194.21      11591.9      78.0765     156.5889     312.8045      1.757     3.99     842.3176     55.16431     884.9265        38     1.695     1.004 -47.73   0
       414     18.6771    391.8999 307.9131032  +6.5129853     2894.715     5000.827     5545.454      78.0765     156.6511     312.9912      1.932     4.67     852.0685     55.16431     438.9501        33     2.016     0.896 -53.64   0
       415    593.0851    391.9351 307.6745055  +6.5322638     482.4484      667.405     878.8276     78.57381     156.7133     313.0223      1.460     3.59     842.7614     55.16431     88.23328         5     0.997     0.373 -32.88   0
       416    762.7407    388.8369 307.6041350  +6.5392200     12231.26     18797.55     19643.09     78.44978     156.5889     312.9601      1.659     3.87     843.1958     55.16431      1773.55        43     1.579     1.078 -44.11   0
       417    754.8829    390.2989 307.6073500  +6.5383536     1859.663     2672.304     2781.367     78.44978     157.0236     313.0534      1.640     3.79     843.2625     55.16431     273.9412        15     1.243     0.762 -47.18   0
       418    325.9411    387.2142 307.7856333  +6.5252543     1158.883     1761.524     2585.344     77.82666     156.4645       312.68      1.930     5.03     843.2011     55.16431      153.436        17     1.221     1.058 -53.47   0
       419   1006.6266    383.9843 307.5029856  +6.5493673     3536.992     5603.484     5565.392      78.0765       156.34     312.8668      1.665     3.61     837.9084     55.16431     543.7086        24     1.435     0.880 -44.36   0
       420    171.3071    379.7572 307.8501169  +6.5231365     678.8934     816.2892     471.1036     78.44978     156.5267     313.0846      1.254     3.91     847.3306     55.16431     125.9603         6     0.798     0.548 -52.57   0
       421    470.3041    375.0572 307.7260770  +6.5351185     3074.492      4787.08     4933.063     78.32555     156.5267     313.1779      1.651     3.81     841.0888     55.16431     419.7215        27     1.408     1.064 -46.64   0
       422    442.5253    375.5309 307.7376002  +6.5339913     2292.313     3668.838     3688.098     78.57381     156.6511     312.9601      1.718     4.00     841.4285     55.16431     342.3278        20     1.387     0.886 -49.54   0
       423    899.2560    374.9635 307.5478917  +6.5495096     749.5504     1249.915     1075.264     78.32555     156.5267     312.9912      1.692     5.92     841.0562     55.16431     128.7803        11     1.370     0.720 -53.32   0
       424    828.0831    371.7360 307.5775663  +6.5484653      31899.6     50838.88     53493.16     78.57381     156.5889     312.9912      1.685     3.84     842.0431     55.16431      4481.43        60     1.696     1.134 -54.84   0
       425   1022.5771    368.7570 307.4968704  +6.5561871     647.5065     790.4587      679.398     77.95168     139.4163     252.5152      1.408     4.22      836.572     55.16431     108.9178         6     0.943     0.539 -48.31  24
       426    320.1740    367.3073 307.7887013  +6.5332805     793.4337     1090.386     931.6297     78.57381     156.2777     312.8045      1.482     5.02     842.5255     55.16431     131.4156         8     1.050     0.680 -55.08   0
       427    600.0197    364.1014 307.6725626  +6.5439892     2710.664     4300.543      4901.96     78.44978     156.4023     312.7111      1.654     3.99     840.6646     55.16431     389.7764        20     1.410     0.814 -49.95   0
       428      8.2124    364.3990 307.9183816  +6.5239880     988.0538     1640.529     1360.947      78.0765     156.2153     312.2436      1.809     5.19     851.3089     55.16431     123.7646        10     1.311     0.581 -57.03  16
       429    131.0451    362.9456 307.8674096  +6.5287238     556.5598     790.1074     1134.412     78.44978     156.5267     312.9912      1.478     4.17     847.6542     55.16431     81.76416         7     0.900     0.552 -43.61   0
       430    684.5322    357.6745 307.6376719  +6.5494720     77137.13     118867.4       125024     78.57381     156.6511      312.929      1.694     3.92     842.2223     55.16431        10837        83     1.677     1.171 -48.76   0
       431    842.5381    359.4139 307.5719756  +6.5540363     1305.419     2153.892     2436.622     77.95168       156.34     312.7734      1.734     6.12     841.5776     55.16431     168.4713        16     1.561     0.782 -40.69   0
       432     63.9092    356.7433 307.8955062  +6.5290250     1421.091     2286.773      2308.17     78.32555     156.4023     313.0534      1.695     4.42     849.0435     55.16431     199.6805        14     1.267     0.752 -70.77   0
       433    925.9973    354.5316 307.5374691  +6.5588392     905.4112     1602.898     1393.383     77.82666      156.153     312.7422      1.596     5.97     839.7968     55.16431     133.8463        14     1.562     0.641 -51.56   0
       434    546.9999    354.4881 307.6949112  +6.5461827     2665.107     4419.162     4817.366     77.70143     156.0282     312.6176      1.777     4.04     839.7423     55.16431     371.1003        25     1.475     0.965 -49.32   0
       435     84.2368    353.2413 307.8871812  +6.5311553     5776.748     9232.753     9398.102     78.20113     156.5267     312.8356      1.689     4.08     848.1686     55.16431     750.6329        30     1.568     0.954 -55.84   0
       436    530.2704    350.5685 307.7019929  +6.5472406     6920.203     10928.32     11408.87     78.32555     156.5267      312.929      1.715     3.85     839.5673     55.16431     918.9595        34     1.560     1.010 -46.74   0
       437    259.2152    348.1215 307.8146713  +6.5391547     2603.272     4105.497      3599.71      78.0765     156.2777     312.8045      1.662     4.18     843.9276     55.16431     349.7386        24     1.525     0.882 -45.79   0
       438    393.2108    345.7510 307.7590903  +6.5446334      24506.5     39747.66     42146.11     77.95168     156.4023     312.6488      1.733     3.95     840.4921     55.16431      3173.29        58     1.682     1.140 -48.90   0
       439    500.8360    344.4931 307.7144249  +6.5487627     1282.039      2255.74     2029.671     78.57381     156.4023     313.0534      1.786     5.03     839.2502     55.16431     196.4914        14     1.495     0.662 -47.00   0
       440    571.8539    345.1862 307.6849002  +6.5508564     636.9685     899.5762     862.3696     77.82666     156.4645     312.7111      1.447     3.88     839.3623     55.16431      99.2774         6     0.768     0.562 -48.13   0
       441    373.2018    343.7259 307.7674704  +6.5447980     1079.241       1692.4     1894.646     77.95168     155.9658     312.8356      1.648     5.54     840.4848     55.16431     159.0301        12     1.365     0.762 -37.23   0
       442     36.9980    344.9904 307.9070825  +6.5329715     407.0723     614.3847     467.0698     77.82666     156.2153     312.7422      1.854     5.17     849.5908     55.16431     75.42853         5     1.413     0.534  12.80   0
       443    660.5013    343.6617 307.6481264  +6.5544541     454.5089     748.0688     839.1641     78.20113     156.5889     313.0846      1.591     4.06     841.0547     55.16431     98.98492         5     0.954     0.494  84.44   0
       444    472.7082    340.7926 307.7262342  +6.5493477     1118.015     1949.373     2017.991      78.0765     156.2153     312.7734      1.759     3.93     839.2569     55.16431     148.7253        13     1.223     0.716 -65.74   0
       445    788.0264    338.1565 307.5953354  +6.5609926     774.9027     1397.185      1315.23      78.0765     156.5889     312.8979      1.856     5.93     840.7281     55.16431      95.7406        11     1.273     0.777 -69.70   0
       446    482.2952    336.1991 307.7224066  +6.5515659     8029.678     13068.46     14267.26     77.95168      156.153     312.5865      1.746     3.81     838.8878     55.16431      1125.59        41     1.632     1.098 -46.10   0
       447    370.7626    338.1655 307.7686714  +6.5470121     688.3359     1035.211      1085.86     78.20113       156.34     312.7422      1.795     4.41     840.3472     55.16431     138.9937         7     1.174     0.470 -37.26   0
       448    751.3850    334.9217 307.6106659  +6.5611034     2949.173     4709.366      5216.59      78.0765     156.2777     312.8045      1.671     3.98     840.7744     55.16431     409.1105        23     1.482     0.861 -47.72   0
       449    699.2648    334.6421 307.6323270  +6.5594756     793.6627     1138.033     1019.621     78.44978     156.4645     312.9912      1.533     5.45     840.8574     55.16431     107.7383        10     1.197     0.701 -43.73   0
       450    906.9911    334.4640 307.5460387  +6.5664912     932.9412     1289.742     1462.438     77.95168       156.34     312.8045      1.585     4.98     839.3647     55.16431     113.4114        10     1.092     0.644 -58.37   0
       451    308.9207    333.1959 307.7945283  +6.5469877       999.77     1752.347     1638.559      78.0765     156.0282     312.7111      1.807     6.37     841.6085     55.16431     139.0414        15     1.525     0.922 -71.15   0
       452    245.1781    326.7438 307.8212249  +6.5475101     550.1426     848.9357     518.6394      78.0765     156.5267     312.7734      1.535     2.79     843.8694     55.16431     98.33008         6     0.736     0.561 -47.95   0
       453    144.3519    326.5649 307.8631135  +6.5441934     1029.224     1671.726     1586.971     78.07651     156.5267     312.8979      1.781     5.69     846.6317     55.16431      131.705        12     1.182     0.772 -47.84   0
       454    372.1602    320.4053 307.7686905  +6.5543925     6871.669     11386.24     11932.85     77.70143     156.2153       312.68      1.780     3.93     839.9087     55.16431     915.4918        36     1.599     1.064 -49.64   0
       455    228.0910    320.8377 307.8285225  +6.5493744     1949.294     3126.947      3279.28     78.57381     156.4645     312.9912      1.679     4.37     844.4795     55.16431     265.1088        18     1.422     0.811 -45.96   0
       456    740.0305    316.2575 307.6160107  +6.5684306     52224.28     80863.65     85163.96     78.32555     156.5267     312.8668      1.648     3.76     839.6254     55.16431     7669.085        75     1.660     1.135 -50.27   0
       457    725.8720    320.2692 307.6217575  +6.5663005     1002.086     1366.035     1316.414     78.57381     156.6511      312.929      1.537     5.12      839.893     55.16431     150.1751        11     1.412     0.614 -49.92   0
       458    661.1904    320.5338 307.6486189  +6.5640272     543.0851     609.0063     653.6898     77.95168       156.34     312.8979      1.309     4.59     839.6307     55.16431     85.37311         5     1.033     0.650  65.18   0
       459    411.6357    315.6132 307.7524539  +6.5576961     2276.959     3704.101     3874.753     77.95168       156.34       312.68      1.795     4.19     839.3726     55.16431     305.9171        22     1.470     0.933 -45.74   0
       460    557.7009    313.1367 307.6918598  +6.5636161     1182.818     1810.925     1715.996     78.20113     156.5889     312.9912      1.502     5.02     837.8372     55.16431     177.8485        12     1.372     0.615 -52.73   0
       461    974.8093    313.2226 307.5185781  +6.5775257     1627.444     2669.104     3013.685      78.0765     156.2777     312.8045      1.704     4.39     836.6771     55.16431      248.438        18     1.475     0.821 -31.43   0
       462    916.0292    312.3914 307.5430254  +6.5759073     2195.317     3510.404     4089.837      78.0765       156.34     312.7422      1.714     3.79     838.1859     55.16431     365.5604        19     1.397     0.827 -45.97   0
       463    448.7249    312.1820 307.7371623  +6.5603572     985.6453     1688.676     2882.613     77.95168     156.2777     312.8668      3.437     4.59     838.4842     55.16431      165.803        13     1.426     0.746 -64.75   0
       464    278.6008    310.4089 307.8078933  +6.5553781     666.7277      1054.86     796.6135     77.82666     156.2153     312.7422      1.671     4.48     841.7311     55.16431     91.58722         7     0.869     0.687 -28.85   0
       465    819.7413    305.4713 307.5832592  +6.5755490     1166.522     1714.263     1994.021     78.57381     156.5267     312.9601      1.526     4.31     838.7626     55.16431     159.2537        11     1.125     0.810 -65.47   0
       466    398.3512    311.3457 307.7581164  +6.5590124     1915.871     3155.515     3495.684     78.44978     156.5267     313.0223      1.782     3.72     839.3672     55.16431     300.9274        20     1.355     0.921 -55.39   0
       467    174.9155    302.5284 307.8512309  +6.5551465     2131.452     3681.816     4038.675     78.57381     156.7754     312.9912      1.837     4.28     845.3674     55.16431     277.4031        22     1.536     0.873 -53.00   0
       468    738.4697    300.8117 307.6171788  +6.5747563     5986.771     9109.539      9789.49     77.95168       156.34     312.8045      1.623     3.73     838.6699     55.16431     834.4127        30     1.493     0.962 -51.54   0
       469    428.9027    302.5497 307.7457219  +6.5636696     1102.403     1547.782     1856.762     78.32555     156.4645     313.1157      1.655     5.13     838.5608     55.16431     129.4371        13     1.168     0.837 -74.96   0
       470    210.7330    300.8043 307.8364106  +6.5570629     654.1583     1100.846     1356.222     77.82666     156.2153     312.7422      1.846     4.70     844.5009     55.16431     144.4571         7     1.194     0.524 -68.05   0
       471    755.0608    298.8649 307.6103518  +6.5761150     2527.651     3971.358     4552.788     78.44978     156.4645     312.9912      1.679     4.03     838.5196     55.16431     383.6672        23     1.441     0.946 -57.22   0
       472    329.2488    300.0446 307.7872040  +6.5613590     602.1089     966.8187     1229.435     78.44978     156.4023     312.9601      1.759     5.59     840.1395     55.16431     78.58746         8     1.241     0.710 -68.74   0
       473     71.1712    299.6631 307.8944229  +6.5528382     942.5352     1467.572      1544.89     78.20113     156.5267     312.8979      1.659     3.26     847.6378     55.16431     142.8613        11     1.026     0.842 -86.35   0
       474    457.7044    297.5432 307.7339261  +6.5667030     616.4991     949.7918     948.9695     78.32555     156.5267     313.1779      1.632     5.33     837.6971     55.16431     87.65198         6     1.063     0.756 -52.07   0
       475    344.3095    293.2284 307.7811779  +6.5646792      1645.96     3255.111     3467.325     78.57381     156.2777     312.8356      2.027     5.70     839.7291     55.16431     176.4379        31     1.764     1.196 -20.91   0
       476    297.5118    294.7029 307.8005683  +6.5624987     356.6044      434.234      508.838     78.44978     156.9616     312.9912      1.043     3.77     840.4843     55.16431     86.64972         5     1.404     0.290 -44.38   0
       477     58.0864    293.8320 307.9000558  +6.5548053     1236.305     2017.091     1811.337     78.44978       156.34      312.929      1.615     5.11     847.7247     55.16431     168.0287        15     1.362     0.995 -53.03   0
       478    993.1333    289.6610 307.5117564  +6.5878662     5664.014     8477.412     8841.097     78.44978     156.4645     312.9601      1.593     3.70      835.668     55.16431     787.6475        27     1.409     0.959 -54.32   0
       479    471.2080    289.6053 307.7285842  +6.5704335     1911.469     3012.344     3129.162     77.82666     156.2777     312.8045      1.661     4.21     837.0446     55.16431     268.4067        19     1.420     0.857 -58.27   0
       480    233.7727    285.0276 307.8273733  +6.5643518     5455.115      9000.07       9607.7     77.95168       156.34     312.8045      1.734     4.22     843.3516     55.16431     745.7432        33     1.578     1.015 -49.46   0
       481    901.3603    283.7824 307.5500804  +6.5872311     586.4622     899.2004     409.5576     78.07651       156.34     312.7422      1.453     3.73     837.1473     55.16431     123.6211         5     0.877     0.455 -41.93   0
       482    798.3677    283.1925 307.5928877  +6.5840343     626.4702     1046.587     1533.923     77.95168     156.4023     312.7734      1.824     4.91     837.7277     55.16431     110.6035         6     1.116     0.612 -69.38   0
       483    752.7611    278.8429 307.6119808  +6.5843057     811.4758     1337.259     1638.597     78.20113     156.5267     312.8356      1.811     6.14      837.613     55.16431     115.6417        11     1.602     0.661 -51.00   0
       484    368.1252    275.8120 307.7718726  +6.5726703     1415.799     2440.125     2923.935     77.95168     156.2153     312.7422      1.926     3.64     838.9742     55.16431     228.7158        18     1.332     0.819 -47.25   0
       485    954.8751    274.6091 307.5281559  +6.5928052     1002.167     1381.545     1177.232      78.0765     156.0906     312.8045      1.490     5.31     835.8804     55.16431     140.7296        11     1.231     0.647 -50.04   0
       486    290.1283    271.7482 307.8044114  +6.5717289     1169.607     1920.984     1298.166     78.32555     156.5267     312.9912      1.849     6.07     840.3364     55.16431      155.877        14     1.422     0.728 -45.18   0
       487    174.8051    272.5821 307.8522900  +6.5675079     508.7808     802.7365     1280.759      78.0765      156.153     312.8045      1.556     4.12     844.6608     55.16431     84.29303         5     0.884     0.548 -51.15   0
       488    137.7574    271.6026 307.8677131  +6.5666659     1618.791     2590.106     2794.964     77.82666      156.153       312.68      1.691     4.58     845.6282     55.16431     214.3994        16     1.376     0.829 -38.81   0
       489    890.9387    266.5512 307.5549889  +6.5939984     1600.026      2484.88     2897.447     78.44978     156.4645     313.0223      1.756     4.09     836.6147     55.16431     243.4139        16     1.296     0.930 -40.23   0
       490    547.4086    267.3419 307.6976792  +6.5821809     2149.751     3341.025     3007.856     77.82666     156.4645       312.68      1.659     4.05     836.1284     55.16431     280.4435        18     1.348     0.823 -43.62   0
       491    710.9280    264.9033 307.6298291  +6.5886626     4855.425     7500.603     7786.915     78.32555     156.6511      312.929      1.615     3.62     837.1953     55.16431     747.1307        30     1.489     0.982 -46.11   0
       492    651.7164    265.0922 307.6544216  +6.5866032     2086.164     3118.749     3456.305     78.20113     156.8375     313.0846      1.636     3.80      836.792     55.16431     306.5286        21     1.424     0.865 -53.75   0
       493    949.5001    264.2832 307.5307357  +6.5968897     765.0902     1056.547     562.3644     78.44978     157.0236     313.0534      1.398     2.72     835.5219     55.16431     143.5374         6     0.853     0.450  -1.30   0
       494    367.2815    258.6970 307.7728011  +6.5797091     661.4472     785.8574     370.5443     78.32555     156.8375     313.0223      1.225     4.18     838.6519     55.16431     97.48444         7     1.105     0.451 -62.14   0
       495    906.8315    257.1172 307.5487031  +6.5984246     1108.173     1712.053     1528.214     78.44978       156.34     312.8356      1.634     4.47     835.9724     55.16431     158.6999        13     1.256     0.769 -42.79   0
       496    210.3409    250.2151 307.8382846  +6.5779385     2257.169     3701.789      3995.33     77.82666     156.5267     312.7111      1.797     4.19     843.4146     55.16431      273.048        25     1.557     0.991 -53.69   0
       497    853.1169    249.0610 307.5712898  +6.5999574     1671.718     2376.933     2316.896     78.57381     156.5267     312.9912      1.482     3.63     836.4337     55.16431     266.4294        16     1.310     0.724 -54.29   0
       498    743.5992    248.6888 307.6168016  +6.5964507     1570.849     2488.191     2273.249     77.70143     156.0282       312.68      1.575     4.31     836.7523     55.16431     251.7433        14     1.304     0.689 -52.08   0
       499    770.3488    239.2123 307.6060073  +6.6012582     12957.54     20638.12     22499.48     77.82666     156.4023       312.68      1.716     3.82     836.4654     55.16431     1840.569        53     1.686     1.186 -43.42   0
       500    444.3812    240.0418 307.7414013  +6.5899994     21392.56     35098.93      37422.2     77.95168       156.34     312.7422      1.762     3.95      836.194     55.16431     2820.469        60     1.747     1.145 -49.92   2
       501    449.9415    234.6403 307.7392736  +6.5924162     1331.959      2106.06     2506.767     78.44978     156.5267     313.0223      1.770     4.12     835.8329     55.16431     187.1384        12     1.143     0.719 -35.78   3
       502    305.3356    241.6945 307.7991096  +6.5846493     659.4869     1148.848     1081.222     78.32555     156.6511     312.9912      1.983     5.33     839.8937     55.16431     114.1911         8     1.518     0.528 -73.86   0
       503    709.3954    234.9491 307.6314740  +6.6009801     546.5124     1039.853     1458.296     77.82665       156.34     312.5865      1.917     3.00     836.3117     55.16431     87.26141         5     0.857     0.487 -86.68   0
       504    132.8091    233.3515 307.8710635  +6.5822935     2203.076     3541.556     4395.877     77.95168       156.34     312.6488      1.757     4.17     845.0779     55.16431     337.2815        23     1.537     0.900 -53.78   0
       505    107.5026    232.1131 307.8816182  +6.5819531     1126.694     1839.584     2076.646     78.44978     156.9616     312.9912      1.824     5.01     845.9387     55.16431     163.5837        12     1.238     0.660 -48.61   0
       506    763.2282    231.5775 307.6092224  +6.6041727       742.89     1259.944     1804.512     77.95168       156.34     312.8356      2.097     6.95     836.2645     55.16431     92.67169        12     1.380     0.982 -19.75   0
       507    906.8560    229.5796 307.5496180  +6.6097964     1443.843     2111.492     2209.497     77.95168     156.5267     312.7734      1.476     4.38     834.8726     55.16431     204.3063        17     1.488     0.748 -48.93   0
       508    159.5203    231.1279 307.8600423  +6.5841104     601.4821     1126.374     1178.558     78.69765     156.7754     312.9601      1.762     5.28     844.0895     55.16431     80.48364         8     1.492     0.527 -24.13   0
       509    605.1451    227.7425 307.6750277  +6.6004664     513.5179     824.8383     861.9708     78.57381     156.5889     312.9912      1.703     4.40      835.157     55.16431     92.28723         5     0.853     0.645  32.00   0
       510    568.4269    225.8642 307.6903455  +6.6000120      4352.74     6915.524     6869.942      78.0765     156.4645     312.8668      1.679     3.91     835.0176     55.16431     605.3887        29     1.565     0.964 -47.74   0
       511    288.8414    226.7610 307.8064665  +6.5902615     1022.295      1533.21     1796.563     78.20113     156.5267     312.8356      1.560     5.16     840.2957     55.16431     151.6379        13     1.338     0.720 -45.63   0
       512    531.2205    225.6859 307.7058089  +6.5988389     1951.534     3258.941     3160.657     78.20113     156.2777     312.8668      1.759     4.11     834.8372     55.16431     250.7179        19     1.399     0.835 -50.26   0
       513    875.4531    222.4720 307.5629036  +6.6116827     11004.21     16602.24     17349.07     78.32555     156.4645      312.929      1.648     3.90     835.1378     55.16431      1650.67        37     1.551     0.984 -46.87   0
       514    373.2782    224.5681 307.7714625  +6.5940027     1444.489      2159.23     1960.594     78.32555     156.5267      312.929      1.709     4.87     837.8221     55.16431     170.4586        17     1.389     0.817 -35.28   0
       515    303.1590    223.3376 307.8006342  +6.5921560      786.431     1462.546     2144.761     78.44978     156.4645     313.0534      2.174     6.24     839.8596     55.16431     95.52637        12     1.406     0.778 -71.09   0
       516    929.2595    222.7868 307.5405384  +6.6133492     2595.231     3990.971     4015.152     77.82666     156.4645     312.6488      1.621     4.16       834.13     55.16431     357.8254        21     1.569     0.873 -64.64   0
       517    673.6168    220.4193 307.6468275  +6.6057826     2629.034     4079.115     5082.516     78.20113     156.2777     312.8668      1.867     3.94     835.8893     55.16431     376.4022        24     1.577     1.043 -77.49   0
       518    962.1611    220.3394 307.5269511  +6.6154578     9520.902     14647.27     15420.96     78.44978     156.5889     313.0223      1.630     3.85     833.4688     55.16431     1341.845        37     1.546     0.998 -49.92   0
       519    550.7576    222.3180 307.6978057  +6.6008843     833.3868     1337.533     874.5992     78.44978     156.5267     312.8979      1.753     5.27     834.8945     55.16431      123.144        10     1.497     0.562 -62.32   0
       520    194.8686    222.0019 307.8456666  +6.5890676      671.574       1007.8      756.417     77.82666     156.0906     312.7734      1.713     5.03     843.1494     55.16431     79.55286         6     1.191     0.601 -70.08   0
       521      2.1559    218.6523 307.9258371  +6.5839632     22532.92     31393.46     32663.93     76.69228     135.9507     248.4722      1.498     4.12     847.4747     55.16431     3147.324        41     1.521     0.987 -69.44  24
       522    248.0318    219.8921 307.8236524  +6.5917263     1131.916     1783.228     1759.162     78.57381       156.34     312.9912      1.699     4.92     841.7252     55.16431      158.228        16     1.399     0.861 -45.73   0
       523    482.1377    215.0229 307.7265598  +6.6015964     1922.543     3263.996     3359.601      78.0765     156.5267     312.8668      1.768     4.61     834.2712     55.16431     255.0524        20     1.452     0.945 -54.13   0
       524    814.1363    211.9036 307.5887338  +6.6139982     1954.701     3101.014      2641.05     78.32555     156.6511     312.9912      1.569     4.29     835.4196     55.16431     289.8492        18     1.435     0.756 -53.84   0
       525    494.1302    211.0707 307.7217109  +6.6036304      2538.07     4082.516      4330.55     78.44978     156.6511      312.929      1.709     4.08     834.3166     55.16431     316.8488        20     1.382     0.891 -49.44   0
       526    866.3356    210.8977 307.5670806  +6.6161575     1904.412     3005.165     2876.168     78.44978     156.5889     312.9912      1.607     3.51     834.6628     55.16431     303.8191        18     1.406     0.757 -44.14   0
       527    725.6306    208.3972 307.6256227  +6.6124871     38868.65     60003.02     63258.98     77.95168       156.34     312.7734      1.671     3.74     835.7827     55.16431     5820.375        65     1.649     1.129 -49.23   0
       528    328.7055    207.6913 307.7905499  +6.5994747     5999.969     11944.42     13294.16     78.44978     157.0236     312.9601      2.145     5.65      839.056     55.16431      664.561        47     2.062     1.147 -68.77   0
       529    959.3857    207.2041 307.5285452  +6.6207891     2829.901     4337.336     4732.136      78.0765     156.2153     312.8356      1.657     4.25     832.9056     55.16431     449.2823        22     1.458     0.849 -47.38   0
       530    997.7984    206.0021 307.5126261  +6.6225669     1780.977     2721.117      2537.07     77.82666     156.0906     312.6488      1.537     3.69     832.2839     55.16431     274.8392        15     1.332     0.695 -52.47   0
       531    893.5875    205.5107 307.5559393  +6.6192921     7346.905     11157.98     11862.02     78.20113     156.2777     312.8356      1.662     3.78      833.893     55.16431     1151.973        34     1.519     0.969 -45.65   0
       532    437.0955    204.5183 307.7456270  +6.6044232     4915.612     7914.716     8509.599     78.20113     156.8375     313.0534      1.692     3.89     835.3173     55.16431     615.3802        28     1.555     0.946 -48.47   0
       533    211.0435    201.1130 307.8396537  +6.5982368     647.2628     1014.457     811.6979     78.44978     156.4023     312.9912      1.647     4.75     842.5849     55.16431     101.2494         6     1.132     0.565  87.70   0
       534     94.4411    195.7439 307.8882759  +6.5965305      4641.08     7511.632     7080.193     78.32555     156.5267     312.9912      1.731     3.79     845.2576     55.16431     597.8579        29     1.522     1.000 -52.98   0
       535    264.7564    192.4884 307.8176309  +6.6036036     32322.12     52153.09      55403.2     78.44978     156.4023     312.9912      1.763     4.00     841.0765     55.16431     4349.325        69     1.753     1.183 -50.13   0
       536    913.8924    195.1423 307.5478515  +6.6242513     790.3191     1167.259     1817.631     78.32555     156.4645     313.0845      1.502     3.38     832.9907     55.16431     147.2926         8     1.026     0.512 -54.85   0
       537    240.0125    193.5596 307.8278743  +6.6023296     6139.085     10269.65     10874.03     77.95168       156.34     312.7111      1.778     4.11     841.8747     55.16431     744.1028        36     1.601     1.054 -48.34   0
       538    590.7751    193.3973 307.6821551  +6.6141669     616.5492     1261.673     1026.723      78.0765     156.2153     312.7734      2.209     6.85     834.6235     55.16431      96.1557         8     1.470     0.895 -78.57   0
       539    694.1694    191.8522 307.6392506  +6.6182663     711.1757     1232.625     1543.722     78.32555     156.6511     312.8979      1.575     5.11     835.5096     55.16431     125.2095         9     1.363     0.541 -48.58   0
       540    388.8171    187.9959 307.7662421  +6.6096254      47302.6     77141.19     82082.75      78.0765     156.0906     312.8045      1.742     3.93       836.48     55.16431     6478.412        77     1.717     1.228 -46.68   0
       541    405.9163    188.6204 307.7591171  +6.6099415     1361.007     2312.316      2882.49     78.20113     156.2153      312.929      2.086     4.98     835.6561     55.16431     198.9443        17     1.344     0.995 -79.31   0
       542    144.7576    189.2194 307.8675937  +6.6009180     3886.211     6256.062     6279.128     77.95168     156.4023     312.7422      1.678     3.86     843.4195     55.16431      524.443        27     1.598     0.938 -42.49   0
       543    292.8052    185.6885 307.8062081  +6.6073539     17316.62     28185.15     30122.58     77.95168     156.2153       312.68      1.740     3.94     840.1984     55.16431     2244.686        50     1.674     1.129 -48.72   2
       544    300.3593    184.8866 307.8030969  +6.6079388     1855.359     3775.444     5136.398     78.44978     156.5267     312.9912      2.430     7.14     839.9782     55.16431     279.4478        30     2.315     1.019 -69.86   2
       545    728.0909    184.2855 307.6254120  +6.6225256     32314.16      50150.8     52990.34     78.20113     156.9616     313.0846      1.666     3.78     835.4126     55.16431     4585.158        60     1.641     1.095 -49.96   0
       546    676.1384    186.1661 307.6469333  +6.6200108     899.1259     1356.939     1286.508     78.32555     156.5889     312.8979      1.605     5.40     835.4102     55.16431     129.8115        11     1.316     0.625 -70.04   0
       547    776.6123    184.6157 307.6052416  +6.6240118     1334.016     1709.869     1386.047     78.32555     156.2153     312.8979      1.466     3.42     834.9218     55.16431     172.5121        13     1.094     0.766 -49.44   0
       548     44.9071    181.3871 307.9093402  +6.6007904     8626.851     14130.31     14819.08     78.20113     156.2777     312.7734      1.753     3.99     846.1499     55.16431      1119.15        42     1.650     1.098 -50.26   0
       549     15.8325    183.7955 307.9213370  +6.5988165     683.6389     1084.447     1470.203     77.82666     156.4023     312.7422      1.707     4.09     847.0101     55.16431     110.3514         7     0.887     0.574 -36.32   0
       550     78.7769    179.5867 307.8953306  +6.6026745     1531.995     2340.226     2140.869     78.20113       156.34     312.8668      1.614     3.83     845.1369     55.16431     215.9799        17     1.321     0.865 -49.97   0
       551    986.5436    178.8298 307.5182143  +6.6334117     1159.782       1781.1     2046.707     78.32555     156.5889     312.8668      1.715     3.82     831.2258     55.16431     208.8876        13     1.251     0.666 -51.04   0
       552    954.7682    177.3774 307.5314652  +6.6329512     480.3515     761.8486     559.5018     77.95168       156.34     312.7734      1.277     3.41     831.5496     55.16431      79.0813         5     0.733     0.459 -15.84   0
       553    712.7384    172.0616 307.6322020  +6.6270595     635.6313     1053.386     1146.207     78.44978     156.5267     312.9912      1.639     4.42     835.2221     55.16431     100.6686         6     1.335     0.417 -34.53   0
       554    561.8830    168.3953 307.6950015  +6.6235228      954.166     1464.151      1715.03     77.95168      156.153     312.7111      1.810     5.62     834.0443     55.16431     135.5407        11     1.148     0.775 -79.85   0
       555    987.5528    165.0080 307.5182590  +6.6391527     2297.218     3661.731     4592.905     77.95168     156.4023     312.6176      1.780     3.53     830.5808     55.16431     340.2803        23     1.359     1.065 -49.96   0
       556    570.3842    162.4598 307.6916696  +6.6262585     1135.662     1667.868     2483.664     77.95168     156.4645     312.7111      1.798     3.78     834.0189     55.16431     176.3252        11     1.183     0.606 -47.91   0
       557    578.9232    160.5328 307.6881869  +6.6273402     1852.573     2828.696     3437.246     78.57381     156.5889      312.929      1.635     4.17      834.086     55.16431     243.1359        16     1.344     0.772 -48.03   0
       558    263.6523    158.7554 307.8192302  +6.6174952      28868.8     47044.64     49829.14     78.44978     156.5267     312.9601      1.768     3.93     841.0395     55.16431     3700.161        61     1.709     1.175 -48.72   0
       559    323.3322    160.7206 307.7943695  +6.6186889     1019.303     1664.232     2137.027     78.57381     156.7754     312.9601      1.807     3.60     839.2614     55.16431     141.3268        11     0.993     0.786 -59.85   0
       560      8.8641    157.3368 307.9251287  +6.6095065     4301.376     6981.404     7758.403     78.44978     156.5267     312.9912      1.802     4.24     847.0871     55.16431     647.6932        32     1.682     1.022 -61.62  16
       561    695.3120    155.4582 307.6400012  +6.6333324      7795.75     12113.98     13320.25     78.44978     156.5267     313.0846      1.711     3.89     834.6744     55.16431     1063.468        32     1.495     1.000 -48.94   0
       562    249.5123    153.9652 307.8252667  +6.6189978     700.2244     1042.348     629.3651     78.44978     156.4023     312.9601      1.716     4.36     841.4197     55.16431     123.7971         9     1.151     0.716 -66.62   0
       563    106.1635    152.4354 307.8848727  +6.6148073     4610.642     7612.994     7758.831     78.20113       156.34     312.7111      1.745     3.91     843.2999     55.16431     602.7966        33     1.605     1.018 -56.71   0
       564    445.1412    149.9455 307.7441263  +6.6272270     1167.866     2006.186     1869.254     78.57381     156.4645     312.9601      1.672     6.52     833.6984     55.16431     163.1315        16     1.463     0.817 -65.09   0
       565    633.8113    149.4672 307.6657551  +6.6337477     876.9654     1420.153     1573.436     77.95168     156.4023     312.8045      1.667     5.70     834.0317     55.16431     140.0144        13     1.420     0.680 -56.06   0
       566    568.7316    150.4333 307.6927617  +6.6311690     565.7211     925.4844      496.124     78.32555     156.5267     312.9912      1.881     4.47     833.5799     55.16431     98.92505         6     0.936     0.607  67.20   0
       567    376.7328    148.5668 307.7725942  +6.6255006     3582.391     6331.039     6711.657     78.32555     156.5889     312.9601      1.913     4.34     836.5994     55.16431     425.8219        29     1.588     1.083 -58.21   0
       568    341.1389    147.5919 307.7874151  +6.6247080      3078.65     5065.085     5459.454     77.82666       156.34     312.7422      1.781     4.34      838.662     55.16431     396.4525        26     1.512     1.079 -58.96   0
       569     95.4818    147.0963 307.8894912  +6.6166523     1607.275     2671.263     2345.515     78.32555     156.8375     313.0534      1.709     4.70     843.3999     55.16431     207.3424        19     1.439     0.856 -50.34   0
       570    553.7079    147.4347 307.6991047  +6.6319038     636.6434     1065.508     1051.789     78.57381     156.4023     313.0223      1.695     5.59     833.3666     55.16431     106.6483         7     1.273     0.693 -52.27   0
       571    657.2579    145.0494 307.6561624  +6.6363568     824.5273     1308.224     1226.162     78.44978     156.5267     313.0223      1.627     6.27      834.003     55.16431     112.2141        12     1.486     0.745 -55.14   0
       572    987.8044    141.6816 307.5189376  +6.6487932      1550.23     2349.606       2542.5     77.95168     156.0906       312.68      1.608     4.52     829.6893     55.16431     228.6822        15     1.347     0.742 -49.24   0
       573    713.8392    141.7999 307.6327633  +6.6395920     593.3461      1230.59     1224.819     77.45038     156.2777     312.6799      2.139     5.35     833.7629     55.16431     93.11664         7     1.306     0.618 -27.70   0
       574    172.8642    156.6552 307.8570193  +6.6153096     862.7869     1238.821     1220.783     78.57381     156.4645     312.9601      1.670     4.46     842.0362     55.16431     142.8657         9     1.309     0.468 -64.43   0
       575    193.0540    136.2994 307.8493202  +6.6243938     5369.098     8557.817     8780.678     78.32555     156.5267     313.2089      1.663     3.74     841.7443     55.16431      670.399        31     1.470     1.051 -56.15   0
       576     75.7332    136.0876 307.8980686  +6.6205328     2014.048     3339.533     4203.798     78.57381     156.7133     312.9912      1.794     4.37     843.8359     55.16431      268.303        22     1.557     0.865 -59.51   0
       577    654.8250    135.2241 307.6575042  +6.6403325     5959.743     9469.964     9578.253     77.95168       156.34     312.8979      1.657     3.88     833.4429     55.16431     872.9679        31     1.550     0.956 -50.05   0
       578    802.9972    135.0497 307.5959465  +6.6453607     885.1411     1400.984     1429.779     77.82666      156.153     312.5554      1.466     4.75     832.2495     55.16431     143.4771         9     1.246     0.594 -39.43   0
       579    607.0094    132.4979 307.6774626  +6.6398571     8959.598     14233.86     15613.76     78.20113      156.153     312.7734      1.714     3.90     833.0547     55.16431       1221.5        35     1.558     1.015 -48.85   3
       580    610.5734    123.9674 307.6762693  +6.6434989     51440.36     81538.69     86160.16     77.95168     156.2777     312.7734      1.708     3.81     832.7105     55.16431     7403.353        76     1.708     1.167 -49.51   2
       581    241.6385    132.9489 307.8292487  +6.6274109     701.7758     1076.451     991.7879     78.20113     156.4645     312.8979      1.398     4.35     841.5955     55.16431     123.0991         6     1.178     0.457 -82.23   0
       582    544.8874    132.4026 307.7032763  +6.6378152     623.0126     860.7886     1194.208     77.82666      156.153     312.7111      1.858     4.77     832.8055     55.16431     98.71204         6     1.178     0.547 -46.43   0
       583      6.0995    131.4661 307.9271542  +6.6200953     1000.054     1467.311     1661.101     78.44978     156.6511     297.8464      1.578     3.48     847.1624     55.16431     134.9403        10     1.013     0.647 -62.72  16
       584    334.1933    128.1952 307.7909562  +6.6324838     3559.785     6191.631     6977.534     77.82666     156.2777     312.8045      1.879     4.56     838.8542     55.16431     435.7151        33     1.847     0.990 -50.35   0
       585    515.8134    127.4075 307.7155244  +6.6389033     1760.852     2628.902     2566.219      78.0765       156.34     312.8356      1.572     4.20     832.8898     55.16431     256.1375        16     1.256     0.832 -51.27   0
       586    980.3607    127.2667 307.5225144  +6.6544971      749.621     1218.296     1419.092     78.32555     156.4645     313.0534      1.675     4.77     829.1729     55.16431     111.5553         8     1.062     0.628 -60.36   0
       587    289.7656    117.5834 307.8097732  +6.6353730     3297.699     5387.461     6094.304     78.07651     156.2777     312.8045      1.819     4.57     840.3113     55.16431     379.5288        30     1.835     0.965 -46.95   0
       588    485.1177    114.8843 307.7287003  +6.6430451     506.0076     635.6934     874.8442     78.20113     156.7754     313.0223      1.189     3.72      832.954     55.16431     98.37018         5     1.032     0.385 -57.23   0
       589    689.5975    112.1474 307.6438338  +6.6510250     1031.713     1457.805     1059.416     77.82666     156.2777     312.5242      1.501     4.12     832.0002     55.16431       188.84        12     1.227     0.706 -31.57   0
       590    661.0684    111.2297 307.6557183  +6.6504492     1250.795     1756.446     2055.409     78.20113     156.5267      312.929      1.558     5.05      832.136     55.16431     181.8647        11     1.313     0.573 -44.47   0
       591    675.0435    107.9037 307.6500238  +6.6522903     3067.195     4895.557     4769.155     78.44978     156.4645     313.1157      1.614     3.90      831.939     55.16431     435.7666        25     1.485     0.901 -57.27   0
       592    416.6090     99.0532 307.7576988  +6.6472837     3957.216     6252.703      6066.19     77.82665     156.4023       312.68      1.670     3.86     833.7381     55.16431     504.0109        29     1.507     1.009 -51.03   0
       593    871.2890     95.2434 307.5689098  +6.6640794      2203.11     3286.758      3507.97     78.44978     156.4023     312.9912      1.613     4.08        829.1     55.16431      300.348        18     1.400     0.817 -45.31   0
       594      1.5081     96.6653 307.9302416  +6.6343098      563.296     1090.967     2446.118     70.47227     127.2946     238.3507      4.323     5.33     847.3747     55.16431     100.7801         5     1.073     0.747 -87.21  24
       595    889.2278     94.3897 307.5614848  +6.6650310     3998.544     5945.199     6344.175      78.0765       156.34     312.8356      1.607     3.76     828.7028     55.16431     545.7275        24     1.394     0.919 -50.00   0
       596    600.9789     93.1580 307.6812940  +6.6558992     480.7246     622.0117      500.066      78.0765       156.34     312.8045      1.225     3.86     831.3989     55.16431     89.84497         6     0.934     0.458 -34.49   0
       597    380.0620     90.7377 307.7731643  +6.6494906     1862.767     2941.279     2939.516     78.44978     156.5267     312.9912      1.662     4.21     836.3771     55.16431     252.4701        22     1.510     0.881 -54.28   0
       598    227.3003     92.6595 307.8365686  +6.6435647     772.0612     1162.634     1560.457     78.20113     156.5267     313.0846      1.685     4.45     841.7864     55.16431     122.3491         8     1.081     0.521 -55.09   0
       599    128.0519     87.6613 307.8779725  +6.6422896      3169.16     5004.186     5108.625     78.44978     156.4645     312.9601      1.674     3.66     840.6721     55.16431     415.2953        26     1.390     1.053 -52.60   0
       600      9.8679     85.3560 307.9271518  +6.6392611     12056.11     19878.71     22172.22     78.44978     156.4645     312.9912      1.799     4.02     845.5978     55.16431       1594.1        48     1.677     1.148 -52.58  16
       601    276.3877     85.9287 307.8164016  +6.6479940     1249.818     2303.358     2773.112     77.95168     156.2153     312.7734      2.153     5.08     840.5847     55.16431     170.3901        19     1.379     1.031 -61.38   0
       602    536.9883     85.3879 307.7081438  +6.6569636     819.0649     1171.973      1164.72     78.32555     156.2777     312.8979      1.556     4.96     831.4313     55.16431     111.7452        10     1.104     0.631 -63.28   0
       603    390.8575     86.0014 307.7688389  +6.6518087     422.3495     628.6121     771.8953     77.82666     156.2153     312.6799      1.381     3.94     835.7605     55.16431     76.10248         5     0.847     0.524  31.12   0
       604    930.2119     84.2629 307.5447958  +6.6705809     634.1813     1006.393      766.169     77.95168       156.34     312.7422      1.680     5.58     827.4875     55.16431     99.18372         7     1.458     0.602 -36.63   0
       605    811.6306     80.1323 307.5942064  +6.6683258     6040.751     9335.208     9986.651     78.32555     156.5267      312.929      1.666     3.96     829.3325     55.16431     867.6537        32     1.542     0.989 -50.65   0
       606    756.7490     80.4705 307.6169987  +6.6663514     3320.273     5193.815     5410.622     78.32555     156.4645     312.9912      1.704     3.98     829.8806     55.16431     477.5577        24     1.402     0.971 -48.10   0
       607    581.2759     92.9681 307.6894869  +6.6553176     1656.026     2699.164     2649.161     78.32555     156.5889      312.929      1.705     3.94     831.4435     55.16431     228.2081        20     1.367     0.910 -58.99   0
       608    401.7916     81.1460 307.7644599  +6.6541806     919.8557     1470.459     1406.322     77.95168     156.4645     312.6799      1.569     4.17      835.205     55.16431     125.5717         8     1.040     0.526 -36.93   0
       609     81.2548     80.6089 307.8976541  +6.6436260     570.3138     853.3618     1148.617     77.82666     156.4645       312.68      1.730     3.40     841.6843     55.16431      82.7063         5     0.765     0.437 -20.20   0
       610    744.4609     78.7083 307.6221638  +6.6666681     493.6509      904.739     1748.209     78.32555     156.5889     313.0534      1.499     4.47     829.9891     55.16431     90.08075         5     1.316     0.431 -57.81   0
       611    519.3455     78.4363 307.7157087  +6.6592426       1199.2     1770.707     2174.283     78.32555     156.5267     312.9912      1.678     3.91     831.5303     55.16431     179.9763        14     1.216     0.772 -34.79   0
       612     50.1736     77.3270 307.9106784  +6.6439343     3033.365     4869.066     4809.688      78.0765     156.4023     312.8668      1.678     3.95     842.9578     55.16431     381.5602        25     1.519     0.921 -53.79   0
       613     34.7886     77.7380 307.9170565  +6.6432463     967.7813     1450.995     1140.661     77.95168       156.34     312.7422      1.514     4.81     843.7135     55.16431     143.4239        10     1.266     0.538 -67.84   0
       614    638.9136     77.7228 307.6660523  +6.6635431     715.9235       965.96     958.3301     78.44978     156.8375     313.0534      1.415     4.25     830.8645     55.16431     109.0239         7     1.025     0.512 -62.16   0
       615    411.7696     76.7700 307.7604620  +6.6563223     957.5375     1380.986      1156.34     77.95168     156.2777     312.7111      1.560     4.99      834.735     55.16431     125.4567        10     1.148     0.614 -70.69   0
       616    574.3953     74.0268 307.6929844  +6.6629083     1146.831     1832.815     1688.954     77.95168       156.34     312.8045      1.591     4.21     830.9197     55.16431     189.1394        13     1.258     0.805 -21.90   0
       617    751.2181     68.0153 307.6197160  +6.6713094     1851.194     3222.318     3779.171     78.20113     156.2153     312.8979      1.925     4.79     829.6738     55.16431       239.49        22     1.600     0.955 -59.79   0
       618    392.5118     67.7756 307.7687672  +6.6593899     1060.287     1528.536     1425.818     78.44978       156.34     312.8356      1.535     5.07     836.0343     55.16431     167.4791        12     1.375     0.655 -61.04   0
       619     65.2435     68.4650 307.9047177  +6.6481010     728.9357     1201.996     609.8806     78.44978     156.4645     312.9601      1.766     5.22     841.8497     55.16431     106.2344         9     1.122     0.687 -65.68   0
       620     89.5824     66.7539 307.8946636  +6.6496272     818.9501     1343.172     1273.568     77.95168     156.4023     312.7111      1.681     4.17     840.9298     55.16431     130.3088        10     1.196     0.587 -35.92   0
       621     77.9779     61.6142 307.8996590  +6.6513586     9074.364     14903.58     15484.83     78.20113       156.34     312.8668      1.738     3.76     841.1757     55.16431     1202.453        44     1.636     1.144 -52.92   0
       622    406.9584     61.3921 307.7629803  +6.6625106     2427.381     3811.989     3397.649     77.82666       156.34       312.68      1.596     3.95     835.5038     55.16431     320.8207        20     1.440     0.842 -44.63   0
       623    228.4274     61.0163 307.8371707  +6.6566682     603.1302     959.3042     476.0204      78.0765     156.2777     312.8668      1.702     4.12     840.9165     55.16431      71.7572         5     0.776     0.624   2.50   0
       624    620.7562     53.6766 307.6744071  +6.6728641     18011.21     27935.96      29495.3     78.32555     156.5889     312.9912      1.683     3.84     830.2275     55.16431     2506.334        50     1.624     1.084 -52.36   0
       625    244.8462     55.3971 307.8305391  +6.6595404     1420.493     2336.274     2806.656     77.82666     156.2153     312.6176      1.738     4.60     840.6118     55.16431     187.1711        14     1.322     0.772 -48.96   0
       626    520.4960     49.7305 307.7161990  +6.6711342     5020.297     7886.493     8252.386     78.32555     156.6511     312.9601      1.685     4.04      830.712     55.16431     634.8621        30     1.544     0.993 -44.84   0
       627    238.8466     49.8945 307.8332179  +6.6616108     1910.579     3032.001     3789.957     78.32555     156.4645     313.0846      1.665     5.26     840.5526     55.16431     259.0718        18     1.465     0.830 -44.62   3
       628    246.6224     45.7393 307.8301277  +6.6635879     8722.729     14077.63     15107.42     78.07651     156.4645     312.8668      1.743     3.95     840.4233     55.16431     1203.449        41     1.637     1.062 -48.72   2
       629    677.0084     48.0968 307.6512217  +6.6770514     665.1649     1061.089     1276.759     78.20113      156.153     312.7734      1.712     5.05     829.8649     55.16431     95.00513         6     0.886     0.814  84.55   0
       630    607.1833     44.1023 307.6803695  +6.6763629     2889.819     5536.568     6614.031     78.44978       156.34     312.7734      2.158     5.65      829.985     55.16431     415.5024        37     1.929     1.285  89.24   0
       631    426.0949     45.3112 307.7555721  +6.6697927     21911.24     34828.35     36446.33     78.44978     156.8996     313.0223      1.713     3.79     834.9648     55.16431     2848.286        55     1.629     1.160 -48.01   0
       632    903.7847     45.5275 307.5570783  +6.6856934     1827.872     2951.071     3388.833     77.95168     156.4023     312.8668      1.785     4.63     826.6976     55.16431     253.7897        18     1.420     0.835 -49.29   0
       633    306.6766     45.9927 307.8051671  +6.6655016      956.614     1657.494     1991.217      78.0765     156.0282     312.7734      1.900     5.98     839.6305     55.16431     130.3264        11     1.218     0.827 -47.71   0
       634     12.0207     45.2719 307.9276164  +6.6558843     2354.569     3950.139      4318.89      78.0765     156.4023      312.929      1.746     3.87     841.4008     55.16431     319.2953        25     1.452     1.026 -53.31   0
       635    511.5994     46.0292 307.7200205  +6.6723642     595.8182     1036.136     1604.375     77.82666       156.34     312.7734      1.950     4.62     830.7254     55.16431     88.72028         6     1.160     0.522 -38.78   0
       636    539.3835     44.9255 307.7085132  +6.6737514     718.4912     1213.426     1301.055     77.95168     156.2777     312.8356      1.839     4.81     830.2651     55.16431     102.6373         7     0.989     0.662 -66.06   0
       637    234.6367     42.2329 307.8352263  +6.6646327     2876.573     4674.959     5251.768      78.0765     156.2777     312.7111      1.759     3.60     840.3893     55.16431     449.9277        25     1.460     0.938 -53.03   0
       638    287.8512     40.4122 307.8131776  +6.6671733     990.9008     1866.439     2467.271     77.82666     156.4023       312.68      2.150     5.96     840.1971     55.16431     136.6337        13     1.227     0.846 -40.26   0
       639    924.7666     35.3745 307.5487009  +6.6905862     918.8159     1325.171     1613.195     77.82666       156.34     312.7734      1.488     5.75     825.6988     55.16431      145.029        12     1.378     0.675 -48.10   0
       640    675.9400     34.8908 307.6521104  +6.6824686     1673.627     2732.273     2346.792     78.32555     156.5267     313.0223      1.665     4.59     829.4967     55.16431     242.7434        18     1.430     0.834 -47.36   0
       641    241.7579     29.9080 307.8326844  +6.6699612     688.3289     1209.841     1583.631     78.44978     156.5267     313.0534      1.820     5.62     840.1129     55.16431      124.068         7     1.312     0.721 -54.34   0
       642    187.3258     30.5300 307.8552795  +6.6678738     757.2332     1166.682     731.0658     78.57381     156.6511      312.929      1.651     4.82     840.1503     55.16431     106.3391         9     1.249     0.526 -52.30   0
       643    164.0938     27.7747 307.8650254  +6.6682298     10316.51     16500.16     16835.78     78.57381     156.2777     312.8045      1.711     3.99     840.1568     55.16431     1318.068        43     1.654     1.087 -50.95   0
       644    909.7327     25.5467 307.5552781  +6.6941424     4012.834     6525.341     7169.342     78.44978     156.4645     312.8668      1.767     3.99     825.8074     55.16431     545.7224        29     1.546     1.015 -54.43   0
       645    508.2713     25.9091 307.7220821  +6.6805605     2722.951     4345.394     5051.459     78.32555     156.7133     312.9601      1.752     4.03     830.2127     55.16431     397.2875        22     1.425     0.906 -52.17   0
       646    710.5943     24.0786 307.6380750  +6.6880928     2021.239     3196.734     3334.508      78.0765     156.0282     312.7422      1.714     4.21     829.1741     55.16431     282.9799        21     1.350     0.991 -60.73   0
       647    446.6527     24.2825 307.7477402  +6.6791655     1845.699     2899.541     2892.228     78.44978     156.5267     312.9912      1.622     3.89     833.6323     55.16431     284.8275        17     1.351     0.773 -51.04   0
       648    974.3527     21.8371 307.5285511  +6.6978310     1966.739     3127.903     3521.176     78.32555     156.5267     312.8979      1.729     4.31     822.4825     55.16431     314.0842        17     1.430     0.818 -55.83   0
       649    806.0128     23.1662 307.5984569  +6.6916605     378.0241      492.168     485.0876     77.95168     156.2777     312.8356      1.310     3.93     826.9874     55.16431       70.948         5     0.851     0.521  58.39   0
       650    717.5094   1021.2231 307.6016560  +6.2765778     882.1784     1406.935     1139.818     78.44978     152.6846     271.3636      1.573     5.14     862.1341     55.16431      118.206        11     1.260     0.740 -52.49  16
       651    348.1290   1019.7578 307.7550652  +6.2648105     1674.835     2811.871     3356.261     78.32555     156.5267     289.3219      1.919     4.64     863.0744     55.16431     219.8031        20     1.451     0.896 -51.38  16
       652    735.2104   1009.2067 307.5947106  +6.2821314     7279.391     12155.46     13038.99     77.95168       156.34     312.8668      1.788     3.89     861.2881     55.16431     991.2353        36     1.588     1.080 -46.83   0
       653    530.5920   1009.7021 307.6796494  +6.2750799     4094.344     6813.408      7625.09     78.20113      156.153     312.7422      1.811     4.18     862.6577     55.16431     586.4031        33     1.645     1.022 -54.64   0
       654    501.0957   1010.5812 307.6918662  +6.2737287      1108.98     1622.882     1648.728     78.32555     156.4023     312.7422      1.768     5.20     862.6253     55.16431     156.2053        15     1.395     0.752 -50.81   0
       655    369.9760     15.1586 307.7799082  +6.6803593     595.3318     761.7877      644.273      78.0765       156.34     312.7422      1.371     3.70     837.7504     55.16431     105.8763         6     0.911     0.463 -35.72   0
       656    280.9698   1008.3072 307.7833343  +6.2672844     14225.15     23432.66     26205.83     78.57381     156.2777     312.8979      1.813     4.35     862.4769     55.16431     1991.838        57     2.029     1.103 -43.19   0
       657    404.8903   1009.2206 307.7318547  +6.2710656      1003.76     1552.757     860.8098     78.32555       156.34     312.8356      1.692     5.66     862.6897     55.16431     168.6754        12     1.126     0.803 -53.15   0
       658    796.5353   1008.6183 307.5692685  +6.2844238     1126.479     1712.784     1996.157     78.07651     156.5267     312.8045      1.678     5.29     859.2502     55.16431     133.6897        15     1.140     0.943 -42.24   0
       659    252.1485   1006.1473 307.7953730  +6.2672083     911.9074     1349.231     1536.759     78.57381     156.4023     312.9912      1.565     5.26     861.7184     55.16431     131.1701         9     1.217     0.641 -67.52   0
       660    896.5861   1002.6392 307.5279281  +6.2902336     8039.671     13649.95     14738.62     77.95168       156.34     312.7111      1.819     3.95     858.4028     55.16431     988.2572        44     1.649     1.207 -48.71   0
       661    527.8656   1001.9772 307.6810415  +6.2781783     7918.553     12841.73     14038.86      78.0765     156.5267     312.8356      1.698     3.86     862.5895     55.16431     1189.448        38     1.647     1.016 -47.60   0
       662    870.2126    998.8541 307.5390055  +6.2909163     11205.21     19610.26     21608.25     77.82666     156.4645     312.6799      1.890     4.17     858.4828     55.16431     1381.244        54     1.728     1.316 -34.78   0
       663    991.8148    998.3546 307.4885324  +6.2951797     4215.622     7837.087     8653.971     77.82666       156.34     312.7422      1.998     4.22     854.3184     55.16431     517.8408        42     1.758     1.291 -34.80   0
       664    582.9402    999.1483 307.6582704  +6.2811908     1292.127     2264.037     2410.693     78.44978     156.4645     312.9601      2.008     4.11     862.6178     55.16431     216.6012        17     1.279     0.964 -61.28   0
       665    623.7036    996.9315 307.6414203  +6.2834706     1244.236      1980.43     2100.065     78.32555     156.6511     312.9912      1.614     4.83     862.5726     55.16431     211.7122        15     1.482     0.720 -61.02   0
       666    514.2096    997.7395 307.6868541  +6.2794707      4001.18      6490.73     7719.807     77.82666     156.4023       312.68      1.834     3.75     862.5521     55.16431     568.8274        29     1.574     1.152 -33.72   2
       667     49.1898    996.1948 307.8799709  +6.2644944     812.9149     1207.832     1018.536     77.95168     156.2777     312.8356      1.469     4.24     859.4683     55.16431     113.0571        10     1.255     0.790 -55.26   0
       668    779.3656    995.4152 307.5768408  +6.2893021     645.6555     781.2889     911.2153     78.07651     156.2777     312.8356      1.484     4.19     859.6009     55.16431     103.1229         5     1.002     0.499 -39.91   0
