#   1 NUMBER                 Running object number                                     
#   2 X_IMAGE                Object position along x                                    [pixel]
#   3 Y_IMAGE                Object position along y                                    [pixel]
#   4 ALPHA_J2000            Right ascension of barycenter (J2000)                      [deg]
#   5 DELTA_J2000            Declination of barycenter (J2000)                          [deg]
#   6 FLUX_APER              Flux vector within fixed circular aperture(s)              [count]
#   9 FLUXERR_APER           RMS error vector for aperture flux(es)                     [count]
#  12 FLUX_RADIUS            Fraction-of-light radii                                    [pixel]
#  13 FWHM_IMAGE             FWHM assuming a gaussian core                              [pixel]
#  14 BACKGROUND             Background at centroid position                            [count]
#  15 THRESHOLD              Detection threshold above background                       [count]
#  16 FLUX_MAX               Peak flux above background                                 [count]
#  17 ISOAREA_IMAGE          Isophotal area above Analysis threshold                    [pixel**2]
#  18 A_IMAGE                Profile RMS along major axis                               [pixel]
#  19 B_IMAGE                Profile RMS along minor axis                               [pixel]
#  20 THETA_IMAGE            Position angle (CCW/x)                                     [deg]
#  21 FLAGS                  Extraction flags                                          
         1    432.9634     25.8324 307.7559437  +6.6695932     11091.56     30080.47      34953.9     91.75789     183.6623     367.5076      2.571     6.09     1184.585     64.83078     1055.601        79     2.077     1.856 -86.11   0
         2    253.7001     26.2959 307.8304854  +6.6634098     4600.085     12343.51     14676.82     92.19658      184.539     367.6174      2.738     6.54     1205.495     64.83078     463.4069        56     1.928     1.764 -82.00   0
         3    613.8557     24.1258 307.6807644  +6.6763330     1786.669     4588.791      6566.34     92.05058     183.8087     367.7271      2.887     8.54     1176.642     64.83078     208.7633        39     2.180     1.486  79.46   0
         4    241.3626     22.7942 307.8357353  +6.6644431     1444.876     3924.156     5040.347     91.16969     183.6623     367.5076      2.811     8.17     1206.124     64.83078     202.9095        32     1.804     1.423 -76.38   0
         5    930.5605     16.2078 307.5493023  +6.6901418     705.3713     1641.917     1496.318     91.46426     183.6623      367.471      2.211     5.49     1166.262     64.83078     109.7076         7     1.206     0.704 -84.56   0
         6    682.6957     15.5506 307.6524212  +6.6821682     989.4503      2332.61     2136.117     92.05058     183.8087     367.9831      2.195     7.96     1174.932     64.83078     119.9292        14     1.463     1.211  20.72   0
         7    171.0102      8.3419 307.8654849  +6.6680566     5340.499     14135.73     16290.65     91.46426     183.8819     367.1415      2.512     6.11     1208.229     64.83078     564.8594        62     2.071     1.738  83.68  16
         8    916.4926      5.9233 307.5555000  +6.6939218     2957.003     6098.919     6072.057     91.90435     184.1742     348.0344      2.075     4.97     1165.875     64.83078     327.0349        35     1.566     1.370 -87.10  16
         9    515.1059      6.1349 307.7224448  +6.6804698      1463.69     3892.719     4398.503     92.19657     184.1012     350.4606      2.557     9.57     1178.222     64.83078     143.1635        32     1.816     1.409  47.79  16
        10    717.0327      4.4935 307.6385121  +6.6878781     1120.073     2501.167     2732.631     92.34234     183.8087     329.8607      2.273     7.22     1172.233     64.83078     134.8291        16     1.633     0.895  62.74  16
        11    453.9770      5.0905 307.7479051  +6.6788609     1041.569     2323.906     3097.601     92.19658     183.7355     337.7578      2.671     7.56     1182.124     64.83078      136.906        15     1.365     1.171  -3.95  16
        12    981.1005      2.1472 307.5287534  +6.6976272      1379.16      2126.07     2177.329     89.98177     159.8575     292.1042      1.617     5.26      1160.21     64.83078     162.6212        14     1.126     0.955 -34.14  24
        13    700.7630      1.3479 307.6453854  +6.6886355         1482     1883.272     2424.104     80.01285     146.1442     276.9299      1.245     4.68     1173.039     64.83078     304.9596        10     1.308     0.476   0.94  24
        14    432.1709   1002.9797 307.7232560  +6.2660141     607.0554     1026.911     889.8887      91.6112     183.7355      367.654      1.853     5.27      1247.04     64.83078     77.23853         6     1.149     0.683 -89.49   0
        15    785.7369   1022.0169 307.5756732  +6.2699280     6567.234     10033.88     10985.28      91.6112     171.3104     306.3088      1.634     3.47     1239.629     64.83078     805.2953        31     1.290     1.189  83.60  24
        16    574.8085   1023.7154 307.6632774  +6.2622061     58075.07     72450.97     74587.69     78.99784     145.1283     275.5179      1.188     3.05     1246.302     64.83078     13384.52        29     1.484     0.628   2.52  27
        17    576.5320   1018.2094 307.6627467  +6.2645375     62466.18       112218     121521.9      91.6112     183.7355     357.0005      1.927     4.12     1245.978     64.83078     6967.635        86     1.743     1.524 -83.31  19
        18    355.6400    999.9424 307.7551639  +6.2647141     1708.026     2965.763     3062.603     92.19657     184.0281     367.8369      1.908     4.99     1248.038     64.83078     196.7427        20     1.341     1.084 -73.46   0
        19    724.5690   1000.7278 307.6018114  +6.2766860     841.6466     1160.026     1103.422     92.05058      183.955     367.8003      1.343     4.62     1241.439     64.83078     121.5782         8     1.061     0.572 -19.52   0
        20    742.3782    989.2127 307.5947974  +6.2820342      7100.25     12001.77     12812.15     91.90435     183.7355     367.6906      1.802     3.68     1240.555     64.83078     797.5085        39     1.535     1.242  86.22   0
        21    537.8845    990.0567 307.6797579  +6.2748766     3536.171     6694.343     7323.676     92.19658      183.955       367.91      2.021     4.38     1245.933     64.83078     422.8051        34     1.587     1.243 -85.55   3
        22    535.1006    982.1014 307.6811832  +6.2780693     6683.329     12165.34     13588.38     92.19658     184.3931     367.6174      1.984     4.03     1245.623     64.83078     737.9487        41     1.526     1.372  79.70   2
        23    508.2971    991.2221 307.6920151  +6.2734089     802.3315     1366.101     553.5575     92.05058     183.7355     367.5808      1.655     4.39     1246.438     64.83078     126.7679         7     1.140     0.481  58.10   0
        24    288.1469    988.8254 307.7835889  +6.2670509     11795.03     22204.12     24094.29     91.61119     184.0281     367.6906      2.004     4.01     1250.111     64.83078     1436.783        60     1.680     1.523 -80.81   2
        25    293.5034    985.4409 307.7814773  +6.2686276     639.3273     1064.071     1607.537     92.19658     183.8087     367.9831      1.653     3.54     1249.886     64.83078       114.37         5     0.781     0.463 -72.44   3
        26    412.6132    989.2968 307.7318460  +6.2710124     908.5912     1781.251     1927.344     92.05058     183.6623     367.5076      1.896     6.91     1247.011     64.83078      125.884        12     1.579     0.848 -79.65   0
        27    803.7135    988.7261 307.5693220  +6.2842748     973.2313     1590.004      1814.67     92.34235     184.3202     367.8003      1.856     5.60     1238.059     64.83078     130.4243        11     1.252     0.707  88.13   0
        28    903.7284    982.6891 307.5279570  +6.2900914     8725.574     13589.94     13952.36     92.19658     184.2472     367.8003      1.688     3.51     1236.048     64.83078      1088.95        37     1.409     1.236 -86.10   0
        29     34.2140    981.9055 307.8893524  +6.2614136     645.3099     972.0156     1037.288     91.90435     183.6623     367.6174      1.680     4.64     1250.635     64.83078      89.8761         5     0.957     0.639 -60.24   0
        30    877.3354    978.8028 307.5390571  +6.2908198     11737.27     19392.39     20546.22     91.46426     183.7355     367.5442      1.788     3.39     1236.532     64.83078     1460.441        53     1.548     1.414 -59.54   0
        31    999.0366    978.2756 307.4884930  +6.2950779     5085.324     7705.342     7899.103     92.05058     184.0281     367.8369      1.603     3.47     1232.151     64.83078     683.2666        27     1.322     1.056  82.07   0
        32    590.2247    979.0461 307.6583763  +6.2811680       1113.5     1954.687     1727.116     91.75789      183.955      367.654      1.881     6.63     1243.917     64.83078     131.9209        14     1.204     1.025  68.33   0
        33    521.4100    978.0831 307.6870086  +6.2792725     3278.804     6204.509     7108.992     91.75789     183.6623     367.6174      2.041     4.30     1245.665     64.83078      395.261        31     1.511     1.228  69.60   0
        34    631.3022    977.1926 307.6413666  +6.2833017     1081.126     1790.133      2079.68     91.90435     183.5158     367.5442      2.022     5.61     1242.384     64.83078     151.6534        12     1.368     0.717  73.88   0
        35    474.4985    974.1440 307.7066381  +6.2793350     1682.983     3090.187      2713.39     91.90435      183.955     368.0562      1.944     5.62      1246.21     64.83078     173.6809        24     1.366     1.287 -48.34   0
        36    909.0685    966.3629 307.5262862  +6.2970115     41921.63     67030.32     70656.98     92.05058      183.955       367.91      1.731     3.46     1234.515     64.83078     5391.244        71     1.589     1.315 -86.50   0
        37    216.6577    964.8442 307.8141102  +6.2745653     1380.708     2507.272     2374.356     92.05058      183.955     367.8734      1.907     6.63     1250.071     64.83078     151.6598        17     1.300     1.110 -56.12   0
        38    615.8080    962.9891 307.6482849  +6.2886517      687.527     1084.078     887.1429     91.75789     183.7355     367.7271      1.673     3.93     1242.414     64.83078      88.6488         6     0.966     0.458  52.00   0
        39    806.9924    960.1234 307.5689214  +6.2961968     2257.724      3267.53     3735.171     91.75789     183.3691     367.5808      1.536     3.47     1237.269     64.83078     271.9031        18     1.094     1.028  89.25   0
        40    755.1516    958.0756 307.5905366  +6.2953188     5825.766     10300.56     11371.09     92.05058     184.0281     367.8369      1.934     3.98     1238.651     64.83078      639.571        37     1.524     1.286 -73.26   0
        41    224.6176    957.0969 307.8110642  +6.2780310     1123.146     2242.975     2361.809     92.05058     183.7355     367.5442      2.170     7.38     1250.018     64.83078     143.9601        16     1.426     1.068  84.02   0
        42    189.2161    959.2372 307.8257044  +6.2759633     392.9184     1009.946     1544.476     91.75789     183.7355     367.5076      3.341     5.44     1250.115     64.83078      125.501         5     1.543     0.541 -49.49   2
        43    540.8843    957.5469 307.6796076  +6.2884029     605.6249     1046.173      1367.41     92.19657     183.8819     367.9831      2.311     5.13     1244.459     64.83078     90.94958         5     1.016     0.731 -84.33   0
        44     49.8002    955.4567 307.8837716  +6.2728585     2387.706     4250.228     4460.626      91.3171     183.5158     367.4344      1.866     4.43     1250.409     64.83078     300.5593        23     1.461     1.017  77.56   0
        45    943.4256    953.0642 307.5124533  +6.3036447     6797.575     10719.18     10954.69     91.75789      183.955     367.7271      1.683     3.51     1232.361     64.83078     862.4449        32     1.378     1.132 -84.74   0
        46    917.0942    944.7749 307.5236760  +6.3061940     1973.291     3402.229     3976.232     92.34234     183.6623     367.6174      1.982     3.97     1232.616     64.83078     294.4442        21     1.354     1.018 -83.87   0
        47    637.7737    940.8951 307.6399001  +6.2985080      3649.04      6722.16     6377.581     92.34234     183.6623      367.654      1.938     4.20     1240.748     64.83078     442.5845        32     1.490     1.274 -87.90   0
        48    250.1713    941.4695 307.8009729  +6.2853392     3366.535     6451.909     6650.532     91.90435      183.955     367.7271      1.978     4.63     1249.667     64.83078     391.1727        31     1.460     1.341  71.26   0
        49    776.3371    940.8585 307.5823108  +6.3031341      1096.18     1795.153     1669.359     92.34234     183.8819     367.8369      1.813     6.38     1237.536     64.83078     140.1692        12     1.199     0.953 -64.25   0
        50     19.0285    938.8375 307.8971231  +6.2786911     1775.456     3178.277     3441.272      91.6112     183.6623     367.6174      1.878     4.70     1250.465     64.83078     231.9321        21     1.451     1.022  54.98   0
        51    987.2042    940.1526 307.4946910  +6.3104304     725.4689     991.3333      1743.49     91.46426     183.6623     367.4344      2.035     4.63     1229.429     64.83078     86.96326         7     1.030     0.590 -14.19   0
        52    460.8056    938.7646 307.7135232  +6.2934898     921.3755     1521.536     1590.769      91.3171     183.6623     367.5442      1.709     3.36      1245.34     64.83078     139.8307         7     0.979     0.593  74.24   0
        53    870.1344    937.4597 307.5434400  +6.3076555     812.2118     1408.975     1822.271     92.34234     183.8819     367.8369      1.892     4.30     1233.058     64.83078     134.2146         7     0.913     0.577 -84.41   0
        54    562.8060    933.4565 307.6713091  +6.2990828     1259.993     2208.862     1822.978      91.6112     183.8087      367.471      1.841     5.18     1242.771     64.83078      150.687        15     1.131     1.096   0.69   0
        55    994.0721    933.0961 307.4920734  +6.3135727     958.9598     1714.212     2195.476     91.90435     184.1012     367.7637      2.031     4.56     1228.533     64.83078     125.5334         7     0.954     0.620 -76.49   0
        56    601.9343    929.5066 307.6551797  +6.3020178     1076.496      1722.25     1832.486     92.19657     184.1742     367.8003      1.797     4.64     1241.554     64.83078     141.8082        10     1.086     0.838 -40.17   0
        57    281.5307    927.8375 307.7884009  +6.2920171     1204.347     2413.899     3732.365     92.05058      183.955       367.91      2.515     6.22     1249.107     64.83078     154.5001        16     1.268     1.203 -73.78   0
        58    748.6345    922.6614 307.5944374  +6.3097282     648.3444     1388.597     1649.062     92.05058     184.0281     367.7637      2.112     4.12     1236.995     64.83078     95.41675         6     0.886     0.546 -43.88   0
        59    886.0239    920.0068 307.5374224  +6.3153914     6594.294     10887.82     11824.06      91.6112     183.7355     367.6174      1.773     3.69     1231.721     64.83078      810.957        34     1.448     1.200  77.35   0
        60    422.1465    917.3737 307.7303128  +6.3010343     1520.159     3046.025     2455.438     91.90435     184.1012     367.6906      2.046     5.24     1246.141     64.83078     184.2579        22     1.378     1.183  58.91   0
        61    323.7559    915.8834 307.7712558  +6.2983648     6853.427     13641.16     14813.17     92.19657      183.955     367.8003      2.118     4.48     1248.468     64.83078     777.7759        50     1.703     1.521 -86.59   0
        62    243.8830    914.8895 307.8044855  +6.2961062     5360.775     10624.65     11769.96     91.90435     184.2472     367.8734      2.076     4.43     1249.479     64.83078     587.2799        41     1.619     1.404  87.48   0
        63    572.2396    908.6068 307.6682263  +6.3096600     932.1684     1445.515     1304.192     91.46426     183.5891      367.471      1.671     5.32     1241.267     64.83078     125.4912         9     1.001     0.799  82.43   0
        64    901.7044    905.3496 307.5313976  +6.3219658      884.402     1442.848     1564.693     92.05058     183.8819     368.0196      1.752     6.25     1230.784     64.83078     113.2391         8     1.157     0.948 -21.40   0
        65    738.2864    897.9844 307.5995691  +6.3195756     1420.346     2455.004     2906.118     91.75789     183.6623     367.6906      1.977     5.03     1235.218     64.83078     158.8125        20     1.448     1.015 -69.93   0
        66    969.4434    894.0477 307.5036217  +6.3288826     1229.908     1995.637     3665.431     92.19657     183.8819     367.7271      2.402     4.37     1227.946     64.83078      150.576        12     1.033     0.875  52.11   0
        67    656.6231    891.8776 307.6337174  +6.3193798     2070.885     3863.064      3309.66     91.75789     183.7355     367.7271      1.937     4.60     1238.134     64.83078     248.6049        24     1.291     1.256 -20.29   0
        68    523.3714    892.9468 307.6890656  +6.3144988     694.7657     1481.424      1879.45     91.90435     184.1012     367.6906      2.200     5.87     1242.007     64.83078     82.61877         9     1.340     0.724  57.37   0
        69     71.3361    887.6140 307.8771207  +6.3015974     1380.181     2580.762      2602.57      91.6112     183.7355      367.654      1.965     5.56     1249.626     64.83078     187.0741        19     1.458     1.073 -89.17   0
        70     53.5738    888.1816 307.8844835  +6.3007681     2261.975     4147.888     4432.607     91.75789     183.7355     367.6906      1.913     5.19     1249.668     64.83078     270.5862        22     1.456     1.047  76.77   0
        71    817.0226    887.9223 307.5671814  +6.3263496     826.8624     1057.931     516.8384     91.75789     183.7355     367.7271      1.440     4.88     1233.182     64.83078     102.4963         8     0.857     0.787   4.87   0
        72    197.3980    886.9015 307.8247523  +6.3061105     1705.553     3242.089     3709.153     91.61119     183.6623     367.4344      2.099     5.47     1249.611     64.83078     200.9642        21     1.370     1.155 -87.06   0
        73    934.8516    887.2744 307.5182275  +6.3305317     861.3576     1360.632     1166.274     92.19658     184.0281     367.8369      1.690     5.56     1228.984     64.83078      118.116         8     1.079     0.807 -16.20   0
        74    953.4921    884.1547 307.5105842  +6.3324390     562.4135     652.7095     697.5981     92.19658     183.8819     367.9465      1.331     4.36     1228.167     64.83078     102.8702         5     0.913     0.593  48.22   0
        75    651.2718    880.8584 307.6363130  +6.3237526     5411.304     10463.23     11042.91     92.34234      183.955     367.8003      2.039     4.44     1237.808     64.83078     608.1864        39     1.584     1.371 -68.11   0
        76    337.0248    882.6743 307.7668636  +6.3125230      653.433     1296.161     1317.887     91.75789     183.7355     367.7271      1.952     3.41     1248.184     64.83078     132.4838         5     1.001     0.337  43.66   0
        77    789.2280    880.6928 307.5789775  +6.3284113     555.7448     975.3636     1595.585     92.34235     183.6623      367.654      1.336     3.44     1233.382     64.83078     111.7483         5     1.234     0.277  34.56   0
        78     11.7391    878.5986 307.9021950  +6.3033243     869.2047     1531.186     1560.169     91.46426     183.7355      367.471      1.826     5.39     1249.617     64.83078      134.496         9     1.303     0.628  58.98   0
        79    888.8893    876.8616 307.5376818  +6.3333058     2454.872     4159.797     4190.345     92.19657     184.1012     367.8734      1.769     4.08      1230.23     64.83078     336.9983        27     1.535     1.071  87.89   0
        80     24.4287    878.1771 307.8969355  +6.3039235     801.3292     1558.761     1475.187      91.6112     183.7355     367.6174      1.912     4.16     1249.583     64.83078     98.44946         6     1.496     0.330   7.57   0
        81    334.4879    874.1110 307.7682074  +6.3159749     11591.91     23537.42     25788.95     91.90435      184.539       367.91      2.133     4.50     1248.196     64.83078      1244.78        60     1.747     1.571  86.97   0
        82     69.4445    875.6891 307.8783109  +6.3064588     1039.873     1602.278     2020.932     92.19658     183.8087     367.8369      1.915     6.38     1249.499     64.83078     146.3685        10     1.337     0.888 -78.52   0
        83    205.9705    873.9482 307.8216278  +6.3117467     742.0982     1432.371     1737.876     91.90435     184.1012     367.6906      2.072     4.84     1249.374     64.83078     105.7842         7     1.268     0.524 -25.99   0
        84     97.8230    865.0338 307.8668776  +6.3118095     1352.149     2466.307     2228.182      91.6112     183.7355     367.5442      1.855     4.72     1249.386     64.83078     180.8322        18     1.219     1.037  55.05   0
        85    412.7544    864.8544 307.7359902  +6.3224110     824.1599         1296      1450.48     92.19658      183.955     367.8003      1.666     4.31     1243.929     64.83078     134.2328         6     0.807     0.656  -5.27   0
        86    879.2764    858.3320 307.5423005  +6.3406393     1739.122      2829.72     2132.367     92.34235     184.1012     367.7637      1.707     4.56     1229.806     64.83078     207.6576        19     1.467     0.904  63.85   0
        87    850.1842    858.3180 307.5543934  +6.3396784     1747.939      3031.54     3217.925     91.75789     183.5891      367.654      1.855     4.70     1230.683     64.83078     221.8898        19     1.289     1.019  79.35   0
        88     81.5005    858.4481 307.8738846  +6.3139828      1883.51      3743.25     4036.095     92.19658     183.8087     368.0196      2.147     4.89     1249.264     64.83078     254.2268        24     1.477     1.163 -80.65   0
        89    813.4868    857.6156 307.5696707  +6.3387488     2419.295     4184.906     4512.879     91.75789     183.6623     367.6906      1.831     4.15     1231.369     64.83078     278.1002        24     1.258     1.237  75.21   0
        90    549.5144    849.1904 307.6796757  +6.3334415     235754.5     476928.3     522360.4     91.75789     183.5891     367.6174      2.126     4.49      1238.63     64.83078      23191.5       170     1.908     1.718 -87.17   0
        91    393.7595    851.8956 307.7443229  +6.3271288     5421.994     11190.57     12109.19     92.19657     183.8819     367.9831      2.157     4.78     1244.605     64.83078     513.9888        45     1.638     1.506 -82.75   0
        92    337.0568    850.3043 307.7679445  +6.3258926     8702.778     18372.36     19754.23     92.05058      183.955     368.0562      2.167     4.76      1247.39     64.83078      889.531        54     1.693     1.588  79.53   0
        93    636.9501    851.4467 307.6432569  +6.3354227     1037.965      1716.11      1718.32     92.19657     183.8087     367.8734      1.805     5.51     1236.073     64.83078     121.8706        12     1.119     0.830  26.80   0
        94    655.4426    846.4759 307.6357380  +6.3380914      2643.02     5171.335     5221.971     92.05058      183.955     367.8369      2.070     5.28      1235.19     64.83078     281.6058        30     1.483     1.349  86.85   0
        95    887.5386    845.2086 307.5393074  +6.3463338     4522.909     8026.251     8934.516     91.46426     183.8087     367.5442      1.932     3.95     1228.576     64.83078     521.8545        38     1.806     1.425   3.31   0
        96    726.7639    842.6432 307.6062218  +6.3420482     687.6412      1393.17     1030.371     91.90435     183.8819     367.6174      1.803     4.86     1231.942     64.83078     98.32092         6     1.186     0.563 -26.10   0
        97    629.9293    840.5453 307.6465426  +6.3396912     2407.563     4897.827     5362.467     92.05058     183.8819     367.7637      2.132     4.92     1235.359     64.83078     280.5571        30     1.586     1.239 -66.88   0
        98   1021.1576    839.2775 307.4839654  +6.3532191     4333.443      6937.15     6732.707     92.05058     180.4859     320.4294      1.710     3.57     1223.879     64.83078     574.5157        28     1.348     1.121 -73.67  24
        99    818.4349    839.6525 307.5682183  +6.3463321     1385.188     2533.771     2560.433     92.05058      183.955     367.6906      1.927     6.12     1230.134     64.83078     153.9076        16     1.414     0.905 -58.75   0
       100    946.3036    839.0999 307.5150860  +6.3508083     653.0991     1160.531     1513.624     92.19658      184.539     367.6174      2.766     6.04     1225.693     64.83078     98.62244         7     1.423     0.721 -32.43   0
       101    622.8340    835.0007 307.6496787  +6.3417448     1258.838     3044.628      4386.54     91.16969     183.7355     367.5076      2.767     8.71     1235.049     64.83078     145.0981        23     1.736     1.221 -65.06   2
       102    906.6402    833.0894 307.5317749  +6.3519736     2842.103     4915.803     4874.484     92.19658      183.955     367.8369      1.825     4.05     1226.784     64.83078     313.9891        27     1.336     1.235 -83.38   0
       103    317.4681    833.6887 307.7766480  +6.3321004     821.0009     1591.294     2180.164     92.34235     184.1742     367.7637      2.113     7.44     1247.374     64.83078     102.2866        14     1.510     1.027  54.32   0
       104    364.9222    829.1792 307.7570765  +6.3355477     1617.334     3488.929     3324.888     91.75789     183.6623     367.7637      2.133     6.17     1245.054     64.83078     203.9598        24     1.530     1.203 -62.56   0
       105    501.0817    819.0826 307.7008227  +6.3442612     1952.149     4280.012      4692.65     91.90435     184.2472       367.91      2.226     6.41     1238.761     64.83078     210.9781        31     1.690     1.306 -73.55   0
       106    845.2340    818.0885 307.5578041  +6.3561289     1009.982     1533.223     1786.975     92.34234     183.8819     367.8003      1.734     4.78     1228.425     64.83078     146.5999         8     1.017     0.638  78.95   0
       107    554.5849    814.4926 307.6787386  +6.3479406     781.0623     2043.204     3085.494     91.90435     183.7355     367.5808      3.475     7.48     1236.326     64.83078     120.6882        12     2.068     0.758 -74.40   0
       108    547.9357    814.9381 307.6814873  +6.3475350     3993.706     8501.299     10108.99     92.19658      183.955     367.8369      2.268     4.97     1236.702     64.83078     451.0338        40     1.619     1.462  88.57   0
       109    565.3901    815.3411 307.6742187  +6.3479503     666.4271     1214.807     1787.553     91.46426     183.8087      367.471      2.218     5.27     1235.936     64.83078     86.91663         5     1.053     0.747  65.46   0
       110    465.6884    814.1061 307.7157021  +6.3451360     1161.816     2237.716     1990.025     92.19658     184.4661     367.8734      1.939     7.61     1239.782     64.83078      147.144        17     1.302     1.246 -28.22   0
       111    883.6555    813.0583 307.5420025  +6.3594830      1144.66      2105.16     1130.451     92.34234      183.955     367.8003      1.872     6.75     1226.745     64.83078     144.7356        15     1.300     1.167  -1.44   0
       112    108.0907    813.0109 307.8643727  +6.3336378     926.0285     1550.035     1570.148     91.90435     183.5891     367.5808      1.638     4.03     1248.618     64.83078     158.7354         6     0.772     0.600  50.49   1
       113    518.5933    808.8956 307.6938877  +6.3490523     13085.59     27680.52     30089.45     91.90435     183.5891     367.5808      2.191     4.68     1237.415     64.83078     1363.491        60     1.791     1.560 -81.69   0
       114    931.9855    807.0270 307.5221155  +6.3635791     3224.492      5760.06     6075.356     91.75789     183.8087     367.6906      1.852     4.29     1223.447     64.83078     392.4885        27     1.406     1.162 -66.73   0
       115     29.7736    799.4288 307.8973841  +6.3366241     1127.584     1797.564     1466.387      91.6112     183.7355      367.654      1.727     4.87     1248.272     64.83078     192.7339        13     1.399     0.775  51.27   0
       116    311.4361    797.7632 307.7803699  +6.3467357     2167.603     4698.171     4706.826     91.90435     183.8087     367.5442      2.183     5.50     1246.502     64.83078     233.6726        31     1.527     1.329  62.64   0
       117    776.7002    793.3091 307.5871258  +6.3640844     42080.83     79456.51     84926.04     92.19658     184.3931     367.7637      2.005     4.22      1227.68     64.83078     4358.218        80     1.728     1.536 -78.32   0
       118     11.6060    795.8162 307.9050576  +6.3375073     1548.571     3019.381     3427.885     91.75789     183.6623     367.6174      2.075     5.07      1248.11     64.83078       186.58        18     1.369     0.976  88.70   0
       119    233.5342    770.1157 307.8136853  +6.3555500     776079.9      2386450      2792646     92.34234     184.2472     367.8734      2.721     4.69     1247.166     64.83078      63063.9       615     2.834     2.191  85.75   4
       120    704.8251    787.7736 307.6171890  +6.3639794     15225.17     31104.32     35024.13     91.61119     183.7355     367.6174      2.150     4.59     1228.697     64.83078     1576.116        56     1.751     1.511 -75.37   3
       121    698.6632    784.4739 307.6198616  +6.3651371     62863.15     125699.7     138333.6     92.48788      183.955     367.7637      2.127     4.52     1228.604     64.83078     6146.042        99     1.858     1.656 -79.69   3
       122    343.6658    785.5320 307.7673870  +6.3528637     13317.92     29190.76     32475.05     92.19658     184.0281     367.8369      2.260     5.01     1243.753     64.83078      1372.27        69     1.872     1.652  86.28   0
       123    405.5103    783.3821 307.7417534  +6.3558167     14247.73      31271.3     34707.73     91.90435     183.6623     367.6906      2.253     4.96     1240.825     64.83078     1453.302        64     1.821     1.636  89.74   0
       124    393.5275    785.3672 307.7466671  +6.3545968     877.1174     1651.128     1849.858     92.05058      183.955     367.8003      1.913     6.87     1241.439     64.83078     99.59961        10     1.313     1.008  75.58   0
       125    942.5258    782.2189 307.5185677  +6.3741750     1788.395     3117.207     3561.693     91.75789     183.8819     367.7271      2.019     4.79     1222.083     64.83078     218.0853        22     1.495     0.996 -80.21   0
       126    898.8514    779.9337 307.5367995  +6.3736685     5502.173     9963.051     10682.31     92.05058     183.8819     367.8003      1.927     4.14     1223.736     64.83078     639.2577        37     1.532     1.283  85.48   0
       127    639.3467    779.0416 307.6447011  +6.3654058     4496.599     9133.677     10185.62     92.19657     184.0281     367.8369      2.121     4.67     1230.401     64.83078     480.9384        44     1.634     1.534  81.52   0
       128    901.9581    788.4190 307.5352228  +6.3702672     7086.041     12633.92        13547     91.61119     183.7355     367.5442      1.914     4.14     1224.051     64.83078     772.9017        42     1.584     1.293 -84.25   0
       129    428.3672    776.5161 307.7324845  +6.3594152     1186.088     2155.062     2003.447     92.19658     183.7355     367.7271      1.907     6.75     1239.465     64.83078     125.9218        16     1.364     0.938  63.06   0
       130    674.7981    769.3024 307.6302929  +6.3706085     1697.921     3728.358     4032.196      91.6112     183.6623     367.4344      2.261     5.87     1228.654     64.83078     202.2861        28     1.587     1.267 -66.60   0
       131    408.4606    766.0135 307.7411138  +6.3630883     32964.12     74404.56     82899.33     91.61119     183.8087      367.471      2.287     5.04     1239.795     64.83078     3345.996        87     1.882     1.751 -87.10   0
       132    526.2217    764.9905 307.6921984  +6.3674394     4499.866     9857.668      10217.4     91.75789     183.6623     367.5808      2.192     5.05     1234.301     64.83078       441.17        48     1.751     1.576 -86.55   0
       133    442.9826    763.3273 307.7268548  +6.3653498     2784.078     6206.359     7639.037     91.61119     183.8819     367.7271      2.399     5.41     1237.913     64.83078      305.014        37     1.691     1.441  75.61   3
       134    440.0276    756.9973 307.7282969  +6.3678654     1421.372     3340.355     3667.546      91.6112     183.6623     367.5808      2.502     8.31     1237.722     64.83078     162.0251        23     1.773     1.141  83.57   3
       135    771.3286    761.3643 307.5904340  +6.3770991     8430.283     16626.16     18219.65     92.05058      183.955     367.8003      2.082     4.46     1225.265     64.83078     875.8763        49     1.679     1.458 -79.64   0
       136    793.3491    755.3912 307.5814813  +6.3802983     953.9899     1793.761     1857.009      91.6112     183.8087     367.4344      2.228     5.54     1224.588     64.83078     134.1871        11     1.172     0.920 -74.62   0
       137    122.1977    744.3108 307.8608368  +6.3624821      1283.36     2499.258     2765.317     91.46426     183.5158     367.5076      2.263     6.18     1246.147     64.83078     182.2499        19     1.464     1.144  26.85   3
       138    129.2311    753.7292 307.8575942  +6.3588278     7589.442     16549.18     19519.59     92.05058      183.955     367.7637      2.326     4.94     1246.644     64.83078     805.2766        57     1.860     1.625  67.00   3
       139    121.9457    750.6644 307.8607262  +6.3598497     2003.105     4937.351     6328.545     92.19657     183.8819     367.7637      2.810     7.22     1246.442     64.83078      231.167        36     1.804     1.566  58.31   3
       140    137.4549    753.8361 307.8541724  +6.3590590     1826.222      4050.54     4325.123     92.05058      183.955     367.8369      2.238     6.73      1246.73     64.83078     219.3411        32     1.684     1.409  65.71   1
       141    965.8259    749.9176 307.5099673  +6.3882892     1378.447     2184.844     2518.901     92.05058     183.6623     367.8003      1.646     5.01     1219.585     64.83078      173.571        18     1.301     1.032  64.45   0
       142    916.7342    749.9865 307.5303725  +6.3866308      5398.34     9454.499      9936.95      91.6112     183.7355     367.6906      1.811     3.94      1221.65     64.83078     616.9307        35     1.430     1.293 -68.94   0
       143    672.2499    747.5468 307.6320853  +6.3795088     1152.305     2656.918     2438.354     92.34235     183.8819     367.8369      2.160     7.93     1228.005     64.83078      122.623        21     1.684     1.125 -19.84   0
       144    559.1065    746.9328 307.6791381  +6.3759934     1269.432     2921.816     3231.477     92.05058     184.1742     367.8369      2.246     7.81     1231.705     64.83078     128.5149        22     1.445     1.181 -49.69   0
       145    407.5117    745.5280 307.7422003  +6.3715170     696.7919     1750.977     2139.705     92.34235     184.2472     367.8369      2.421     5.92     1238.683     64.83078     110.0028         7     1.289     0.764  30.34   0
       146    911.1593    742.0508 307.5329567  +6.3897231     2425.329     4282.341     4511.376     92.19658      183.955     367.7637      1.901     4.22     1221.368     64.83078     297.9055        24     1.317     1.200  81.74   0
       147    940.6539    741.3173 307.5207204  +6.3910055     2364.998     4181.697      3615.25     92.19658      183.955       367.91      1.866     4.38     1220.483     64.83078     254.3561        24     1.359     1.143 -65.48   0
       148    971.2613    741.3315 307.5079963  +6.3920158     1408.623     2413.107     2988.635     92.34235     183.8819     367.8003      2.097     4.43     1218.746     64.83078     175.8787        16     1.159     0.989 -61.38   0
       149    663.3695    741.3912 307.6359842  +6.3817554     948.1711     2232.497     2444.757      91.6112     183.7355     367.5808      2.403     6.51     1227.966     64.83078     104.2897        13     1.336     0.889  56.67   0
       150    810.6526    739.4639 307.5748243  +6.3874517     697.3263     1303.094     1370.528     92.19658     183.8819     367.7637      1.807     4.62     1223.076     64.83078     111.5249         6     0.977     0.778  48.30   0
       151    236.4333    736.6097 307.8136142  +6.3694845     1076.442     2788.984     3606.494      91.6112     183.7355     367.6174      2.956     8.11     1245.837     64.83078     140.3077        21     1.652     1.401 -24.17   0
       152    928.5770    731.2167 307.5260803  +6.3947761     782.4758     1518.879      1352.78     91.90435     183.8087     367.6906      1.900     4.96     1220.403     64.83078     116.8442         8     1.326     0.525 -39.87   0
       153    955.3018    729.2403 307.5150371  +6.3964797     1955.243     3224.135     3724.805     92.19658     183.8087     368.0562      1.822     4.57     1218.765     64.83078     221.3134        20     1.357     0.990 -65.99   0
       154    901.9774    730.1496 307.5371738  +6.3943334      924.085     1555.754     1641.149      91.6112     184.0281     367.6906      1.707     5.32     1220.475     64.83078     141.0916         8     1.139     0.701 -81.35   0
       155    674.0593    728.4861 307.6319754  +6.3874411       587.32     1184.139     1280.213     92.19657      183.955     367.9465      2.248     6.10     1226.756     64.83078      110.968         8     1.521     0.688 -49.33   0
       156    996.7347    722.7837 307.4980299  +6.4005216      1400.18      2233.49     2484.633      91.6112     183.8087     367.6906      1.627     4.94     1216.158     64.83078     207.5646        14     1.279     0.825  78.24   0
       157    798.3013    721.1983 307.5805735  +6.3945848     970.2508     1934.812     1710.931      91.6112     183.6623     367.4344      2.240     4.65     1222.307     64.83078     145.1458         9     0.940     0.813  25.99   0
       158    884.8175    718.3792 307.5447030  +6.3986246     1165.954     2477.847     2769.315     91.90435     183.8087     367.6906      2.143     7.28     1219.485     64.83078     137.6128        16     1.431     1.038  51.55   0
       159    859.6124    713.6739 307.5553393  +6.3997304     786.6103     1320.892     795.3574      91.6112     183.5891     367.5808      1.750     5.70     1219.571     64.83078     109.0918         9     1.088     0.840  85.49   0
       160    841.3450    709.9816 307.5630574  +6.4006483     1134.243     2357.764     2362.905     91.61119      183.955     367.5442      2.151     7.65     1220.015     64.83078       170.27        16     1.533     1.067  60.06   0
       161     41.0865    709.5507 307.8957295  +6.3741210     1658.807     3443.697     3324.352     92.19657     183.8819       367.91      2.211     6.41     1243.775     64.83078     226.9407        22     1.534     1.219  86.69   0
       162    653.3766    697.3298 307.6416232  +6.3996200     4120.763     8763.916     10065.22     91.75789     183.8087     367.7637      2.223     4.83     1225.272     64.83078     451.3544        40     1.600     1.507 -45.12   0
       163    599.8439    696.1548 307.6639166  +6.3983221     911.9875     1624.527     1422.703     92.19657      183.955     367.7637      2.037     4.69     1228.002     64.83078     123.9502         8     0.855     0.729  50.57   0
       164    116.5537    693.6071 307.8649007  +6.3832329     2267.539     5004.333     5036.723      91.6112     183.6623     367.3978      2.228     5.76     1243.226     64.83078     258.6573        35     1.740     1.401 -86.07   0
       165    628.4042    692.6279 307.6521629  +6.4007302     1153.921     2984.843     4125.394      91.6112     183.7355     367.6174      2.737     7.67     1226.469     64.83078     139.3049        17     1.677     0.981  63.78   2
       166    990.1784    692.6614 307.5017674  +6.4127447     2103.652     3701.741      4191.73     91.75789      183.955     367.6906      1.933     4.45     1214.757     64.83078     243.9457        23     1.342     1.187  82.69   0
       167    770.2468    689.4380 307.5933051  +6.4067689     13916.41     28243.22     31093.09     92.05058     183.8819     367.6174      2.137     4.61     1220.739     64.83078     1376.925        63     1.777     1.562 -82.72   0
       168    900.1433    689.0367 307.5393186  +6.4112523     2974.153     5386.164     5954.233     92.19658      183.955     367.8369      1.982     4.41     1216.476     64.83078      353.129        28     1.560     1.162 -89.08   0
       169    469.4656    689.7007 307.7183326  +6.3966408     795.9782     1669.177      1547.67     92.19658     184.1012     367.7637      2.130     7.85     1232.852     64.83078     100.7816        10     1.621     1.064 -47.94   0
       170    243.9470    683.2855 307.8122956  +6.3917580     3636.903      8746.54     9527.178     92.19658     183.8819     367.9831      2.343     5.48     1241.002     64.83078     387.5479        48     1.798     1.625  72.72   0
       171    650.8020    682.3538 307.6431983  +6.4057194     4343.622     9714.705     10908.36     91.46426     183.5891     367.3612      2.277     5.27     1224.375     64.83078     431.2734        44     1.701     1.502 -64.30   0
       172    910.1436    674.5058 307.5356498  +6.4175859     826.9418     1307.872     834.1534     92.05058      183.955     368.0196      1.533     4.40     1214.825     64.83078     107.9399         7     1.226     0.450  70.62   0
       173    722.4808    670.5519 307.6137981  +6.4129797     2539.461      5275.07     6196.441     92.19658      183.955     367.8369      2.304     5.89     1220.619     64.83078     264.5002        35     1.770     1.351  83.53   0
       174    988.7445    667.2073 307.5032186  +6.4232099     7212.971     12719.42     13504.48      91.6112     183.7355      367.471      1.872     3.93     1213.353     64.83078     785.1356        40     1.587     1.271 -77.29   0
       175    927.2573    667.7573 307.5287621  +6.4209414     1974.515     3464.171     3226.509     92.05058     183.8819     367.8003      1.807     4.95     1213.984     64.83078     204.0277        23     1.456     1.091 -81.05   0
       176     66.3561    662.5155 307.8868205  +6.3943922     15750.48     35519.01     39923.11     92.19658     183.8819     367.7637      2.310     5.04     1241.435     64.83078      1867.76        74     1.958     1.684  80.97   0
       177    527.7141    663.0231 307.6950191  +6.4096013     1073.136     2504.312     2841.276     92.19657     183.7355      367.654      2.290     7.62     1229.035     64.83078     116.8009        18     1.499     1.084  43.67   0
       178    496.3189    660.3488 307.7081607  +6.4096588     862.0999     1576.868     1878.028     92.19658      183.955     367.8003      2.313     4.65     1230.293     64.83078      119.568         8     0.957     0.641 -84.43   0
       179      8.0669    667.2332 307.9108899  +6.3904907      1156.35     2971.072     3632.191     92.05058     184.0281     366.3714      2.613     8.65     1241.696     64.83078     156.1071        22     1.613     1.295   9.76  16
       180    712.2850    654.6552 307.6185723  +6.4192058     2307.564     5171.412     5316.437     92.19658      183.955     367.9831      2.242     5.57     1220.293     64.83078     225.2153        36     1.626     1.465 -64.52   0
       181    734.3641    652.6926 307.6094596  +6.4207510     2707.954     5754.478     6243.542     92.34235     183.8087     367.8369      2.170     5.42     1219.473     64.83078     286.4891        33     1.615     1.341 -81.67   0
       182    565.6861    650.6814 307.6796501  +6.4159643     1893.205     4680.097     5109.554     91.90435     184.2472       367.91      2.438     7.06     1226.729     64.83078     245.5741        33     1.747     1.402 -78.06   0
       183    402.3851    651.3187 307.7475146  +6.4102536     678.4679     1714.828     1610.901     91.75789     183.6623     367.6174      2.224     7.65     1233.729     64.83078     99.55347         9     1.472     1.113  44.94   0
       184   1007.1823    648.5972 307.4961786  +6.4315078     4258.478      7613.71     7995.444     91.75789     183.4425     367.5442      1.920     4.37     1212.383     64.83078     466.6888        35     1.582     1.257  83.68   0
       185    972.4185    647.5254 307.5106671  +6.4307968     6514.782     11717.29     12434.35      91.6112     183.7355     367.6906      1.909     4.24     1212.789     64.83078     693.8209        37     1.517     1.303 -80.60   0
       186    310.4529    649.4941 307.7857928  +6.4079365     912.1239     1978.701     2480.933     92.05058     183.8819     368.0927      2.480     6.20      1236.68     64.83078     129.6659        12     1.191     0.907  40.55   0
       187    227.2382    649.9531 307.8203695  +6.4049650     1114.003     2228.421      2567.17     92.05058     183.8819     367.6174      2.078     5.35     1239.098     64.83078     158.3702        11     1.206     0.669  28.64   0
       188   1021.2119    646.3639 307.4904210  +6.4328957     649.4948     1088.906     1021.541      91.6112     179.6643     319.0834      1.889     5.03     1212.063     64.83078     101.3113         5     1.065     0.672 -63.61  16
       189    691.9486    646.4411 307.6273033  +6.4219213     682.6404     1471.141     1997.105     92.19657      183.955     367.8003      2.636     7.36     1220.656     64.83078      111.254         9     1.854     0.819  -5.10   0
       190    131.1098    641.4194 307.8606184  +6.4052728     14004.05     33016.25     36885.98     92.05058     183.6623     367.6174      2.359     5.31     1239.986     64.83078     1672.258        71     1.959     1.710  84.93   0
       191    418.0252    642.1116 307.7413240  +6.4145782     1718.689     3899.995     4826.215     92.34234     183.7355     367.6174      2.520     6.97     1232.773     64.83078     181.3252        27     1.677     1.265 -44.70   0
       192    799.6287    641.4813 307.5827048  +6.4275523     865.1003     1435.762     1990.495     92.05058     183.7355     367.7637      1.803     5.02     1217.055     64.83078     117.6216         9     1.016     0.702  33.73   0
       193    967.3336    630.5389 307.5133520  +6.4376435      5562.68     10417.28     11701.64     92.19658     183.8819     367.8003      2.040     4.19     1212.227     64.83078     662.4159        45     1.607     1.466  83.65   0
       194     12.6586    630.2689 307.9102352  +6.4059102      810.004     1846.062     2051.999     92.34235     183.8819     367.7637      2.523     5.44     1239.288     64.83078     91.05981        10     0.933     0.894  21.14   0
       195   1022.3711    625.6312 307.4906354  +6.4414969     78203.49     124761.9     129707.9      91.6112     166.6945     300.3226      1.748     3.98     1211.095     64.83078     8535.876        65     1.671     1.175 -89.57  24
       196    560.9828    625.9971 307.6824382  +6.4260020     26845.65     65414.09     74269.91     91.75789     183.4425     367.5808      2.415     5.46     1225.088     64.83078     2615.459        91     1.975     1.802 -83.42   0
       197    924.4110    627.8417 307.5312873  +6.4373323     484.0238     947.2975     1103.729     91.46426     183.7355     367.5076      1.608     4.22     1212.886     64.83078     83.44983         5     1.202     0.422  77.03   0
       198    168.4297    622.9728 307.8457295  +6.4141401     1616.916     3762.469      3776.66     91.61119     183.6623     367.5808      2.311     6.91     1238.875     64.83078     185.1954        29     1.587     1.413  77.37   0
       199     61.3215    617.5879 307.8904366  +6.4127778     854.0524     1854.681      2169.73     91.75789     183.5891     367.6174      2.165     7.29     1238.507     64.83078     120.9973        10     1.403     1.061  10.80   0
       200    458.2587    609.8427 307.7256884  +6.4292478     34195.22     85555.48     97600.55     92.05058      183.955       367.91      2.457     5.72     1229.793     64.83078     3331.547        96     2.015     1.842 -86.62   0
       201      2.5298    611.6783 307.9150762  +6.4132481     1247.458     2092.438      2491.84     92.48788     165.5611      298.706      1.962     3.81     1238.116     64.83078     177.8601        14     1.012     0.969  -1.25  24
       202    133.4695    604.8232 307.8608774  +6.4204655     933.1295     1827.745     1107.739     91.75789     183.8087     367.7637      1.965     6.37     1237.843     64.83078     128.6029        10     1.475     0.773  22.70   0
       203    303.6316    599.3424 307.7903249  +6.4284207     1076.987      3069.65     3384.109     92.05058      183.955     367.7271      2.562     8.77     1231.977     64.83078     127.8607        25     1.640     1.310 -53.29   0
       204    730.2739    593.1569 307.6131654  +6.4452033     3389.233     7318.311     7699.167     92.05058     184.0281     367.8369      2.201     5.23     1217.003     64.83078     368.8032        43     1.817     1.453  84.63   0
       205    783.8052    588.5305 307.5910658  +6.4488949     9055.187     19128.22     21162.88      91.6112     183.5158     367.6174      2.178     4.79     1214.901     64.83078     865.8577        57     1.794     1.579  80.07   0
       206   1000.7704    589.4860 307.5008300  +6.4557084     715.6534     1136.665     880.0154     92.34235     183.5891      367.654      1.855     4.30     1208.996     64.83078     118.9746         6     1.512     0.349  80.82   0
       207   1023.1881    587.6154 307.4915726  +6.4572249     1607.331     2272.476     2311.343     86.78612     154.2046     285.7736      1.574     4.96     1208.455     64.83078     192.7396        13     1.186     0.775  87.63  24
       208    526.5870    588.0554 307.6980180  +6.4405251     668.5024     1766.176     2365.377     91.46426     183.8819     367.4344      2.908     6.10     1224.589     64.83078     90.35461         7     1.312     0.799  31.61   0
       209    607.4496    586.3312 307.6644586  +6.4439325     1524.669     3682.758     3932.476     92.05058     183.8819     367.8003      2.377     8.52     1221.046     64.83078     148.9042        29     1.623     1.376 -36.72   0
       210    924.7195    582.1310 307.5326958  +6.4562213     914.7985     1765.408     2144.581     92.48788     184.2472     367.8003      2.268     6.35      1210.04     64.83078     111.8567        11     1.356     0.836 -75.18   0
       211    220.6146    580.5674 307.8254719  +6.4333989     676.8894     1620.326     1444.288     91.75789     183.6623     367.6906      2.289     4.12     1234.954     64.83078       101.04         5     1.221     0.397  54.94   0
       212    859.9874    571.6796 307.5599601  +6.4583871     1753.601     3766.428     3602.005     91.75789     183.5891     367.6174      2.058     6.25     1212.063     64.83078     199.7211        28     1.679     1.301  86.70   0
       213    818.3260    569.3777 307.5773585  +6.4579530     1708.151     3400.709       3534.4     91.75789     183.7355     367.7271      2.073     6.45     1213.439     64.83078     191.6906        24     1.480     1.269  69.86   0
       214    246.7097    564.3304 307.8151732  +6.4409773     4174.595     10522.78     11474.36     92.19658     184.1012     367.8003      2.419     5.72     1231.807     64.83078     463.2786        55     1.920     1.692  71.13   0
       215    799.0640    560.4054 307.5856688  +6.4610181     99304.77     220111.1     243509.2     91.46426     183.6623     367.5442      2.249     4.99     1213.976     64.83078     9476.498       150     2.148     1.850 -41.66   0
       216    180.8802    558.9716 307.8427215  +6.4409883     30320.18     78165.13     91896.07     92.05058     183.8819     367.7271      2.512     5.81     1234.359     64.83078     3397.468       105     2.091     1.907 -84.18   0
       217    104.9184    555.4195 307.8744207  +6.4399124     3303.074     8613.221     9838.321     91.75789     183.5891     367.7271      2.487     6.32     1234.718     64.83078     379.1008        51     1.932     1.649 -76.02   0
       218    835.8335    547.5993 307.5708126  +6.4675296     2806.455     5883.402     6197.633     91.16969     183.7355     367.5076      2.159     5.01     1212.076     64.83078     285.1233        34     1.580     1.366  85.20   0
       219    354.2057    545.9930 307.7711042  +6.4521432     8507.104      22775.3     26966.27     91.46426     183.7355     367.6174      2.558     5.89     1226.556     64.83078     894.4802        70     2.018     1.824  84.30   0
       220    156.3620    545.0634 307.8533855  +6.4459116     946.7874     2570.054     3350.455     92.19657     183.8819     367.8734      2.714     8.67     1234.118     64.83078     122.7125        19     1.584     1.325  36.80   0
       221    789.6025    541.0352 307.5902547  +6.4687034     3547.906     7818.726     8134.433     91.16969     183.7355     367.5808      2.165     5.22     1213.525     64.83078     352.8225        38     1.678     1.404  89.74   0
       222    970.1509    552.3467 307.5148084  +6.4700309     835.7997     1842.316     2135.478     92.34234      183.955     367.8369      2.186     7.62     1206.457     64.83078     122.7958        11     1.382     1.176  -6.10   0
       223    520.6749    540.8825 307.7020683  +6.4598101     3235.209     8464.023     9961.187     92.48788     184.3202     367.8734      2.562     6.21     1222.097     64.83078      341.355        47     1.791     1.695  70.08   0
       224    378.9463    538.4911 307.7610722  +6.4560678     636.7794     1503.422     1445.774     92.05058     183.7355     367.9465      2.269     4.56     1224.778     64.83078     89.67175         7     1.699     0.348 -43.51   0
       225    262.9099    530.5549 307.8095815  +6.4554678     43758.66     115678.4     135472.7     92.19657     183.8087     367.9465      2.565     5.97     1227.215     64.83078     4969.551       111     2.126     1.923  87.65   0
       226     39.3761    532.8546 307.9024330  +6.4470356     2847.805      6692.14     7936.119     91.75789      183.955     367.5808      2.408     5.71     1232.775     64.83078      353.851        41     1.753     1.517  79.38   0
       227    565.5154    533.3892 307.6836786  +6.4643999     1354.911     3332.603      4071.02     91.75789     183.6623     367.6174      2.554     8.32     1220.546     64.83078     146.4528        23     1.400     1.383  27.33   0
       228    806.3785    532.8633 307.5835549  +6.4726363     901.2532      2014.47     2048.477     91.75789      183.955      367.654      2.262     6.84     1212.339     64.83078     122.4449        12     1.318     1.047 -76.07   0
       229    167.7601    534.2855 307.8490121  +6.4507442     3645.635     9168.827      10132.5     92.19658     183.8819     367.8003      2.475     5.81     1232.797     64.83078     425.4452        51     1.865     1.690  81.48   0
       230    785.8380    522.7047 307.5924370  +6.4761487     9731.074     21644.01     23356.16     92.34234     183.8087     367.9465      2.260     5.17     1212.017     64.83078     943.6686        60     1.820     1.629 -87.76   0
       231    961.9258    524.0679 307.5191786  +6.4814371     1145.741     2192.782     2101.327     92.34234     184.1012     367.7637      2.058     4.81     1204.348     64.83078     157.7946        11     1.161     0.747  58.77   0
       232    489.5965    521.2560 307.7156519  +6.4668791      21077.5      57080.4     69242.08     91.46426     183.7355     367.4344      2.642     5.96     1221.204     64.83078     2028.944       101     2.102     2.023  73.54   0
       233    640.0000    520.2518 307.6531542  +6.4723075      668.262     1579.231      2093.38     91.31709     183.3691     367.2513      1.740     3.83     1217.448     64.83078     127.9431         5     1.456     0.289  90.00   0
       234    649.3646    516.3886 307.6493910  +6.4742149     1539.338     3951.106     4572.932      91.6112     183.7355     367.5442      2.726     7.38     1217.069     64.83078     167.0382        33     1.644     1.564  50.77   0
       235     38.3044    517.7857 307.9033896  +6.4532228     887.3073     1652.517     1902.923     91.90435     183.6623     367.5808      2.045     5.41     1232.068     64.83078     124.0643         8     0.991     0.833  20.37   0
       236    202.4204    516.6459 307.8352001  +6.4591889     887.6306     2048.183     2473.747     91.75789     183.8819     367.6174      2.152     5.82     1229.266     64.83078     137.0552        10     1.565     0.609   7.65   0
       237    712.6537    514.3443 307.6231464  +6.4771665     776.8186     1409.424     2361.547     92.34235      183.955     367.8003      2.343     4.51     1214.083     64.83078     103.9619         6     1.101     0.525 -29.96   0
       238    318.7780    510.5116 307.7870330  +6.4656130       1925.2     5072.433     5944.189     92.19658     183.7355     367.6906      2.614     7.91     1222.902     64.83078     228.8898        39     1.925     1.596  60.67   0
       239    386.8752    511.9375 307.7586734  +6.4672990     1005.565     2344.082     2951.296     92.48788      183.955     367.8003      2.774     7.24     1222.186     64.83078     130.4769        14     1.447     1.015 -29.40   0
       240    134.0173    508.9846 307.8638973  +6.4600635     13742.81     34396.06     39505.84     91.90435     183.5891     367.7271      2.449     5.60     1231.322     64.83078     1636.619        73     2.003     1.771  82.27   0
       241    498.7521    508.9368 307.7122614  +6.4722723     1057.822     2438.958     3173.979     92.05058     183.8087     367.8734      2.645     8.29     1220.465     64.83078     135.3131        17     1.543     1.245  15.44   2
       242     99.2320    507.6841 307.8784028  +6.4594358       1392.3     3447.763     4202.258     92.19658     183.7355     367.6906      2.540     8.99     1231.903     64.83078     196.1838        25     1.733     1.431 -88.94   0
       243    862.0104    508.2923 307.5612517  +6.4846335     957.3599     1773.128     1920.716     91.90435     183.5158     367.5808      2.197     5.55     1207.248     64.83078     137.7847        11     1.192     0.951 -59.79   0
       244    959.3343    503.1668 307.5209587  +6.4899833      3953.11     7602.896     7992.412     92.05058     184.0281     367.7637      1.998     4.42     1202.815     64.83078        418.8        37     1.580     1.337  84.69   0
       245    530.8419    495.7655 307.6993644  +6.4787823     603.4572     1327.399     1614.232     91.90435      183.955     367.5808      2.321     4.32     1219.594     64.83078     89.37476         5     0.842     0.632  38.98   0
       246      1.2309    493.5129 307.9196256  +6.4620043     2845.478      4086.04     4701.895     78.82741     144.1986     274.9803      1.514     4.56     1230.853     64.83078     673.2809        14     1.572     0.486 -89.42  24
       247    430.9574    490.0055 307.7410872  +6.4778286     20679.65     55923.65     65279.89     91.46426     183.5891      367.471      2.554     6.04     1219.933     64.83078      2191.13        89     2.063     1.878 -80.55   0
       248    638.8674    489.6274 307.6546578  +6.4849176     6287.656      16131.8      18141.5     91.75789     183.8087     367.6906      2.450     5.92       1216.6     64.83078     609.8362        57     1.900     1.702 -88.57   0
       249    196.1386    487.6786 307.8387928  +6.4709417     9784.595     25945.44     30907.29     92.34234     184.0281     367.7637      2.615     5.96     1226.305     64.83078     1057.328        79     2.126     1.874  68.55   0
       250    163.7037    488.6914 307.8522431  +6.4694380      838.923     1265.044     971.8629     92.19658      184.539     367.7637      1.574     5.08     1228.779     64.83078     140.4504        10     1.258     0.711 -89.77   2
       251    161.0000    486.9384 307.8534266  +6.4700715     481.6221     783.3746     593.1439      91.3171     183.6623     367.3978      1.642     4.35     1228.818     64.83078     91.05298         5     1.567     0.344  71.37   3
       252    972.8773    487.3893 307.5158580  +6.4969491     1002.424     1921.882     2086.649     91.75789     183.5158     367.6174      2.061     6.51     1200.771     64.83078     115.6534        12     1.346     0.883 -46.48   0
       253    813.8690    487.7356 307.5819597  +6.4915232     575.4933     1103.295      894.443     92.19658     184.0281     367.8369      1.643     4.50     1207.664     64.83078     91.74377         5     1.285     0.449 -29.34   0
       254    560.6433    486.7606 307.6872778  +6.4834949     1283.681     3234.067     3446.166     91.90435      183.955      367.654      2.410     7.65     1218.682     64.83078     151.3204        24     1.506     1.388  46.35   0
       255    934.5870    483.3843 307.5319133  +6.4973318     3268.697     6407.199      6227.74     91.90435     183.5891     367.7271      2.037     4.78     1202.686     64.83078      348.059        32     1.597     1.270 -76.72   0
       256    607.6088    482.0077 307.6679113  +6.4870231     3639.696     8847.834     10589.52     91.46426     183.7355      367.654      2.463     6.05     1217.438     64.83078     362.4717        47     1.922     1.537  88.48   0
       257    957.0210    475.6119 307.5228468  +6.5012868     2411.721     4723.159     5163.837     91.75789     183.5891      367.654      2.034     4.71     1200.803     64.83078     268.8004        29     1.511     1.220 -85.30   0
       258    519.9770    473.2266 307.7046425  +6.4877284      3629.56     9751.445     11656.82     91.61119     183.8087     367.7271      2.559     6.15     1217.986     64.83078      369.214        53     1.879     1.721 -86.30   0
       259    367.6211    473.5172 307.7679774  +6.4825232      1290.36     2314.235     2551.156     91.90435     183.5891     367.6906      2.049     7.16     1218.714     64.83078     148.3387        18     1.586     0.951 -62.47   2
       260    364.4149    472.2137 307.7693545  +6.4829544     881.8849      1661.06      1803.71     91.90435     183.5891     367.7271      2.019     4.87      1218.53     64.83078     119.7535         8     1.011     0.664 -73.73   3
       261    876.5357    468.9188 307.5565370  +6.5013777     2198.764     4652.011     5679.499     92.48788     184.0281     367.8003      2.394     5.46     1203.821     64.83078     226.2014        36     1.649     1.465  80.95   0
       262    883.7041    463.1472 307.5537506  +6.5039995     1560.097     3281.125     3484.382     92.05058      183.955     368.0927      2.214     6.12     1203.296     64.83078     167.3547        23     1.391     1.244  53.72   0
       263    923.4692    462.3623 307.5372429  +6.5056447     573.9302      1329.05     915.0184     92.05058      183.955       367.91      1.849     3.41     1201.625     64.83078     94.93262         5     1.108     0.304  20.45   0
       264    707.6463    459.8524 307.6270646  +6.4995050     1789.309     4008.112     4432.653     92.34234     183.8819     367.8734      2.350     6.57     1211.237     64.83078     176.5779        31     1.602     1.449 -87.18   0
       265    378.9869    457.4953 307.7637936  +6.4895197     1890.001     4609.045     5333.406     91.90435     183.6623     367.5808      2.527     6.67     1216.761     64.83078     245.4833        34     1.699     1.519 -81.83   0
       266     70.7475    458.7907 307.8919028  +6.4786736     1018.762     2151.555     2749.961     91.46426     183.8087      367.471      2.464     6.56     1229.192     64.83078     132.7904        16     1.339     1.028 -39.71   0
       267    606.3643    454.2325 307.6693657  +6.4984528     5229.922     13235.62      15616.7     91.75789     183.6623     367.5076      2.503     6.01     1215.638     64.83078     493.8933        56     1.945     1.643 -75.43   0
       268    769.2604    450.5570 307.6017593  +6.5053943     9657.995     22166.79      26123.3     92.19658      183.955     367.9465      2.416     5.46     1207.401     64.83078     924.2637        72     2.180     1.659 -58.39   0
       269    288.9737    451.6511 307.8014158  +6.4889255     1400.274     3525.954     3769.879     91.75789     184.1012     367.6906      2.372     8.32     1216.717     64.83078     144.8557        24     1.510     1.281 -39.74   0
       270    797.4048    448.2661 307.5901342  +6.5072766     695.5809     1480.526     1522.697      91.6112     183.5891     367.5808      1.909     4.80     1206.195     64.83078     95.92712         7     1.433     0.455  82.21   0
       271    373.3980    447.7380 307.7664472  +6.4933626     789.6727     1586.674     2422.279     91.46426     183.7355      367.471      2.064     3.35      1215.89     64.83078     103.3688         5     0.720     0.470 -75.33   0
       272    953.9156    445.4042 307.5251536  +6.5136596      1357.57     2576.351     2352.207     91.61119     183.5158     367.4344      1.947     5.03     1198.385     64.83078     166.5165        15     1.438     0.703 -77.63   0
       273    106.6211    442.8271 307.8775296  +6.4864679     2302.396     5804.618     6635.129      91.6112     183.7355     367.7637      2.455     6.32      1227.83     64.83078     289.4004        42     1.754     1.685  33.85   0
       274   1008.2802    440.4195 307.5027161  +6.5175230      3198.44     6668.472     7486.333     91.75789     183.5891     367.7271      2.192     5.11     1194.478     64.83078     347.6003        39     1.667     1.465  53.93   0
       275    745.0469    441.8249 307.6121213  +6.5081951     1329.896     3291.354     4312.786     91.75789      183.955      367.654      2.632     8.27      1207.68     64.83078     162.4058        24     1.520     1.258 -31.17   0
       276    342.7076    437.7300 307.7795458  +6.4964706      1536.89     4250.526     4687.971     92.19658     184.1012     367.8003      2.555     8.63     1215.399     64.83078     182.1377        33     1.720     1.499 -71.38   0
       277    265.4740    439.9369 307.8115826  +6.4929776     688.5361     1690.686     2649.196     92.48788      183.955     367.7637      3.006     4.94     1217.435     64.83078     102.8387         6     1.106     0.624  64.81   0
       278    698.6167    434.8408 307.6316620  +6.5095341     860.2245     2001.087     1787.091     91.61119     183.7355     367.5808      2.202     7.87     1210.025     64.83078       128.16        11     1.493     1.160  17.43   0
       279    824.2802    425.2255 307.5797352  +6.5176861     938.1204     1800.791     1506.047     91.90435     183.7355     367.8003      2.067     7.05     1204.232     64.83078      124.582        12     1.516     0.918 -84.43   0
       280    461.4326    425.4531 307.7305975  +6.5055053     704.6511     1790.583     2302.367     92.05058      183.955     367.7271      2.507     5.08     1211.688     64.83078     110.2028         6     1.087     0.671 -69.21   2
       281    707.5140    422.3770 307.6283826  +6.5149778     8253.234     19871.79     22780.46     92.19658     183.7355      367.654      2.393     5.75     1208.464     64.83078     732.4333        65     1.944     1.736  85.61   0
       282    809.5515    423.9740 307.5859016  +6.5177132     1163.148      2534.27     1988.314     91.75789     184.0281     367.6906      2.125     7.65     1204.632     64.83078     114.0706        18     1.423     1.150  59.79   0
       283    627.5425    418.9150 307.6617513  +6.5137444     1241.154      3502.47     4575.059     92.19657      183.955     367.9465      2.996     8.16     1212.492     64.83078     165.6044        18     1.753     1.061  83.72   2
       284    601.0380    413.5885 307.6729515  +6.5150611     7662.365     21228.84     29670.98     91.46426     183.7355     367.4344      2.974     7.12     1212.689     64.83078     782.2887        96     2.686     1.917  37.21   0
       285    932.6594    412.3027 307.5351050  +6.5266248     2632.994     5410.243     5607.968     91.90435      183.955     367.9465      2.137     4.95     1196.981     64.83078     320.8037        32     1.598     1.300 -89.89   0
       286    372.0166    408.4182 307.7683511  +6.5095552     13709.89     37730.63     44568.39     91.90435     183.5891     367.7271      2.630     6.29     1211.606     64.83078     1379.024        83     2.108     1.874 -86.79   0
       287    118.5277    407.2958 307.8737838  +6.5015404     1147.359     2706.338     3309.962     91.90435     184.1012     367.7637      2.505     8.34     1224.884     64.83078     144.7252        18     1.700     1.149  50.85   2
       288    888.1140    407.4869 307.5537895  +6.5271339     987.3776     1983.588     2809.172     91.90435     184.1742     367.8734      2.584     7.23      1200.02     64.83078     121.6925        12     1.317     1.111  73.43   0
       289    901.5632    402.6120 307.5483612  +6.5295941     3287.104     6990.313      7296.08      91.6112     183.7355      367.471      2.098     5.46     1198.557     64.83078     383.5166        38     1.647     1.390  83.41   0
       290    229.5449    399.1116 307.8279032  +6.5086362     6672.597      17955.6     20862.27     92.19657     183.8087     367.9831      2.586     6.38      1217.06     64.83078     722.1143        65     2.041     1.782 -85.36   0
       291    129.8909    387.7902 307.8697205  +6.5099764     2612.066     6719.363     7146.829     91.90435     183.5891     367.5076      2.440     6.06     1222.972     64.83078     347.8749        44     1.820     1.646 -74.63   0
       292    235.9697    386.4190 307.8256616  +6.5140929     748.9592      1452.77     1755.264     91.75789     183.7355      367.654      2.400     5.32       1215.6     64.83078     130.9613         8     0.951     0.839 -85.16   0
       293    152.5963    383.2332 307.8604346  +6.5126186     1382.148     3166.728     3741.251      91.3171     183.8087     367.5442      2.632     7.38     1221.429     64.83078     144.7762        20     1.589     1.241  24.05   2
       294    376.0945    378.5659 307.7676650  +6.5220200     1028.473     2770.698     2952.591     92.34234     183.8087       367.91      2.468     8.77     1208.221     64.83078     139.8278        17     1.607     1.335 -80.10   0
       295    964.1213    377.5804 307.5231901  +6.5420100      668.946     1534.662     1810.981     91.75789     183.5891     367.7637      2.483     6.56     1192.105     64.83078     101.9895         9     1.659     0.729 -61.70   0
       296    429.0345    371.9191 307.7458774  +6.5265330     3322.157     9405.833     10913.53     92.05058     184.0281     367.8369      2.628     6.74     1205.294     64.83078     351.2119        58     2.098     1.758 -80.93   0
       297     25.7178    372.6142 307.9135476  +6.5127535     1771.717      4367.62     5642.113     91.75789     183.6623     367.5808      2.719     6.74     1225.225     64.83078     200.8307        35     1.723     1.490  83.90   0
       298    769.6678    369.0266 307.6043361  +6.5390799     7324.282     17238.17     19749.11     91.75789     183.8087     367.6906      2.359     5.37     1203.499     64.83078       682.48        58     1.862     1.667 -70.38   2
       299    761.8035    370.2241 307.6075659  +6.5383237     1064.028     2867.659     3285.406     91.75789     183.5891     367.6174      2.612     8.26     1203.743     64.83078     136.5032        18     1.976     0.964 -44.89   3
       300   1013.5370    364.0249 307.5030972  +6.5492487     2570.433     4733.103     5224.704     91.75789      183.955     367.7637      2.002     4.54     1188.234     64.83078     289.9939        27     1.452     1.177  78.07   0
       301    477.2811    355.5010 307.7263710  +6.5349238     1383.211     4144.738      4226.25     92.19658     184.4661       367.91      2.645     9.85     1203.237     64.83078     174.3019        36     1.985     1.579 -81.46   0
       302    449.3341    356.3125 307.7379642  +6.5336560      1069.19     3041.312     3139.664     92.19658     184.1742     367.8369      2.482     9.68      1203.33     64.83078     132.3949        23     1.739     1.502 -10.00   0
       303    835.0250    351.8643 307.5777369  +6.5483416     20394.29     46350.21     51979.16     91.75789      183.955     367.7271      2.301     5.23     1199.406     64.83078     1996.335        78     1.962     1.661 -85.19   0
       304    607.0165    344.3680 307.6728011  +6.5438480     1369.776     3845.265     4355.892     91.75789     183.6623      367.654      2.541     8.39     1202.135     64.83078     160.3977        32     1.891     1.372 -65.35   0
       305    691.4964    337.9144 307.6378900  +6.5493274     43261.14     106156.5     121453.1     92.19657     184.3931     367.8734      2.454     5.71     1202.274     64.83078     3984.524       104     2.030     1.838 -87.68   0
       306     72.3195    337.5901 307.8953598  +6.5287795     784.6939     1647.238      1752.83     91.75789     183.5891     367.6174      2.442     5.02     1222.528     64.83078     119.6019         6     1.039     0.687  73.62   0
       307    554.2255    334.8037 307.6950754  +6.5460382     1303.693     3573.592     4108.045     91.61119     183.5891     367.6174      2.528    10.04      1200.45     64.83078     162.2435        30     1.726     1.627 -41.42   0
       308     91.2712    333.7510 307.8876101  +6.5309999     3113.318     8360.261     10011.92     92.19658      183.955     367.8369      2.644     6.32     1221.811     64.83078     429.9832        55     1.973     1.808  86.84   0
       309    933.0293    334.1887 307.5375782  +6.5588983     636.7686     1094.675     1516.381      91.6112     183.7355     367.6174      1.789     4.35     1190.366     64.83078     87.93298         5     1.064     0.506 -39.60   0
       310    537.3721    330.8856 307.7022157  +6.5470944     3626.544     9318.876     10926.75     92.34234     183.5891      367.654      2.523     6.04     1199.951     64.83078     399.7289        52     1.846     1.761 -83.67   0
       311    266.2908    328.6201 307.8150113  +6.5389771     1325.021     3335.472     3345.163     92.05058     183.6623     367.6174      2.394     7.73     1210.496     64.83078     161.2218        28     1.806     1.414 -57.61   0
       312    400.2448    326.1490 307.7593956  +6.5444742     12124.98     33897.32     40512.28     92.34234     183.8819     367.8369      2.654     6.53     1202.093     64.83078     1276.149        81     2.113     1.900 -80.83   0
       313    489.1956    316.3668 307.7227388  +6.5514835     4114.547     11297.76     12898.81      91.3171     183.8087     367.5442      2.535     6.53     1199.077     64.83078     414.2825        52     1.898     1.699 -73.62   0
       314    758.2982    315.3951 307.6108707  +6.5608514     1934.335     4496.639     5755.195     91.90435     183.5891     367.3978      2.563     6.49     1199.534     64.83078     201.0662        31     1.548     1.479 -68.04   0
       315    379.1068    300.6825 307.7690463  +6.5542856     3469.743     9859.458     11322.19     91.90435     184.3202     367.9465      2.548     6.64     1201.843     64.83078     372.5477        53     1.954     1.718  85.26   0
       316    235.1553    301.3994 307.8288794  +6.5491774     912.5056     2409.468     2930.863     91.46426     183.5891     367.3246      2.565     8.08     1210.833     64.83078     114.6973        15     1.519     1.201 -26.87   0
       317    746.9582    296.4616 307.6162243  +6.5682935     30330.68     72472.45     81876.45     92.19657      183.955       367.91      2.384     5.41      1197.73     64.83078     2901.605        93     1.983     1.793 -87.13   0
       318    418.6148    296.6110 307.7527556  +6.5572865      1078.42     2851.777     2829.924     91.90435     183.6623     367.7271      2.409     7.06      1198.71     64.83078      141.766        18     1.618     1.077 -29.89   0
       319    981.7929    293.6989 307.5186616  +6.5772399     1243.744      2450.05     2530.552     91.90435     183.5158     367.5808      2.022     7.42      1183.75     64.83078     157.9426        18     1.516     1.152  40.93   0
       320    922.9575    294.0000 307.5431183  +6.5751618     1154.761     1910.093     2484.806      91.3171     183.5158     367.3246      1.732     5.59     1188.466     64.83078     150.0004        11     1.147     0.767  26.29   3
       321    922.7917    291.7402 307.5432632  +6.5760896     1367.355     2336.095     2363.432     91.46426     183.7355      367.471      1.771     5.06     1188.336     64.83078     173.6691        14     1.353     0.820  17.11   3
       322    403.6239    293.4976 307.7590945  +6.5580717     872.4813     1163.702     1744.822     92.34235     183.6623     367.6174      1.859     5.42      1199.43     64.83078     94.80994        10     1.156     0.718  23.02   2
       323    405.7105    290.4962 307.7583283  +6.5593810       974.66      1731.53     2153.481     92.19658     184.4661     367.8003      1.864     5.08     1199.057     64.83078     122.5472         8     1.151     0.635   5.85   3
       324    182.8498    283.1152 307.8512480  +6.5549781     1159.184     2897.447     3551.046     92.19657      183.955       367.91      2.679     9.18     1214.387     64.83078     160.9338        17     1.813     1.386   4.53   2
       325    745.2918    280.9176 307.6174410  +6.5746576     3415.237     8235.605     9660.884     91.90435     184.3202     367.8734      2.475     5.83     1195.986     64.83078     351.1917        44     1.810     1.582 -88.34   0
       326    761.7272    279.1022 307.6106675  +6.5759543     1426.497     3446.665     3706.037     91.75789     184.1012     367.8003      2.322     7.15     1195.727     64.83078     159.0918        28     1.628     1.432 -86.97   0
       327    351.7827    273.7831 307.7813182  +6.5644818     973.9832     2511.728     2860.892     91.90435     183.5891     367.7271      2.585     8.23     1201.988     64.83078     124.8175        16     1.826     1.037   8.37   0
       328     65.9242    274.1476 307.9001710  +6.5547655     804.2355     1614.029     1895.126     92.19658     184.0281     367.8003      2.188     4.53     1221.043     64.83078     101.4714         7     0.967     0.604  13.13   0
       329    476.8890    272.1189 307.7293512  +6.5693468     743.9084     1325.625     1331.211     91.90435     184.1742       367.91      2.125     4.52     1194.567     64.83078     103.2178         7     0.957     0.608  74.17   1
       330    999.9387    269.7669 307.5119200  +6.5877262     4479.685     8410.028     9357.194     91.90435     184.0281     367.7271      2.022     4.54     1180.821     64.83078      477.047        39     1.587     1.357 -82.06   0
       331    479.8868    269.8788 307.7281803  +6.5703719       723.04     1586.173     1781.102     92.05058     184.3202     367.9465      2.287     4.96     1194.165     64.83078      104.238         7     1.301     0.534  72.21   0
       332    240.8065    265.7578 307.8277366  +6.5640858     2873.767     7736.568     9757.992      91.6112     183.5891      367.471      2.725     6.72     1209.529     64.83078     337.8286        50     1.976     1.689  84.20   0
       333    327.5302    260.2837 307.7918598  +6.5692463     4541.683     4628.108     4187.297     92.48788     184.2472     367.8369      0.918     3.42     1202.699     64.83078     1810.328         7     0.895     0.378 -49.58   0
       334    373.4276    257.8133 307.7728578  +6.5718002      688.412     1198.936      1329.53     91.75789     183.7355     367.6906      1.498     3.28     1199.453     64.83078     127.3024         5     1.146     0.273  34.12   0
       335    376.6611    255.7598 307.7715826  +6.5727564     727.8726     1363.463     1435.414     92.19658      183.955       367.91      1.968     4.26     1199.076     64.83078     109.6544         5     1.124     0.460  83.70   0
       336    146.6254    251.7850 307.8673726  +6.5667041     823.4688     1703.085     2034.748     91.90435     183.7355     367.7271      2.567     6.87     1216.115     64.83078     112.4756        10     1.415     0.936 -49.28   2
       337    553.3996    249.6887 307.6982924  +6.5811625     754.8652     1420.415     2202.665      91.3171     183.3691     367.3978      1.770     3.56      1189.68     64.83078     123.9495         5     0.793     0.462  27.38   3
       338    555.4838    247.5313 307.6974986  +6.5821230     890.1641     1943.065     2281.417     92.48788     184.2472     367.8369      2.906     6.54     1189.448     64.83078     105.7708        12     1.355     0.885  35.76   2
       339    897.7509    246.3830 307.5552027  +6.5939902     1103.223     2587.052     2841.817      91.6112     184.0281     367.5076      2.416     6.78     1186.134     64.83078     148.3582        20     1.516     1.242 -64.18   0
       340    717.6972    245.2432 307.6301187  +6.5884725     2655.001     6702.385     7164.449     92.19658     183.8819     368.0562      2.390     6.55       1190.7     64.83078     260.0498        43     1.859     1.531 -86.50   0
       341    657.6132    246.3164 307.6550688  +6.5860285     1085.194      2544.51     3280.019     91.75789     183.7355     367.6174      2.584     7.08     1189.289     64.83078     160.7211        15     1.822     0.771  83.23   2
       342    914.0562    238.4135 307.5486900  +6.5978233     673.1677     1246.254     1501.202     91.46426     183.8819      367.471      1.815     4.92     1184.437     64.83078     95.44568         6     1.182     0.580 -22.38   2
       343    218.2136    230.0253 307.8383416  +6.5780867     1180.296       2934.4      3111.95     91.90435     183.7355     367.7271      2.333     7.78     1210.877     64.83078     132.4485        19     1.556     1.088  35.38   2
       344    859.9565    229.4314 307.5714907  +6.5997351     1073.132     2258.593     1644.468     91.75789      183.955      367.654      2.058     7.26     1187.064     64.83078     132.0135        14     1.398     1.066 -45.62   0
       345    750.2664    228.6305 307.6171343  +6.5964176     926.6565      1918.76     1816.343     91.90435      183.955     367.7271      2.078     7.22     1189.254     64.83078     105.9639        11     1.465     0.995  75.09   0
       346    451.4324    220.4328 307.7416838  +6.5898429        10976     30304.99     36198.41      91.6112     183.6623     367.5076      2.663     6.59     1190.955     64.83078     1137.138        85     2.156     1.930 -69.25   0
       347    777.2443    219.5193 307.6062221  +6.6010781     7958.648     18302.87     21329.76     92.19658      183.955     367.7637      2.370     5.36     1188.178     64.83078     777.9979        62     1.880     1.684 -60.34   0
       348    139.4373    214.0055 307.8716424  +6.5820655     1176.355     2920.898     3198.805     91.16969     183.6623     367.5076      2.391     8.88     1215.344     64.83078     145.0212        22     1.683     1.394 -20.19   0
       349    913.3162    210.1446 307.5499488  +6.6094737     1070.839     2080.157     2803.958     92.19658      183.955       367.91      1.955     5.38     1182.316     64.83078     117.5908        10     0.949     0.861 -85.17   0
       350    573.6769    207.3114 307.6912907  +6.5993401     1551.812     2306.113     3063.336     92.19658     184.3202     367.8734      1.555     6.23     1185.509     64.83078     220.0692        14     1.525     0.716  71.79   3
       351    576.3453    206.0236 307.6902245  +6.5999609     2016.491     4471.667     5286.458     91.75789      183.955     367.5808      2.305     7.64     1185.434     64.83078     208.4325        28     1.965     1.215  65.13   3
       352    536.8215    207.3773 307.7066153  +6.5980839     948.2892     1647.652     1453.589     91.90435     183.7355     367.7637      1.825     5.23     1185.713     64.83078     108.7628        10     1.149     0.674  84.36   2
       353    539.5446    205.6565 307.7055410  +6.5988853     930.2427      1629.57     1878.243     92.34235     184.0281     367.8369      1.828     6.78     1185.591     64.83078      114.384         9     1.427     0.903  77.77   3
       354    936.0899    203.2155 307.5407108  +6.6130920     1797.697     3484.079     4031.831     91.90435     183.7355     367.6174      2.059     5.59     1180.617     64.83078     203.5969        20     1.415     1.031 -83.18   0
       355    882.2698    202.6207 307.5631136  +6.6115495     7216.285     15334.96     16730.14     91.75789     183.8087     367.7271      2.179     4.86      1183.53     64.83078     725.0568        51     1.732     1.529 -84.73   0
       356    381.3545    205.0444 307.7713462  +6.5938579     660.2697     1356.369     1482.833     92.19657      183.955     367.7271      1.798     4.30     1195.289     64.83078     91.14917         6     1.123     0.470  18.08   0
       357      8.6298    199.6040 307.9265247  +6.5836293     13247.21     34556.26     40870.84      91.6112     183.7355     367.6174      2.579     6.06     1224.078     64.83078     1562.702        79     2.125     1.794 -89.51  16
       358    968.8860    200.4606 307.5271641  +6.6153189     7094.786     13839.88     14723.85     92.34234     184.1012       367.91      2.052     4.50     1179.094     64.83078     764.6482        45     1.623     1.434  86.47   0
       359    680.3666    200.8842 307.6471388  +6.6055496     1588.782     4019.412       5109.4     92.19658     183.8087     367.7637      2.722     7.66     1185.144     64.83078      163.399        34     1.803     1.478  56.88   0
       360    821.1845    192.1411 307.5888706  +6.6138468     1178.497     2820.496     2850.713     91.46426      183.955     367.5076      2.237     7.76     1184.483     64.83078     145.2422        25     1.623     1.311  75.37   0
       361    500.7775    191.6184 307.7221369  +6.6033897     1127.656     3377.783     3599.575     91.90435     183.8819     367.7271      2.590     7.88     1185.115     64.83078     184.2889        28     1.749     1.717  51.87   0
       362    872.7889    191.2142 307.5674404  +6.6159452     1229.332     2416.061     2623.112     91.90435     183.6623     367.7271      2.120     6.36     1182.941     64.83078     147.2195        19     1.333     1.174 -65.41   0
       363    732.5070    188.6796 307.6258664  +6.6123260     22394.46     53594.15     60553.46     91.90435     184.1742     367.8734      2.402     5.48     1184.857     64.83078     2029.316        83     1.999     1.747  84.13   0
       364    335.5480    188.2852 307.7909620  +6.5992485      3488.47     9732.618     13338.58     92.19658     183.8819     367.9465      2.964     7.67     1199.039     64.83078     333.6066        66     2.400     1.792 -70.50   0
       365    965.8712    187.3745 307.5288580  +6.6206233     2186.494     4221.751     4384.937     91.75789     183.8087     367.7271      1.989     5.04     1178.611     64.83078     293.2148        26     1.521     1.196 -79.05   0
       366    900.3453    185.7349 307.5561645  +6.6191239     5141.844      10603.6      11564.9     92.19658     183.8819     367.7637      2.129     4.83     1181.184     64.83078     526.6017        43     1.739     1.393  86.19   0
       367    443.9841    185.0905 307.7459759  +6.6041901     2390.219     6643.428     7206.967     91.90435     183.7355      367.654      2.587     6.56     1187.814     64.83078      251.069        49     1.891     1.724  81.03   0
       368   1004.3809    185.8527 307.5128933  +6.6225303     1254.394     1703.111     1807.531     91.61119     184.0281     367.5808      1.486     4.99     1177.312     64.83078     161.0466        15     1.176     0.992  76.10   0
       369    101.4894    176.1940 307.8887047  +6.5964096     2422.363      6361.86     7259.872      91.6112     183.5891     367.5076      2.543     6.95     1216.988     64.83078     262.9557        42     1.865     1.568  88.64   0
       370    271.7073    173.0276 307.8180270  +6.6034152     16180.35     44784.11     53443.04     92.34234     183.6623      367.654      2.648     6.38     1207.052     64.83078     1711.593        89     2.158     1.914 -86.89   0
       371    247.1055    174.2674 307.8282158  +6.6020802     3192.521     8836.688     10053.88     92.05058     184.1742     367.8003      2.559     6.43     1208.578     64.83078     375.4767        52     1.962     1.700 -75.41   0
       372    922.4716    175.7259 307.5472992  +6.6239928     561.8771     1262.738     1801.983     92.48788     184.1012     367.8369      2.116     4.42     1179.428     64.83078     102.4376         5     1.224     0.454  31.03   0
       373    151.7787    170.0653 307.8680000  +6.6006250     1924.003     5755.688     7107.796     91.75789      183.955      367.654      2.757     7.71     1213.134     64.83078     212.5118        49     2.043     1.741  75.92   0
       374    395.7464    168.4566 307.7665987  +6.6094488     23898.15     66254.38     78499.68     92.34235      183.955     367.8003      2.643     6.49     1190.448     64.83078     2448.075        91     2.125     1.923 -87.16   0
       375    734.9280    164.5914 307.6256715  +6.6223549     18428.15     44084.27     49427.36     91.61119     183.4425      367.654      2.367     5.44     1182.352     64.83078     1830.947        75     1.955     1.716  85.56   0
       376    300.4207    166.1876 307.8063179  +6.6072002      8816.29     23410.81     30152.15     91.90435     183.5891     367.6906      2.829     6.92     1204.443     64.83078     908.4767       100     2.767     2.016  -3.25   0
       377    783.6727    165.2168 307.6053781  +6.6237187     843.2308     1846.393     2640.219      91.6112     183.8819     367.6906      2.313     6.02     1181.994     64.83078     104.6387         9     1.289     0.791  -3.38   0
       378     51.9402    162.1865 307.9097846  +6.6005338     4696.924     11997.06     13963.24     91.46426     183.8819      367.471      2.502     5.62     1220.912     64.83078     520.0352        55     1.923     1.690 -85.02   0
       379    992.8443    159.4027 307.5185806  +6.6330712      766.465     1602.622     1703.834     91.46426     183.4425     367.3978      2.105     6.30     1176.674     64.83078     99.37451         9     1.326     0.840  78.30   0
       380     87.0158    159.3551 307.8952947  +6.6028787     867.6172      1507.97     1050.577     91.61119     183.7355     367.5442      1.769     4.54     1217.899     64.83078      101.304         6     0.903     0.648 -38.89   0
       381    994.2472    145.1427 307.5184766  +6.6390071     1615.929     3304.274     4483.902     92.19658      183.955     367.9465      2.460     5.87     1175.254     64.83078     187.0625        25     1.639     1.129  67.38   0
       382    270.5587    139.3165 307.8196462  +6.6172988     14556.09     40665.82      48708.1     92.19658     183.8819     367.7271      2.676     6.44     1207.286     64.83078     1633.874        85     2.157     1.908 -84.93   0
       383    586.5172    141.0948 307.6881862  +6.6271150     1054.052     2719.212     3520.734     91.90435     184.3202     367.9465      2.695     8.71     1181.642     64.83078     126.1614        18     1.818     1.165  73.82   2
       384     15.9626    138.1955 307.9255601  +6.6092351     2177.543     6050.557     6735.082     91.16969     183.6623     367.5808      2.616     6.58      1223.78     64.83078     279.2578        46     1.914     1.678 -80.39   0
       385    702.1938    135.6049 307.6402626  +6.6332363     4471.756     10752.12     12507.64     91.46426     183.6623     367.6174      2.397     5.67     1180.886     64.83078     423.0028        52     1.908     1.604  87.52   0
       386    113.1328    133.1659 307.8853222  +6.6145692     2509.641     6889.645     7483.462     92.05058     184.0281       367.91      2.534     6.48     1214.296     64.83078     282.5217        44     1.819     1.645  78.53   0
       387    383.7251    129.0317 307.7729315  +6.6253291     1935.769     5561.549     6636.447     92.05058     184.0281     367.7637      2.674     7.39     1191.088     64.83078     209.5627        48     1.893     1.802 -83.86   0
       388    346.8401    128.9932 307.7882724  +6.6241125     1269.215     2831.329     3538.499     91.46426     183.5891     367.4344      2.280     6.79     1196.474     64.83078     157.0817        15     1.788     0.724  87.22   3
       389    349.6314    127.2429 307.7871708  +6.6249286     1401.972     2457.286     3311.262      91.6112     183.8819     367.6174      2.227     6.92      1195.95     64.83078     185.1278        16     1.542     0.871 -88.83   3
       390    102.6625    127.8387 307.8898571  +6.6164184     912.5125     2468.779      3027.14     92.19658      183.955     367.8734      2.594     7.14     1214.647     64.83078     107.3164        13     1.706     0.838 -26.99   2
       391    994.7205    121.6294 307.5190703  +6.6487338     1207.274     2213.508     2209.885     92.05058      183.955     367.7637      1.955     6.96     1172.921     64.83078     159.1121        15     1.453     1.103  69.58   0
       392    200.1380    116.9118 307.8496909  +6.6241952     2782.238     7324.169     8014.208     92.19658     184.1742     367.8734      2.466     6.31     1209.797     64.83078     312.3945        48     1.922     1.642 -78.32   0
       393     82.7698    116.7559 307.8985056  +6.6203287     1037.647     2898.789     3152.217     91.75789      183.955      367.654      2.651     9.70     1215.931     64.83078     127.9371        26     2.018     1.300  89.64   0
       394    661.7240    115.5176 307.6577713  +6.6401843     3383.181     8429.976     9635.732     92.34235     184.3202     367.9465      2.474     5.97     1180.111     64.83078     321.7095        49     1.865     1.631  79.28   0
       395    614.0444    113.0239 307.6776854  +6.6396255     4836.204     12778.75     15051.73      91.6112      183.955      367.654      2.568     6.66     1180.745     64.83078      483.686        60     2.084     1.725  69.18   3
       396    617.3964    104.3379 307.6765844  +6.6433244     27553.37     71258.98     82739.68     91.46426     183.6623      367.471      2.532     5.84     1180.396     64.83078     2595.778        92     2.078     1.846  89.90   3
       397    341.1640    108.7241 307.7913189  +6.6322936     1948.296     5578.304     6768.736     92.05058     184.0281     367.8369      2.704     7.59     1197.404     64.83078     236.2762        48     1.994     1.703 -80.24   0
       398    987.4332    107.4160 307.5225792  +6.6543619     781.0009     1503.997     1447.581     91.75789     183.6623      367.654      1.946     6.56     1171.749     64.83078      112.344         8     1.507     0.801  61.44   0
       399    524.1929    109.0036 307.7151899  +6.6382898     685.2009     1987.465     2739.092     91.46426     183.5891      367.654      3.050     5.29      1180.79     64.83078     120.0162         6     1.439     0.548  42.88   2
       400    295.0731     99.2889 307.8108067  +6.6346492     1323.179     2660.277     3566.944     92.19658     184.2472     367.8369      2.152     7.02     1205.347     64.83078     171.1819        16     1.715     0.806  54.46   3
       401    298.0522     97.7324 307.8096204  +6.6353916     1616.879     2980.791     4133.641     92.05058     183.8819     367.7271      2.217     8.12     1204.825     64.83078     198.1169        21     1.832     1.007  46.88   3
       402    666.0314     92.5947 307.6567532  +6.6497948      668.343     1359.915     1425.853     91.46426     183.8087     367.5442      2.515     4.24     1178.926     64.83078     88.46484         5     0.813     0.632 -85.90   0
       403      2.3569     81.1480 307.9331550  +6.6323377     3748.857     8636.461     14998.19      91.6112      162.693     295.6284      4.519    10.69     1223.467     64.83078     546.3163        84     4.230     1.483  87.58  26
       404    681.6116     88.2273 307.6504206  +6.6521174     1735.556     4331.424     4722.443     91.75789     183.7355     367.7271      2.317     6.82     1178.508     64.83078     205.2604        31     1.635     1.478  86.65   0
       405    423.5755     79.4327 307.7580357  +6.6471437     1840.245     5220.653     5002.771     91.46426     183.6623     367.5442      2.535     8.45     1185.521     64.83078     201.2816        38     1.828     1.582  88.33   0
       406    895.9532     74.4847 307.5617354  +6.6649239      2563.58     5468.492     4784.338     92.19657      183.955     367.8003      2.087     5.85     1172.128     64.83078     293.7554        32     1.637     1.353  65.29   0
       407    877.9124     75.3970 307.5692083  +6.6639475     1307.567     2796.313     3232.624     91.46426     183.5158     367.5076      2.210     6.15     1172.584     64.83078     164.7845        22     1.351     1.263  67.39   0
       408    587.9867     73.8829 307.6898441  +6.6549217     892.4141     2173.585     2279.786     91.75789     183.6623     367.6174      2.347     7.92     1179.228     64.83078     113.6348        13     1.454     1.206  75.47   0
       409    387.0465     71.1491 307.7735082  +6.6493445     1114.633     2620.627     2577.574     92.34234     183.8087     367.8734      2.378     7.40     1190.155     64.83078     122.3822        14     1.343     1.142  80.43   0
       410    135.2048     68.2421 307.8783450  +6.6421204      1525.23     4300.458     5120.165     91.46426     183.5891      367.471      2.624     9.29     1210.222     64.83078     168.1193        33     1.786     1.446 -78.49   0
       411     16.9014     66.1922 307.9276142  +6.6390018      6602.77     17202.01      20915.8     91.90435     183.5158     367.5808      2.607     5.92     1220.021     64.83078     739.7346        66     2.054     1.786  88.46   0
       412    284.4098     66.0046 307.8163684  +6.6480383     640.5682     1536.813     2653.936     91.61119     183.6623     367.6174      3.424     4.10     1205.391     64.83078     96.71973         5     0.799     0.600   0.55   0
       413    818.6005     60.4928 307.5943794  +6.6681309      3764.79     8364.503     8614.274      91.6112     183.4425     367.3978      2.213     5.57     1172.754     64.83078     386.1753        43     1.788     1.477  81.86   0
       414    763.5911     60.9454 307.6172439  +6.6661138     1953.723     4358.534     4551.269     91.46426     183.8819      367.471      2.232     5.66     1174.801     64.83078     242.6191        30     1.551     1.373  65.34   0
       415     57.1398     58.1494 307.9111530  +6.6436724     1675.309     4135.971     4307.567     92.19657     183.8819     367.8003      2.492     7.03     1214.996     64.83078     171.1613        32     1.696     1.475 -82.22   0
       416      1.1874     53.5740 307.9345777  +6.6436857     886.3647     1556.043     1592.949      77.4504     143.3567     273.9022      2.085     4.81     1220.311     64.83078     203.1069         8     1.762     0.372  86.13  24
       417    579.8567     54.8094 307.6938694  +6.6625277     707.1271      1491.91     1375.982     91.46426     183.8819      367.471      1.986     4.75     1178.491     64.83078     97.74976         6     1.117     0.573  22.65   0
       418     73.3659     50.4729 307.9046655  +6.6473865     634.9719     917.3883     837.1652     92.05058     183.8819     367.7637      1.419     3.46     1212.765     64.83078     84.50916         5     1.085     0.318 -69.60   0
       419    758.3459     48.2431 307.6198536  +6.6711852      1151.39     2639.288     3199.102     92.19658      183.955     367.8003      2.232     8.26     1173.752     64.83078      127.931        22     1.682     1.252  52.84   0
       420     84.9707     42.3630 307.9001144  +6.6511246     5161.512     13063.44     15363.18     91.75789     183.6623     367.6174      2.494     5.90      1211.08     64.83078     571.2747        61     2.011     1.716 -89.46   0
       421    413.8917     41.9463 307.7633310  +6.6623015     1211.977     3341.584     3481.605     92.05058     183.7355     367.9831      2.554    10.00     1186.571     64.83078     153.3663        28     2.061     1.352 -54.01   0
       422    627.5903     34.0544 307.6747168  +6.6726904     9901.124     24595.88     28262.31     91.46426     183.8819      367.471      2.456     5.71     1176.922     64.83078       949.09        69     1.939     1.760 -89.69   0
       423    527.4020     30.3557 307.7165122  +6.6708773     2701.054     6669.417     7740.786     91.46426     183.4425     367.3978      2.475     6.45     1178.552     64.83078     264.7258        42     1.771     1.651 -67.99   0
       424    245.4149     30.3183 307.8337950  +6.6614715     848.4319     2532.536     4438.749     91.75789     183.6623     367.6174      7.569     9.90     1206.121     64.83078     118.0435        18     1.890     1.445   8.98   1
       425    883.7485   1019.1397 307.5350359  +6.2743735     1665.173      2291.93     2044.128     92.19658     183.8819     347.4156      1.514     4.40     1239.736     64.83078     196.0499        14     1.137     0.904 -88.45  16
       426    742.6553   1017.0596 307.5937449  +6.2705426     611.4861     1428.116     2109.313     92.34234      183.955       365.71      2.899     7.83     1241.911     64.83078     88.59314         9     1.990     0.862  61.50  16
       427     19.2520     26.0248 307.9280004  +6.6556685     1398.992     3021.103      3021.02     91.75789      183.955     367.6906      2.114     7.72     1215.446     64.83078      177.359        21     1.567     1.233 -89.54   0
       428    910.4719     25.5713 307.5573429  +6.6856073     1380.993     2785.739     2841.356     92.05058      183.955     367.7637      2.090     5.74     1167.727     64.83078     159.6785        19     1.413     1.070  66.43   0
       429    206.4554   1017.7168 307.8165610  +6.2523885     1853.126     3500.728     3452.218     92.19658      183.955     361.4559      1.916     4.64     1250.264     64.83078     206.7206        22     1.289     1.193  -8.35  16
       430    709.5822   1014.6998 307.6075696  +6.2704170     6661.874     11001.31     11765.47     92.19658     183.8087     367.5442      1.798     3.59     1242.123     64.83078     790.2793        36     1.480     1.223 -86.02  16
       431    424.4978   1014.7690 307.7260467  +6.2608892     3364.398      5753.06     6915.654     92.34235     183.6623       367.91      1.954     4.47     1247.043     64.83078     391.2194        32     1.517     1.341  54.59  16
       432    565.7006   1013.8365 307.6673957  +6.2659826     3499.451     6608.559     7979.437     92.19658     183.8087     368.0196      2.052     4.40     1246.183     64.83078     398.1696        33     1.517     1.265 -79.46   0
       433    701.9194   1014.0984 307.6107745  +6.2704103     1170.227     2008.156     2955.028     92.05058     184.3931     367.8734      2.244     5.46     1242.074     64.83078     170.7808        12     1.171     0.962  62.36   0
       434    741.3647   1009.5336 307.5945346  +6.2736080      1080.88     1711.516     2360.592     92.05058     184.0281     367.8734      1.774     4.28     1241.667     64.83078     156.6184        12     1.055     0.843  32.60   0
       435    949.0810   1004.1313 307.5083872  +6.2827415     6828.724     10194.36     10204.61     92.48788     184.2472     367.8369      1.575     3.28     1236.186     64.83078      905.382        27     1.292     1.076  77.74   0
       436    708.9840   1002.1998 307.6082391  +6.2755595     2380.449     4314.337     5443.529     91.75789     183.4425     367.5076      2.079     4.41     1241.534     64.83078     299.2238        26     1.401     1.214 -72.14   0
       437    703.8793   1004.2479 307.6102917  +6.2745438     943.3679     1959.714      3108.35     92.19658     184.0281     367.7271      2.355     4.55     1241.636     64.83078     136.5719         7     0.980     0.601  77.64   0
       438    233.9583   1004.1596 307.8055902  +6.2589070     1036.414     1907.008     1805.878     91.90435      183.955      367.654      1.902     5.91     1250.255     64.83078     140.5851        13     1.172     1.137  72.71   0
