#   1 NUMBER                 Running object number                                     
#   2 X_IMAGE                Object position along x                                    [pixel]
#   3 Y_IMAGE                Object position along y                                    [pixel]
#   4 ALPHA_J2000            Right ascension of barycenter (J2000)                      [deg]
#   5 DELTA_J2000            Declination of barycenter (J2000)                          [deg]
#   6 FLUX_APER              Flux vector within fixed circular aperture(s)              [count]
#   9 FLUXERR_APER           RMS error vector for aperture flux(es)                     [count]
#  12 FLUX_RADIUS            Fraction-of-light radii                                    [pixel]
#  13 FWHM_IMAGE             FWHM assuming a gaussian core                              [pixel]
#  14 BACKGROUND             Background at centroid position                            [count]
#  15 THRESHOLD              Detection threshold above background                       [count]
#  16 FLUX_MAX               Peak flux above background                                 [count]
#  17 ISOAREA_IMAGE          Isophotal area above Analysis threshold                    [pixel**2]
#  18 A_IMAGE                Profile RMS along major axis                               [pixel]
#  19 B_IMAGE                Profile RMS along minor axis                               [pixel]
#  20 THETA_IMAGE            Position angle (CCW/x)                                     [deg]
#  21 FLAGS                  Extraction flags                                          
         1      6.1027     89.0043 307.9358911  +6.6321848     725161.6      1611274      1776972     78.04105     155.8956     296.9429      2.239    12.23     842.9666     55.05138     62191.58       407     2.358     1.764 -54.02  28
         2    182.9733     16.0170 307.8648714  +6.6682692     9998.886     16563.12     17436.43     77.91668     155.9578     312.2263      1.729     4.47     836.9421     55.05138     1344.973        39     1.720     0.982 -45.18   0
         3    928.4627     13.8106 307.5551758  +6.6941741     3952.105     6411.585     6984.833     77.79211     156.0199     312.1331      1.759     4.65     825.1613     55.05138     530.3317        27     1.618     0.878 -39.76   0
         4    527.1473     14.1215 307.7219263  +6.6806148     2684.114     4355.749     4569.384     78.28918     156.2063     312.3195      1.692     4.76     827.0599     55.05138     377.5822        21     1.548     0.820 -40.73   0
         5    729.4549     12.4255 307.6379183  +6.6880927     1878.922     3012.813      3383.25     77.91668     156.2063     312.1642      1.713     4.60     825.4633     55.05138     291.4469        19     1.635     0.726 -49.07   0
         6    465.2900     12.7028 307.7476773  +6.6791253     1793.632     2679.065     2411.422     78.28919     156.6403     312.3195      1.629     4.48     828.0278     55.05138     268.6485        17     1.466     0.771 -51.39   0
         7    993.2534     10.2330 307.5283722  +6.6978140     1839.521     2981.295     3017.272     78.16521     156.1442     312.2574      1.737     4.82     820.7016     55.05138     243.2656        19     1.560     0.824 -40.09  16
         8    712.7858      6.5957 307.6450407  +6.6899412     7025.543      11006.7     11462.41     77.91668     155.9578     301.5128      1.656     4.45     825.3545     55.05138     1051.548        32     1.617     0.901 -40.49  16
         9    632.9171      5.6708 307.6782601  +6.6876484     3602.793     5979.731     6213.604     78.53654     156.4545      293.196      1.761     4.66     826.4509     55.05138     482.3877        24     1.638     0.806 -47.06  16
        10    334.6984      5.5488 307.8021816  +6.6776928     1075.888     1480.132     1344.485     78.16521     156.2063     291.9032      1.526     3.85     836.7402     55.05138     148.0725        12     1.055     0.788 -38.71  16
        11    433.0114      2.2807 307.7614408  +6.6823438     5909.774     8473.892     8937.462     77.04047     137.3772      249.795      1.543     4.74     828.6254     55.05138     786.7561        24     1.452     0.855 -36.36  24
        12    388.9564      3.6913 307.7796991  +6.6802823     743.1357     1281.217     1116.569     78.28918     151.9897     270.0909      1.774     5.76     832.0873     55.05138     106.5044        10     1.489     0.628 -43.27  16
        13     33.8012      2.0734 307.9273234  +6.6690001     7452.608     10332.52     10954.63     75.38624     134.3795     246.4729      1.457     4.32     838.3264     55.05138     1051.758        24     1.360     0.875 -26.02  24
        14    679.0727      1.6287 307.6592167  +6.6908628     710.2606     938.4471     796.6989     71.69373     128.7026     239.9331      1.224     2.73     825.3389     55.05138       156.99         6     0.795     0.600 -35.68  24
        15    424.0911    997.3000 307.7316485  +6.2713183     879.6708     1502.203     1519.865     78.28918     156.5784     312.2884      1.845     5.90     860.0892     55.05138     123.0867        12     1.494     0.655 -27.73   0
        16    721.4773   1022.5688 307.6073260  +6.2708484     6602.988     9821.944     10492.81     78.16521      139.479     252.3444      1.655     4.91     859.5715     55.05138     824.6641        26     1.515     0.918 -31.71  24
        17    713.6789   1022.1703 307.6105772  +6.2707521     1098.331     1859.962     2245.806     78.16521     143.9949     258.2327      1.951     6.54     859.7134     55.05138     131.5895        16     1.556     0.770 -45.61  24
        18    589.2844   1023.5804 307.6621780  +6.2660067     8889.762     11968.06     13407.04     68.93524     125.3432     236.5135      1.274     3.15     860.5215     55.05138     2449.089        33     1.701     0.771   0.73  24
        19    577.4659   1021.9268 307.6671406  +6.2662935     3967.325     6438.289     7126.135     78.41296     146.4657     261.5538      1.783     4.36     860.4857     55.05138      454.054        27     1.524     0.988 -43.47  24
        20    436.3770   1022.6656 307.7256943  +6.2612598         3583     5328.969     6491.968     77.29183     137.9408     250.6864      1.630     5.39      860.127     55.05138     431.3075        23     1.500     0.890 -29.62  24
        21    219.2253   1023.8066 307.8158124  +6.2534982     483.7676      496.944     461.8787      65.7674     121.8117     232.5854      0.833     2.52     859.5908     55.05138     164.5331         5     0.878     0.391   4.05  24
        22    271.5302    994.2464 307.7950928  +6.2674576     990.7226     1640.651     1449.535     78.28919     156.1442     312.3195      1.704     5.71     860.8131     55.05138     132.9847        12     1.338     0.687 -50.59   0
        23    915.5255    991.0134 307.5278126  +6.2903583     7584.021     13682.16     15114.68     77.79211     155.9578     312.1331      1.939     4.52      855.417     55.05138     856.3906        47     1.773     1.223 -43.88   0
        24    546.8411    990.3512 307.6809166  +6.2783017     8053.871     12789.81     14156.89     78.28918     156.1442     312.2574      1.703     4.37     860.1464     55.05138     1048.436        38     1.659     0.992 -40.34   0
        25   1010.6446    986.7711 307.4884591  +6.2952833     3915.947     7392.876     7802.689     77.91668     156.2684     312.2263      1.979     4.70       852.88     55.05138     445.8543        37     1.696     1.237 -44.03   0
        26    889.0215    987.1985 307.5389453  +6.2910482     10872.77     19509.99     20988.11     77.91668     155.8956     312.0399      1.905     4.53     855.8302     55.05138     1238.954        52     1.795     1.223 -41.42   0
        27    602.0468    987.6399 307.6580861  +6.2812700     1299.037     2330.792     2784.956     78.16521     156.2063     312.1331      2.118     6.21     860.1166     55.05138     150.9548        18     1.522     0.895 -51.18   0
        28    533.2786    986.2011 307.6866872  +6.2795604     3963.251     6890.347       7816.3     77.54237     155.6465      312.102      1.918     4.79     860.1021     55.05138     517.5846        36     1.689     1.294 -18.85   0
        29    642.9651    985.5687 307.6411660  +6.2834949     1446.328     2270.307     2311.751     77.91667     155.9578      312.071      1.743     5.28      859.898     55.05138     174.7087        15     1.331     0.750 -39.31   0
        30    486.2382    982.8003 307.7063328  +6.2793876     2086.894     3378.454      3363.13     77.29183     156.0199     312.1331      1.676     4.59     860.0697     55.05138     297.6172        17     1.467     0.747 -50.59   0
        31     67.6485    984.8482 307.8800569  +6.2644811     877.8744     1247.631     1176.576     78.28918     156.0821     312.3195      1.690     5.67     857.4901     55.05138     107.3972        11     1.228     0.738 -31.82   0
        32    920.8605    974.7689 307.5261412  +6.2972420     37792.39      67443.3     73071.04     78.04105     156.2684     312.2884      1.927     4.49     854.8983     55.05138       4357.9        82     1.848     1.334 -42.49   0
        33    326.5179    975.6050 307.7728903  +6.2769991     579.6924     911.9922      790.732     77.79211     155.8333      312.102      1.987     4.86        860.9     55.05138     80.29578         7     1.144     0.585 -41.96   0
        34    227.9109    973.2476 307.8139105  +6.2746598     1545.834     2741.595     2881.531     78.28918     156.0821     312.4747      1.992     5.05     859.1137     55.05138     199.3108        20     1.527     0.871 -41.10   0
        35    115.9666    972.2350 307.8604221  +6.2713135     797.5144     1192.569     923.2346     77.91667     155.9578      312.071      1.468     4.30     858.0988     55.05138     118.1262         8     1.080     0.489 -52.12   0
        36    626.6131    971.4075 307.6484310  +6.2887931     896.3164     1408.672      1171.32     77.91668     156.0199     312.2263      1.653     5.03       859.75     55.05138     132.6932        12     1.248     0.689 -53.55   0
        37    818.7529    968.5690 307.5687463  +6.2963911     2093.994     3620.834     3323.712     77.91668     156.2063     312.2263      1.854     4.61     856.6959     55.05138     263.6016        24     1.502     1.011 -51.37   0
        38    767.0051    966.3663 307.5903070  +6.2955708     6140.095     10299.98      11099.4     77.54237     156.0199      312.102      1.790     4.42      857.572     55.05138     806.3239        38     1.707     1.032 -41.97   0
        39    236.3771    965.4594 307.8106579  +6.2781592     1513.458     2399.575     2598.036     77.91668     156.1442     312.1952      1.632     5.11     859.2065     55.05138     189.0216        17     1.565     0.780 -43.11   0
        40    553.3932    965.8442 307.6790196  +6.2886374     885.5795     1478.583      1699.71     77.79211     155.9578     312.0088      1.699     5.16     859.9109     55.05138     118.3394         9     1.258     0.599 -49.74   0
        41    200.8752    965.0073 307.8254132  +6.2771525     821.8436     1397.845     1601.992     77.91668     155.7088     312.1952      1.705     5.37     858.6909     55.05138     115.2388        11     1.358     0.600 -34.88   0
        42     61.3378    963.4605 307.8833990  +6.2730970     2575.625     4097.682     4052.379     78.28919     156.2063     312.3505      1.694     4.24     857.0226     55.05138     349.2501        24     1.651     0.806 -44.02   0
        43    955.1846    961.6047 307.5123295  +6.3038218     5798.896     10453.53     10941.05     77.91668     155.8956     312.1642      1.904     4.65     853.8042     55.05138     633.8781        44     1.824     1.177 -42.85   0
        44    638.0976    955.3055 307.6442030  +6.2958243     598.9885     989.6207     681.4211     78.28918     156.7641     312.1642      1.693     5.38     859.3571     55.05138     91.54987         6     1.227     0.667 -40.53   0
        45    929.0373    952.9680 307.5234757  +6.3065144     1679.313     3118.162     3310.427     77.91668     155.9578      312.102      1.922     5.32     854.1187     55.05138     209.4042        21     1.512     0.943 -40.06   0
        46    788.4010    949.4361 307.5819905  +6.3032748     1304.293     1977.739     2005.318     77.41721     156.0199     312.1331      1.593     4.92     857.0769     55.05138     169.2457        17     1.466     0.827 -45.79   0
        47    649.6956    949.0598 307.6395970  +6.2987907     4424.031     6984.747     7295.917     78.16521     156.2063     312.4126      1.683     4.17     859.0806     55.05138       577.67        29     1.621     0.913 -47.74   0
        48    261.7267    949.2574 307.8006789  +6.2856988     4295.623     6816.914     6774.117     78.28919     156.2063     312.2884      1.697     4.52     859.4308     55.05138     581.8793        26     1.578     0.894 -38.91   0
        49    471.8592    947.4980 307.7134900  +6.2934778     1073.482     1640.507     1499.103     78.04105     156.1442     312.4437      1.697     4.94     860.0165     55.05138     165.0566        14     1.378     0.825 -52.54   0
        50     30.6597    946.6441 307.8967038  +6.2790054     1982.922     3256.783     3299.202     78.16521     156.1442     312.4437      1.707     4.58     856.4698     55.05138     289.8794        19     1.520     0.748 -38.45   0
        51    881.6130    945.4086 307.5434209  +6.3080515      833.699     1241.171     573.6868     77.91668     156.0199     312.2263      1.701     6.12     855.0912     55.05138      112.421        10     1.322     0.796 -33.79   0
        52    574.2158    941.8962 307.6711782  +6.2992204     1638.446     2686.383     3047.918     78.04105     155.9578     312.1331      1.827     5.53     859.6346     55.05138     219.6685        21     1.675     0.872 -45.44   0
        53    972.7974    943.3681 307.5056263  +6.3119375     440.0901     869.0837     688.9179     77.66734     156.0199      312.102      1.614     3.77     853.0489     55.05138     79.17786         5     1.033     0.394  85.29   0
        54    953.3869    942.4080 307.5137184  +6.3116861     619.5486     1280.369     1567.362     77.91668     156.0199     312.1952      1.883     6.85     853.3856     55.05138     117.2001        12     1.694     0.776 -51.21   0
        55   1004.2419    942.8565 307.4925865  +6.3131977     677.9497     896.0856      1903.23     78.16521     156.1442     312.3505      1.583     3.48     852.4911     55.05138     115.0698         5     0.736     0.476 -77.26   2
        56   1006.7216    940.8214 307.4916249  +6.3141205     598.3867     1167.247     1298.917     77.91668     155.9578     312.3195      2.058     3.92     852.4122     55.05138     108.9634         5     0.939     0.469  42.65   2
        57    297.9231    942.8782 307.7858650  +6.2895479     807.0685     1303.267     1600.373     78.53654     156.4545     312.4126      1.696     5.66      859.782     55.05138     106.0251        11     1.483     0.608 -19.63   0
        58    613.7232    937.7133 307.6549144  +6.3022702     1176.206     1787.984     1461.383     78.28919     156.5164     312.3816      1.530     4.77      859.436     55.05138     158.8322        13     1.315     0.687 -41.85   0
        59     63.3050    938.0213 307.8834412  +6.2836638     576.0313     1081.283     1382.945     78.16521     156.0199     312.1642      1.953     5.13     856.7338     55.05138     98.91333         9     1.518     0.491 -44.76   0
        60     57.5487    938.1549 307.8858266  +6.2834149     585.0682     940.3194     1373.643     78.41296     156.1442     312.3505      2.066     3.46     856.6937     55.05138      87.4765         5     0.762     0.453 -70.41   0
        61    293.3771    935.7250 307.7879935  +6.2923480     1376.704     2182.039     2658.876     77.91668     156.0821     312.2574      1.640     5.30     859.5131     55.05138     219.5016        12     1.340     0.691 -37.02   0
        62    761.0096    931.5681 307.5939632  +6.3097349     667.9313      1314.23     1659.419     77.79211     155.9578     312.1642      2.245     6.40     857.2159     55.05138     102.1532         8     1.634     0.704 -49.07   0
        63    897.9084    928.3567 307.5372256  +6.3156346      6510.39     10767.01     11330.99     78.28918     156.2063     312.4126      1.770     4.36     854.2995     55.05138     797.5503        36     1.665     1.032 -42.54   0
        64    433.9262    925.4383 307.7299823  +6.3013117     1986.049       3090.6     3336.814     78.16521     156.2063     312.3816      1.670     5.54     859.9118     55.05138     282.7324        20     1.677     0.763 -35.44   0
        65    335.3961    923.9154 307.7709447  +6.2986338     9386.172     14984.92     15644.81     77.79211     155.8333     312.0088      1.693     4.23     859.7098     55.05138     1359.615        36     1.688     0.923 -42.28   0
        66    255.4233    922.8231 307.8041869  +6.2963985     7046.312     10926.79     11243.76     77.79211     156.0199     312.2574      1.681     4.50     858.8737     55.05138     946.5776        34     1.596     0.976 -45.49   0
        67    583.5514    917.3411 307.6681267  +6.3096692     1167.012     1862.405     2246.234     78.28919     156.2063     312.3816      1.824     6.03     859.2205     55.05138     162.5111        14     1.682     0.608 -33.98   0
        68    913.3639    913.8064 307.5312950  +6.3221570     906.9948     1718.827     2143.386     77.41721     155.9578      312.102      2.146     5.05     853.6514     55.05138     128.2925        10     1.418     0.509 -45.19   0
        69    869.6707    912.3661 307.5494866  +6.3212925     776.7962     1292.098     940.1531     78.16521     156.2063     312.3816      1.686     5.37     854.9277     55.05138     111.5074        11     1.235     0.834  -6.60   0
        70    412.0535    911.6270 307.7395289  +6.3062790     711.9896     983.5862     1357.485     78.04105     156.3304     312.2574      1.662     4.19     859.6628     55.05138     139.9942         7     1.189     0.421 -51.90   0
        71    980.5558    909.8198 307.5035272  +6.3260451     552.4944     926.1477     1413.139     77.79211     156.0821     312.1642      1.478     3.58     851.7766     55.05138     96.79944         5     0.989     0.374  -5.50   0
        72    750.0311    906.5925 307.5993594  +6.3196776     1471.784     2458.488     2831.053     77.79211     156.0199      312.102      1.820     4.47     856.9926     55.05138      239.215        16     1.506     0.732 -35.76   0
        73    573.5219    906.9695 307.6726397  +6.3136146     620.4262     923.1281     680.6686     78.16521     156.2684     312.2884      1.667     4.95     859.0804     55.05138     103.7714         8     1.327     0.523 -54.86   0
        74    614.5155    902.9868 307.6557516  +6.3166315     751.6047     1399.978     1481.487     77.91667     156.0821     312.1642      2.082     5.45     858.6326     55.05138      153.554        11     1.564     0.606 -32.40   0
        75    981.1471    902.2397 307.5035353  +6.3291938      1065.16     1915.923     2408.305     78.16521     156.2063     312.2884      2.031     6.15     851.4052     55.05138     146.1959        14     1.578     0.678 -38.93   0
        76    625.5631    902.9621 307.6511650  +6.3170116      704.462     980.2468     1126.445     78.04105     156.0821     312.1952      1.655     4.07     858.4482     55.05138     131.6212         8     1.166     0.477 -24.38   0
        77    535.0034    902.3442 307.6887892  +6.3142333     1224.574       1570.3     1279.373     77.66734     156.0199     312.0088      1.516     6.14     859.2549     55.05138     177.2017        15     1.504     0.706 -31.85   0
        78      1.4940    903.0875 307.9102844  +6.2960021     623.1945     755.7716     334.7683     70.18998     126.8812     237.7404      1.164     3.19     855.5975     55.05138     112.3885         6     0.777     0.500 -88.55  24
        79    668.2902    900.0265 307.6335218  +6.3196536     2477.071     4003.361     4276.068     78.41296     155.9578     312.1642      1.685     4.14     857.6765     55.05138     348.3551        21     1.547     0.780 -38.57   0
        80    475.9794    898.8351 307.7134156  +6.3137034     446.0303     677.4918       674.78     77.79211     156.0199      312.102      1.511     3.88     859.4016     55.05138     62.94574         5     0.830     0.520 -56.24   0
        81     64.9579    895.9296 307.8841760  +6.3010938     2802.488     4612.327     4642.541     78.16521     156.2063     312.3816      1.695     4.24     855.8732     55.05138     383.0702        24     1.550     0.920 -47.69   0
        82    959.1354    896.9984 307.5128511  +6.3306230     517.8961     714.3683     1283.544     77.66734     155.9578      312.102      1.511     3.97     851.8826     55.05138     80.37488         5     0.856     0.528 -30.77   0
        83    829.0215    896.4435 307.5668994  +6.3265073     855.1353     1236.333     1044.487     77.79211     156.0821     312.1331      1.612     4.94     855.4795     55.05138     102.8917        10     1.095     0.630 -64.76   0
        84    565.3105    897.0849 307.6763814  +6.3174197     594.7684     884.2249     1026.016     78.04105     156.4545     312.4437      1.505     2.41      858.972     55.05138     125.2324         5     0.837     0.458 -84.56   0
        85    946.9293    895.5187 307.5179692  +6.3308265     859.6288     1313.586     1260.308     78.53654     156.5164     312.3505      1.707     5.84     852.2413     55.05138      122.445        10     1.159     0.828 -50.97   0
        86    208.6194    894.7936 307.8245651  +6.3063955     2034.026     3342.678      3331.04     77.91668     155.8956     312.1331      1.726     4.62     858.0944     55.05138     274.6034        18     1.518     0.722 -40.44   0
        87     82.7909    895.0665 307.8768009  +6.3020503     1760.513     2948.298     2940.117     77.79211     156.0199     312.2263      1.797     5.20     855.9878     55.05138     238.8916        16     1.540     0.665 -49.60   0
        88    965.9239    892.5129 307.5101823  +6.3327011     504.2102     624.7983     899.1818     78.28918     156.5164     312.3816      1.493     4.73     851.5031     55.05138     85.25201         5     1.059     0.599  72.68   0
        89    347.3484    891.1635 307.7670847  +6.3125545     933.2118     1408.221     1758.323     78.16521     156.2063     312.2884      1.674     4.78     859.4225     55.05138     154.8242        10     1.080     0.696 -49.46   0
        90    242.4881    891.5046 307.8106132  +6.3088916     816.3334     1084.968     1022.037     78.28919     156.5784     312.3816      1.401     4.47     858.6372     55.05138     129.3557        10     1.182     0.644 -45.41   0
        91    663.1538    888.9619 307.6360260  +6.3240491     6677.773     10820.88      11601.6     78.04105     156.1442     312.1952      1.720     4.35     857.5079     55.05138      928.081        35     1.690     0.923 -43.47   0
        92    800.5220    889.5334 307.5789654  +6.3284074     679.4655     983.4158     808.4195     78.41296     156.2684     312.2884      1.484     5.45     855.7355     55.05138     105.4368         7     1.251     0.669 -34.70   0
        93     23.1156    887.0848 307.9018477  +6.3033358     1170.762     1894.748      1910.93     78.04105     156.3304     312.4126      1.562     4.79     855.3127     55.05138     160.2662        15     1.388     0.717 -48.72   0
        94    900.9409    885.3029 307.5374081  +6.3335084     2813.674     4614.789     4360.944     78.04105     156.2063     312.4437      1.734     4.33     853.5934     55.05138     330.2202        25     1.520     0.988 -42.91   0
        95     36.1678    885.5258 307.8964811  +6.3044188     1110.716     1820.792     1764.122     78.16521     156.2063     312.2884      1.789     5.99      855.397     55.05138     175.4684        13     1.455     0.703 -44.47   0
        96    346.1158    882.1068 307.7679014  +6.3162515     16034.61     25182.46     26202.17     78.04105     156.6403     312.4436      1.642     4.34     859.3073     55.05138       2200.4        43     1.657     0.981 -41.82   0
        97     80.7691    883.0468 307.8780461  +6.3069437     1364.304     1986.987     2274.365     77.79211     156.2063     312.2263      1.464     4.25     855.7194     55.05138     200.5109        16     1.422     0.748 -47.27   0
        98    216.7350    881.7426 307.8216354  +6.3120555      1148.63      1902.14     1494.262     78.41296     156.1442     312.3505      1.691     5.29     858.2227     55.05138     154.3454        14     1.307     0.896 -41.80   0
        99    396.6180    881.3825 307.7469559  +6.3182456     705.1327     1217.982     1556.333     78.04105     155.8956     312.2574      1.759     3.15     859.1316     55.05138     141.8589         8     1.010     0.612 -36.53   0
       100    423.7774    872.9703 307.7359615  +6.3226292     871.4232     1379.031     929.3166     77.66734     156.0199     312.1642      1.546     5.63     858.8914     55.05138     148.4064        13     1.436     0.668 -38.34   0
       101    109.1624    872.9039 307.8665993  +6.3120860     1723.692     2762.153     2417.976     78.28918     156.0821     312.4436      1.597     4.06     855.8835     55.05138     267.4559        18     1.374     0.770 -43.93   0
       102    677.1971    870.1262 307.6308268  +6.3322942     758.5082     1717.672     2221.662     77.79211     155.7088     312.1952      2.754     8.77     856.9212     55.05138     119.9303        19     2.452     0.877 -69.78   0
       103    503.5291    870.4267 307.7029313  +6.3263536      675.278     1000.571     1177.512     77.91668     156.0821     312.2574      1.721     3.70     858.8207     55.05138     105.1266         6     0.920     0.427 -71.52   0
       104    890.9915    867.1097 307.5421489  +6.3406862     1775.392     2863.066     2563.708     77.91668     155.8956      312.102      1.731     4.87     853.7067     55.05138     219.8541        20     1.573     0.811 -39.87   0
       105    861.9634    866.5255 307.5542226  +6.3399579     1931.945     3119.902      2656.35     78.16521     156.2684     312.3505      1.660     4.39     854.6979     55.05138     261.7812        20     1.448     0.926 -37.39   0
       106    825.1824    865.9419 307.5695158  +6.3389700     2773.122     4589.265     5007.953     77.91667     156.1442      312.071      1.835     4.31     854.9209     55.05138     346.6393        20     1.390     0.891 -48.26   0
       107    561.2371    857.3917 307.6794066  +6.3336682     325004.2     509963.5       539293     77.54237     155.9578      312.071      1.704     4.38     858.0115     55.05138     41999.57       189     1.867     1.245 -45.23   0
       108     93.1007    866.2534 307.8734928  +6.3142906       2307.7     3856.074     4281.196     78.16521     156.2063     312.5367      1.801     4.70     855.4888     55.05138     357.2585        23     1.550     0.875 -44.30   0
       109    340.5674    864.6132 307.7707943  +6.3232864     607.4493      873.637     1053.408     77.79211     155.9578     312.2574      1.723     5.66      859.098     55.05138     101.9657         8     1.543     0.584 -36.35   0
       110    455.8548    864.3449 307.7229320  +6.3272657     507.3698      770.597     1435.435     78.53654     156.2063     312.3195      1.659     3.82     858.6908     55.05138     111.1628         5     0.867     0.483 -50.34   0
       111    405.4878    859.8771 307.7439966  +6.3274203     7697.688     11910.48        12577     78.28918     156.5164     312.3816      1.679     4.40     858.6321     55.05138     1097.704        32     1.619     0.881 -41.45   0
       112    649.1703    860.4667 307.6427891  +6.3353436     1228.687     1793.019      2140.25     78.04105     156.2063     312.2884      1.622     5.10     857.0121     55.05138     158.1082        15     1.395     0.779 -29.42   0
       113    348.6745    858.2979 307.7676407  +6.3261654     12393.11     19405.45     20788.63     77.79211     156.2684     312.2884      1.689     4.25     858.8666     55.05138     1790.912        38     1.659     0.928 -41.83   0
       114    899.5377    853.7122 307.5390487  +6.3465021      4914.48     8057.468     8716.463     78.16521     156.3925     312.3505      1.791     4.34     852.9781     55.05138     648.4216        34     1.797     0.980 -47.47   0
       115    667.1987    854.7153 307.6354959  +6.3383212     3454.709     5454.625     5795.693     77.54237     155.7711     312.0088      1.668     4.21     856.6185     55.05138     466.7786        25     1.607     0.823 -38.84   0
       116    739.2776    851.1022 307.6056859  +6.3422240     851.4844     1417.528     1273.485     77.91668     156.4545     312.3195      1.797     4.85     856.3322     55.05138     117.0377         9     1.063     0.626 -38.40   0
       117    642.0101    848.5796 307.6461615  +6.3400108     3361.916     5127.538     5567.436     77.91667     155.8956     312.1642      1.635     4.17     856.7712     55.05138     511.9618        24     1.503     0.905 -42.92   0
       118    830.3497    847.9036 307.5679745  +6.3465888     1552.333     2608.325     2581.455     78.16521     156.1442     312.4747      1.759     4.96     854.3353     55.05138     241.1976        19     1.631     0.761 -45.45   0
       119    184.9318    848.9905 307.8359452  +6.3245056     658.5316     946.3876     270.1393     77.79211     156.0199     312.1952      1.405     4.56     857.0587     55.05138     93.83032         7     1.023     0.702 -15.77   0
       120    634.2222    844.1799 307.6495432  +6.3415662     1928.648     3911.865     4458.853     78.04105     156.1442     312.2574      2.217     8.80     856.7161     55.05138     303.5983        31     2.514     0.860 -56.11   0
       121    957.2522    846.8333 307.5153121  +6.3512683     760.6614     1297.712     1101.204     78.16521     156.2063     312.2263      1.809     5.44     850.5688     55.05138     121.6741         8     1.246     0.671 -17.80   0
       122    918.5400    841.4630 307.5315678  +6.3521930     3070.159     5148.164     5776.039     78.28919     156.1442     312.3505      1.882     5.04     851.8926     55.05138     347.1093        30     1.707     1.075 -35.05   0
       123    328.7645    841.9017 307.7764602  +6.3322650     992.3703     1250.383     750.2087     78.28918     156.0821     312.4747      1.372     3.81     858.3818     55.05138     172.4116         9     1.125     0.581 -26.54   0
       124    376.5779    837.2928 307.7567613  +6.3357726     2727.583      4078.69      4028.92     78.28919     156.0199     312.1642      1.687     4.51     858.0166     55.05138     427.4119        21     1.511     0.769 -45.95   0
       125    512.6857    827.0326 307.7005879  +6.3445731     2950.422     4534.606     4522.396     78.28918     156.0199     312.3195      1.609     4.33     856.5018     55.05138      408.872        21     1.521     0.769 -39.16   0
       126    857.2203    826.0945 307.5575468  +6.3564893     931.4674     1461.833     1479.321     78.16521     156.0199     312.1642      1.632     4.86     853.2944     55.05138     155.6245        13     1.356     0.747 -34.17   0
       127    578.1260    824.5521 307.6734968  +6.3477898     897.2216     1564.457     1009.699     78.16521     156.2684     312.3195      1.844     5.43     856.2042     55.05138     132.5046        12     1.292     0.723 -33.43   0
       128    559.5903    823.2312 307.6812383  +6.3477142     5744.763     8908.189     9312.681     77.79211     156.0199     312.1642      1.654     4.74     855.9847     55.05138      862.483        28     1.580     0.824 -43.07   2
       129    566.2086    822.6050 307.6785110  +6.3481943     1174.049     1794.806     1920.142     77.66734     155.9578     312.1642      1.559     3.71     856.0242     55.05138     199.4267        13     1.307     0.630 -35.79   2
       130    895.3101    821.4271 307.5418855  +6.3596881     1413.648     2172.701     2022.535     78.41296     155.9578     312.1952      1.708     4.57     852.0464     55.05138     215.1859        16     1.437     0.717 -47.70   0
       131    477.4445    822.2131 307.7153840  +6.3453811      1587.94     2269.802     1579.678     77.66734     156.0199      312.071      1.598     4.95     856.6393     55.05138     218.5611        15     1.440     0.677 -39.10   0
       132    271.2225    822.9200 307.8009934  +6.3381675     705.3226     971.8972     928.6348     77.91667     155.8956     312.2884      1.664     4.64     857.8657     55.05138     132.4762         8     1.245     0.491 -43.67   0
       133    118.9400    821.1577 307.8642859  +6.3337745     1356.599     2039.831     2209.262     78.28918     156.2063     312.4126      1.585     4.13     855.2485     55.05138     179.6659        19     1.422     0.824 -45.46   0
       134    530.3499    817.0701 307.6935877  +6.3492776     19511.07     30447.89     32093.96     78.28918     156.1442     312.3505      1.669     4.37     855.6832     55.05138      2713.09        46     1.674     0.987 -44.11   0
       135    695.0901    820.0809 307.6250761  +6.3535513     676.8818     1199.145     1253.261     78.04105     156.3925     312.4126      1.562     3.94     855.5241     55.05138     115.1544         6     1.012     0.439 -50.79   0
       136    371.3753    818.7184 307.7595470  +6.3432652     747.8888     988.6139     622.4766     78.04105     155.9578     312.2884      1.342     4.58     857.4467     55.05138     108.3507         8     0.938     0.675 -70.30   0
       137    943.9634    815.4517 307.5218810  +6.3637790     3573.046     5861.627     6111.151     78.16521     156.2063     312.2884      1.736     4.63     850.3835     55.05138     464.3875        26     1.603     0.894 -46.34   0
       138    416.0150    812.9093 307.7412059  +6.3471612     662.9365     1113.489     883.1078     78.04105     156.0199     312.1642      1.645     5.61      856.959     55.05138     87.18695         8     1.147     0.773  -6.25   0
       139     40.8916    807.5170 307.8971545  +6.3367778     1492.117      2338.31     2080.448     78.04105     156.5164     312.4437      1.647     5.51     854.4911     55.05138     205.3665        15     1.496     0.651 -40.24   0
       140    322.9540    805.8806 307.7800862  +6.3469387     3188.957     4967.501     5069.425     78.28918     156.2063     312.3195      1.627     4.28     857.2947     55.05138     433.4739        22     1.460     0.875 -40.83   0
       141    584.7583    806.9471 307.6713341  +6.3552792     611.4003     1067.087     1353.915     78.28918     156.2684     312.3505      1.314     4.05     855.4002     55.05138     102.3884         7     1.159     0.404 -33.00   0
       142    788.4963    801.6249 307.5869063  +6.3642937     53996.98     83894.33     88707.91     78.41296     155.9578     312.1952      1.720     4.32     853.6907     55.05138     7274.916        75     1.726     1.102 -41.42   0
       143     22.9132    803.8054 307.9047450  +6.3377043     2068.605     3431.605     3550.772     77.79211     155.8956     312.0399      1.681     4.86     854.3938     55.05138     310.6328        20     1.644     0.739 -43.66   0
       144    727.8036    803.1521 307.6120592  +6.3616338     613.2534     813.9234     1072.285     77.66734     155.9578     311.9777      1.479     4.38     854.9427     55.05138     113.0262         7     1.134     0.482 -53.32   0
       145    245.3525    778.0266 307.8132490  +6.3558293       741124      1720013      1934123     77.91667     156.2684     312.2574      2.330     8.59     856.2874     55.05138     63130.72       622     2.830     2.159 -68.36   4
       146    431.6517    799.7416 307.7351557  +6.3531212     857.0873     1496.001     1759.377     78.28919     156.2063     312.3195      1.800     7.30     856.2618     55.05138     129.3136        12     1.732     0.862 -89.07   0
       147    913.7111    796.9184 307.5350648  +6.3704197     8028.013     12905.73     13814.65     78.04105     156.3925     312.4126      1.740     4.31     850.7302     55.05138     983.6517        36     1.646     0.993 -43.75   0
       148    716.7200    796.2325 307.6168941  +6.3641194     20822.86     33559.56     36442.75     78.16521     156.2063     312.3195      1.726     4.40     854.7184     55.05138     2929.044        55     1.756     1.047 -41.96   3
       149    710.4686    792.6880 307.6196091  +6.3653734     86858.78     133944.4     141506.4     78.41296     156.4545     312.3505      1.706     4.26     854.6218     55.05138     12321.07        87     1.773     1.087 -43.70   3
       150    355.3540    793.5572 307.7670470  +6.3531135     20323.41     31573.58     33608.64     78.28919     156.2063     312.2574      1.700     4.40     856.6708     55.05138     2895.711        53     1.708     1.019 -41.73   0
       151    404.3156    793.9464 307.7467023  +6.3545962     1351.805     2083.575     2051.746     78.28918     156.2063     312.4747      1.633     4.55     856.2811     55.05138     228.7219        12     1.333     0.692 -45.60   0
       152    417.2041    791.3917 307.7414362  +6.3560832     21807.88     34018.07     35850.58     77.66734     155.8956     312.1642      1.686     4.29     856.0217     55.05138     2896.076        50     1.706     0.979 -42.70   0
       153    644.0981    792.9730 307.6471615  +6.3630347     766.4658     1015.237     1445.142     78.41296     155.9578     312.2884      1.395     3.99     854.9359     55.05138     153.3177         9     1.308     0.502 -36.64   0
       154    954.3951    790.3093 307.5183906  +6.3745059     1982.177     3540.364     3362.066     77.91668     155.8956     312.0399      1.833     4.67     849.7068     55.05138     263.8732        25     1.672     0.979 -45.56   0
       155    910.6220    788.3773 307.5366337  +6.3738423     6413.669     10328.32     10855.94     78.04105     156.0199     312.2884      1.751     4.33     850.6216     55.05138       804.59        32     1.646     0.946 -40.91   0
       156    882.3095    790.4250 307.5483228  +6.3720516     571.5667     1171.425      1300.87     78.41296     156.0199     312.1642      1.896     3.54      851.494     55.05138     103.5151         5     0.768     0.470  72.57   2
       157    651.2919    787.4398 307.6443599  +6.3655595     6550.507     10236.75     10960.39     78.41296     156.1442     312.3816      1.718     4.67     854.6376     55.05138     866.4175        33     1.573     0.992 -48.95   0
       158    439.9111    785.3749 307.7322093  +6.3593286     1822.693     2934.094     2746.295     78.41296     156.0199     312.1642      1.703     5.04     855.4434     55.05138     275.8676        18     1.620     0.685 -42.29   0
       159    165.1121    784.7255 307.8463428  +6.3503662     675.1597     1030.406     1274.976     78.28918     156.5164     312.4126      1.594     4.88     855.1458     55.05138     107.5369         9     1.503     0.448 -53.37   0
       160    739.5186    781.8820 307.6079078  +6.3708058     541.4587     603.9811     693.4814     78.28918     156.4545     312.4126      1.262     4.33     854.0454     55.05138     91.47479         5     0.839     0.670 -44.36   0
       161    604.4210    779.3433 307.6640961  +6.3673324     962.3777     1201.196     1473.332     77.91668     156.2063     312.1331      1.385     5.28     854.4652     55.05138     165.9187        11     1.259     0.626 -48.92   0
       162    879.3531    778.9125 307.5499362  +6.3767051     629.9771     898.5469     473.5129     78.28918     156.0821     312.3505      1.507     4.01     851.3196     55.05138     108.5066         6     1.143     0.402 -56.49   0
       163    686.2650    777.5287 307.6301691  +6.3708212     2514.238     3893.329     3805.694     78.28919     156.2684     312.3816      1.640     4.24     854.1099     55.05138     402.4758        22     1.556     0.775 -46.88   0
       164    130.6429    778.0005 307.8608830  +6.3519826     982.3419     1663.023     1676.307     77.66734     155.8956     311.9466      1.861     5.85     854.5559     55.05138     141.2332        11     1.307     0.737 -48.23   0
       165    420.1331    774.0848 307.7408023  +6.3633255      52786.3     82394.73     87039.26     78.41296     156.4545     312.3505      1.630     4.37     855.1112     55.05138     7413.811        72     1.737     1.057 -41.44   0
       166    155.4281    778.0392 307.8505897  +6.3528004     928.1756     1347.888     1780.289     77.91667     155.9578     312.1952      1.530     4.49     854.7897     55.05138     141.8431         8     1.089     0.526 -40.82   0
       167    963.9639    776.8268 307.5148681  +6.3803908     1317.712     1877.679     1991.569     77.79211     156.0199     312.1331      1.373     0.00     849.3809     55.05138     772.5848         9     1.264     0.638   9.61   0
       168    537.8887    773.1469 307.6919335  +6.3676612     7093.797     10842.79     11257.21     78.28918     156.0821     312.4436      1.580     4.20     853.6937     55.05138     1016.717        30     1.579     0.849 -41.07   0
       169    454.7812    771.6438 307.7264962  +6.3654954      4153.12     7014.648     8018.739     77.79211     156.0821      312.102      1.792     4.64     854.7123     55.05138     656.9802        31     1.705     0.967 -32.63   0
       170    783.1312    769.7197 307.5902041  +6.3772846     11228.41     17730.97     18913.65     78.53654     156.4545     312.2884      1.674     4.46      852.795     55.05138     1495.267        45     1.706     1.005 -42.57   0
       171     12.2196    766.0758 307.9104601  +6.3529179     1201.851     1791.536     1765.101     77.91667     155.8956     312.2574      1.583     5.39     853.8799     55.05138      182.809        13     1.487     0.595 -53.63   0
       172    451.2615    765.1256 307.7281771  +6.3680680     2074.345      3490.74     4070.072     78.53654     156.2063     312.3195      1.819     5.05     854.4395     55.05138     303.2021        19     1.731     0.669 -46.44   0
       173    804.6257    764.0681 307.5814672  +6.3803361      1252.67     2037.048     2295.032     77.91667     156.0821     312.2263      1.800     4.48     852.2352     55.05138     214.0285        16     1.434     0.776 -42.17   0
       174    148.9724    761.9569 307.8538131  +6.3592217     2972.871      4717.82     4895.634     77.91668     156.2684     312.2263      1.715     4.40      854.303     55.05138     422.5647        24     1.589     0.830 -49.14   0
       175    140.8549    761.6737 307.8571934  +6.3590654     11037.25     17769.34     19463.72     78.16521     156.0821     312.2263      1.705     4.36     854.2473     55.05138     1539.371        40     1.709     0.948 -41.33   0
       176    928.6115    758.3585 307.5301680  +6.3868346     6032.822     9867.417     10350.77     77.66734     156.0199      312.071      1.754     4.47     849.4894     55.05138     822.8012        34     1.657     0.977 -46.00   0
       177    977.3497    758.5199 307.5099217  +6.3883946     1515.622     2527.047     3417.804     78.28919     156.2684     312.3195      2.326     5.99     849.0513     55.05138     201.3956        18     1.612     0.761 -41.16   0
       178    132.9558    759.0282 307.8605628  +6.3598917     2780.841     4593.246     4957.428     77.91668     156.2684     312.2263      1.677     4.34     854.1197     55.05138     382.2961        21     1.520     0.782 -45.40   2
       179    132.9901    752.7833 307.8607593  +6.3624706     1706.475     2777.341      2777.82     78.04105     155.9578     312.1952      1.651     4.40     853.9758     55.05138     245.4136        17     1.402     0.757 -48.88   2
       180    684.0886    755.9690 307.6317966  +6.3796481     1717.287     2822.168       3306.5     78.41296     156.0199     312.2574      1.698     4.23     853.2594     55.05138     266.3897        19     1.528     0.746 -39.67   0
       181    570.9027    755.2552 307.6788248  +6.3761529     2350.237     3522.441     3373.401     78.16521     156.2063     312.5057      1.680     4.51     853.2075     55.05138     309.0131        20     1.509     0.784 -32.53   0
       182    418.9407    754.9049 307.7419429  +6.3712027     1171.184     1693.582     1889.823     78.16521     156.2063     312.4126      1.614     5.50     854.1417     55.05138     169.8907        12     1.500     0.584 -54.03   0
       183    702.4998    753.3566 307.6242383  +6.3813426     599.1697     803.6298     579.1304     78.28919     156.0821     312.5367      1.724     5.56     853.0811     55.05138     88.60638         8     1.147     0.761 -16.25   0
       184    952.2096    749.9590 307.5206490  +6.3910895     2935.377     4638.337     4658.102     77.66734     156.0199     312.0399      1.640     4.40     849.1591     55.05138      363.256        24     1.645     0.831 -40.16   0
       185    922.8059    750.3411 307.5328475  +6.3899503      2736.03     4428.485     5332.237     77.79211     156.0821      312.071      1.742     4.83     849.4813     55.05138     356.1124        24     1.654     0.797 -41.20   0
       186    983.2792    749.5345 307.5077599  +6.3923015     1780.938     3038.313     3353.609     78.53655     156.2684     312.2884      1.811     5.67     848.9365     55.05138     206.0651        16     1.502     0.768 -43.88   0
       187    675.1639    749.7339 307.6357122  +6.3819232     1605.815     2377.213     3175.528     78.16521     156.2063     312.3816      1.644     4.13     853.0568     55.05138     203.0471        18     1.259     0.953 -29.52   0
       188    822.5890    747.9695 307.5745468  +6.3875819     861.8217     1371.696     1545.061     77.79211     155.9578     312.1642      1.739     4.56     851.5308     55.05138     192.2098         8     1.387     0.427 -40.53   0
       189    896.5669    746.4916 307.5438735  +6.3906633     612.6537     763.0211     1235.361     78.41296     156.0821     312.3505      1.092     3.28      850.072     55.05138     142.8066         6     0.914     0.412 -70.32   0
       190    247.7165    744.4211 307.8134002  +6.3697804     1877.407     3002.275     3359.969     78.04105     155.8956     312.1952      1.695     4.85     854.7903     55.05138     292.2785        19     1.568     0.719 -34.52   0
       191    940.8235    739.7365 307.5257199  +6.3949293     989.9897     1622.776     1386.182     77.91668     156.2063     312.2263      1.651     5.00     849.0632     55.05138     149.3051        15     1.449     0.826 -33.59   0
       192    685.1419    741.2371 307.6318536  +6.3857646     727.6433     1350.955     1957.937     78.28918     156.2684     312.3195      1.924     3.47     852.6717     55.05138     136.4452         5     1.035     0.336 -40.83   0
       193    914.1371    738.9776 307.5368282  +6.3943517     1130.862     1921.773     1587.486     77.91668     156.2063     312.2263      1.721     6.10     849.4799     55.05138     138.5592        14     1.298     0.805 -52.99   0
       194    268.2117    739.8769 307.8050424  +6.3723449     557.7046     824.8112     989.6055     77.91667     155.8333     312.1642      1.673     4.85     854.6149     55.05138     96.97449         7     1.082     0.669 -32.00   0
       195    162.8985    739.7346 307.8487800  +6.3688630      699.054     830.7195     333.5654     78.28918     156.2684     312.3505      1.428     4.05     853.7784     55.05138     116.9415         7     1.210     0.537 -34.02   0
       196    967.3380    737.5995 307.5147798  +6.3966964      2180.12      3524.69     4124.706     77.54237     155.9578     312.0088      1.819     5.06      848.924     55.05138     266.4341        22     1.593     0.854 -36.77   0
       197    686.8980    736.6107 307.6312796  +6.3877331     926.8176     1488.775     2267.623     78.04105     155.8333     312.1331      1.822     4.86     852.5088     55.05138     171.5553        10     1.108     0.604 -56.17   0
       198    407.0032    732.4138 307.7476573  +6.3800861     656.6868     879.8383     1103.563     77.91667     155.8956     312.1952      1.370     4.49     853.2223     55.05138     109.2363         7     1.009     0.568 -50.58   0
       199   1008.9267    731.1656 307.4977231  +6.4007398     1607.294     2452.898     2213.192     78.16521     156.1442     312.3195      1.649     5.12     848.6151     55.05138     216.8276        17     1.411     0.795 -37.21   0
       200    478.0103    731.8652 307.7181878  +6.3826945     546.0654     643.4042     341.9156     77.79211     156.0199     312.1952      1.298     3.88     853.1071     55.05138      88.8457         6     0.965     0.448 -37.85   0
       201    635.1641    730.8021 307.6529594  +6.3883992     665.6292     1034.495     1583.546     77.41721     156.0199     312.1331      1.930     4.37     852.4249     55.05138     121.1406         7     1.170     0.465 -37.80   0
       202    810.2665    729.3533 307.5802884  +6.3948548     1106.701     1872.011     1949.482     78.28919     156.1442     312.3505      1.686     5.81     851.2928     55.05138     157.4219        13     1.412     0.673 -44.84   0
       203    896.5471    726.7553 307.5445428  +6.3988097     1421.656     2316.811     2939.983     78.28919     156.2063     312.3195      1.991     4.78     849.6782     55.05138     191.5095        19     1.385     1.044 -53.74   0
       204    870.8793    721.9488 307.5553638  +6.3999366     925.5211     1519.063     1537.678     78.28918     156.2684     312.3195      1.616     5.26     850.2861     55.05138     125.0921        11     1.412     0.554 -32.35   0
       205    853.2977    718.2909 307.5627882  +6.4008592     1330.911     2035.595     1854.274     78.28919     156.6403     312.2884      1.710     6.14     850.5518     55.05138     182.0703        15     1.521     0.696 -45.26   0
       206     52.4923    717.0436 307.8953933  +6.3745134     2378.591     3788.273     3943.902     78.28918     156.2063     312.4437      1.715     4.47     853.0253     55.05138     357.4629        23     1.663     0.792 -47.15   0
       207    116.4374    715.4239 307.8688940  +6.3773346     944.7859     2268.003     2796.738     77.91668     155.9578      312.071      2.498     8.02     852.9089     55.05138       124.98        19     1.789     1.005 -82.12   0
       208    570.0558    712.0512 307.6806284  +6.3939587     672.9885      1050.96      1005.73     78.28919     156.2063     312.2884      1.521     3.64     851.9609     55.05138     105.4632         7     0.890     0.523 -46.94   0
       209    665.2496    705.5571 307.6413127  +6.3998273     6173.268      9542.86     10306.93     78.28919     156.1442     312.3195      1.683     4.40     851.8618     55.05138     946.7192        31     1.595     0.890 -39.73   0
       210    612.0323    705.2057 307.6634257  +6.3981905     1396.895     2325.578     3124.777     77.66734     156.0199     312.1331      1.752     5.59     851.8491     55.05138     221.4641        14     1.489     0.655 -46.13   0
       211    534.6776    704.6125 307.6955709  +6.3958438     500.6486     1129.876     1584.676     77.91668     155.8333     312.1331      2.316     4.26     851.8849     55.05138     98.10614         6     0.918     0.564 -34.86   2
       212    522.7366    705.3356 307.7005056  +6.3951451     881.1467      1158.84     1288.508     78.28919     156.2063     312.3505      1.475     4.39     852.0377     55.05138     123.6472        10     1.177     0.604 -35.93   0
       213    128.2101    701.4461 307.8644770  +6.3835005     3552.658      5719.95     5322.224     77.79211     156.0821     312.0088      1.653     4.28     852.4661     55.05138     483.9315        24     1.606     0.799 -41.79   0
       214   1002.3928    700.7723 307.5014537  +6.4130682     2208.072     3727.873     3574.847     77.79211     156.0199     312.1331      1.764     4.77     847.9384     55.05138     287.3807        22     1.621     0.837 -40.06   0
       215    638.9474    701.4656 307.6523735  +6.4006357     2188.207     3296.908     3625.798     78.28918     156.1442     312.2884      1.615     4.83     851.7548     55.05138     286.5718        18     1.450     0.776 -34.98   0
       216    314.8463    701.1525 307.7869811  +6.3898963     580.1971     933.7797      1571.06     78.28918     156.0821     312.3195      1.626     3.70     852.4562     55.05138     125.7945         5     1.082     0.363 -36.26   0
       217    251.1924    700.4520 307.8134390  +6.3880468     615.1736     988.0067      1193.53     77.79211     156.0199     312.0088      1.691     4.76     852.4353     55.05138     100.7402         6     1.105     0.581 -26.76   0
       218    782.1255    697.7012 307.5930369  +6.4069799     19239.88     30414.08     32013.09     77.79211     156.3304     312.2884      1.653     4.36     851.1813     55.05138     2663.907        49     1.690     0.968 -41.64   0
       219    912.1511    697.4872 307.5390426  +6.4114126     3534.699     5724.448     6316.023     78.28918     156.0821     312.3816      1.719     4.53     848.6597     55.05138     428.3584        25     1.550     0.889 -43.55   0
       220    509.8088    697.6696 307.7061323  +6.3978762     895.0619     1513.271     1688.091     77.79211     155.8956     312.1952      1.685     5.01     852.0474     55.05138     140.5501        13     1.526     0.679 -38.20   0
       221    481.1480    697.9247 307.7180264  +6.3968099     1346.558     2029.297     2098.827     78.28918     156.2684     312.3195      1.637     4.20     852.4328     55.05138     193.3447        14     1.434     0.640 -42.34   0
       222    327.0565    697.4453 307.7820353  +6.3918367     791.3618     1145.893     929.2034     78.28918     156.2063     312.3505      1.662     4.92     852.2694     55.05138     98.30817         8     1.121     0.612 -58.11   0
       223    255.7031    691.3065 307.8118741  +6.3919735     6154.293     9803.793     10072.72     78.28919     156.7641     312.2263      1.704     4.33     851.9193     55.05138     882.1001        31     1.622     0.921 -40.06   0
       224    662.6223    690.5043 307.6429092  +6.4059530     6945.115     10850.09     11626.54     78.28919     156.0199     312.1642      1.726     4.54     851.5251     55.05138     1057.007        33     1.532     1.013 -45.62   0
       225    645.0520    691.6165 307.6501689  +6.4049057     953.7065     1300.887     1837.271     77.79211     156.2684     312.0399      1.635     4.07     851.5522     55.05138     164.5437        10     1.220     0.684 -34.14   0
       226    358.1083    690.3529 307.7693788  +6.3958070     592.4313     916.3541     1034.309     78.28918     156.1442     312.4437      1.497     4.93     851.9465     55.05138     93.30975         8     1.221     0.564 -35.54   0
       227    922.7463    683.1440 307.5351226  +6.4176872     1260.258      2006.93     1992.607     78.41296     156.2063     312.2884      1.807     5.41     848.0256     55.05138     197.6293        14     1.374     0.713 -46.67   0
       228    734.2950    678.9039 307.6135321  +6.4131398     3628.399     5853.396     6460.693     78.28918     156.8259     312.1642      1.700     4.41     851.2318     55.05138     481.4538        31     1.661     0.994 -47.81   0
       229    689.7172    679.1854 307.6320364  +6.4115322     945.8376     1246.851     1095.802     77.91668     155.9578     312.1331      1.437     4.30     851.2465     55.05138     166.9149        13     1.429     0.601 -40.71   0
       230   1000.6334    675.5287 307.5030291  +6.4234301     8401.299     13402.06     14166.02     78.16521     156.2063     312.3816      1.735     4.31     847.3566     55.05138     1160.113        36     1.623     0.996 -42.14   0
       231    939.0771    675.9019 307.5285826  +6.4212219     2204.128     3681.744     3990.979     77.91668     156.4545     312.3195      1.690     4.94     847.6351     55.05138     300.4865        20     1.532     0.839 -46.91   0
       232     20.0150    675.3290 307.9102893  +6.3906381     1976.555     3443.276     3756.985     77.79211     156.1442     312.2263      1.937     4.86     852.1381     55.05138     250.5954        20     1.454     0.858 -42.59   0
       233    552.8984    673.7411 307.6890416  +6.4091979     514.0338     1021.114     1227.768     78.04105     156.1442     312.4437      2.088     5.21      851.004     55.05138     82.88031         7     1.260     0.609 -32.64   0
       234    539.1239    671.4476 307.6948393  +6.4096830     1957.071     3110.371     3356.518     78.16521     156.2684     312.2884      1.733     4.17      851.008     55.05138     324.1768        21     1.527     0.898 -36.70   0
       235     78.0049    670.3281 307.8863765  +6.3946553      24592.7     38986.77     40730.19     77.91667     155.7711     312.2263      1.682     4.24     851.8619     55.05138     3386.483        53     1.705     1.018 -42.60   0
       236    507.8359    668.5656 307.7079304  +6.4098239     1318.268      2040.54     2114.474     78.04105     155.9578      312.071      1.609     4.46     851.4053     55.05138     181.4058        15     1.431     0.705 -39.10   0
       237    928.9747    667.5587 307.5330578  +6.4243287     984.0863     1486.442     1297.879     77.91667     156.0821      312.102      1.663     5.89     847.5758     55.05138      146.818        14     1.650     0.610 -48.43   0
       238    547.8953    665.2302 307.6914055  +6.4125434     1097.675     1484.832     1838.293     78.41296     155.9578     312.3505      1.618     5.69     850.8141     55.05138     149.9293        12     1.283     0.711 -33.21   0
       239    723.9686    662.5990 307.6183680  +6.4195249     3482.567     5580.268     5698.479     77.66734     156.0199      312.102      1.651     4.53     850.7772     55.05138     521.7256        24     1.561     0.839 -41.52   0
       240    745.9871    660.8558 307.6092817  +6.4209810     3969.217     5791.609     6038.426     77.66734     156.1442     312.0088      1.529     4.33     850.6552     55.05138     572.2759        23     1.529     0.757 -49.19   0
       241    577.4915    658.7457 307.6793318  +6.4162118     3265.553     5043.427     5056.804     78.16521     156.0821     312.4437      1.642     4.66     850.7076     55.05138     462.7156        21     1.457     0.772 -42.31   0
       242    413.5807    659.2739 307.7473876  +6.4104979     1293.215     2033.089     2431.495     77.91668     156.1442     312.2574      1.806     5.05     850.6561     55.05138      196.431        12     1.398     0.572 -44.67   0
       243   1018.9778    656.9448 307.4960320  +6.4317134       4590.7     7564.267     7941.907     77.79211     156.2063     296.4199      1.712     4.50     845.9142     55.05138     574.3099        31     1.619     0.965 -47.45  16
       244    237.9436    658.1893 307.8203660  +6.4050466     1796.838     2525.311     2924.908     77.66734     156.1442     312.0088      1.527     4.60      850.674     55.05138     258.1052        16     1.403     0.721 -47.71   0
       245    984.2433    655.9163 307.5104928  +6.4309793     7577.945     12187.31      12660.7     78.28918     156.2063     312.2884      1.706     4.43      846.477     55.05138     972.5551        33     1.632     0.944 -43.27   0
       246    321.8667    657.4766 307.7855371  +6.4081608     1354.054     2159.574     2221.898     78.41296     156.2684     312.2884      1.646     5.58     850.5806     55.05138     211.6654        14     1.515     0.582 -43.15   0
       247    537.9651    656.6494 307.6958181  +6.4157527     535.5344     732.6968     507.7231     78.16521     156.2063     312.2574      1.653     4.72     850.7379     55.05138     98.54919         6     1.295     0.488 -42.27   0
       248    704.2689    654.6068 307.6268179  +6.4221650     1056.032     1578.033     1333.884     77.79211     155.8956     312.1642      1.636     5.81     850.5054     55.05138     136.3192        12     1.390     0.684 -49.86   0
       249     95.4728    652.8349 307.8797132  +6.4024642     819.3105     1078.935      816.302     78.16521     156.2063     312.2884      1.457     5.04     851.5601     55.05138     144.9789        12     1.331     0.640 -53.21   0
       250    142.7599    649.2471 307.8601966  +6.4055366     23170.66     36743.09     37867.66     78.16521     156.2063     312.1331      1.694     4.35     851.0674     55.05138     3331.043        51     1.706     0.997 -44.33   0
       251    429.6985    650.1507 307.7410009  +6.4148047     2750.575     4319.377     4626.523     78.28918     156.1442     312.5057      1.678     4.09     850.5833     55.05138       395.07        26     1.603     0.890 -47.47   0
       252    811.0778    649.9447 307.5826139  +6.4276614     1253.392     1834.632      2460.15     78.41296     156.2063     312.3505      1.587     4.94     849.8312     55.05138      206.991        10     1.085     0.636 -32.90   0
       253    362.0287    644.1711 307.7693059  +6.4150017     575.4565     951.8062     534.6693     77.79211     155.9578      312.071      1.694     3.82      850.381     55.05138     97.94781         6     0.929     0.450 -36.97   0
       254    979.2348    638.9383 307.5131414  +6.4378206      6170.64     11323.34     12292.13     78.16521     156.2063     312.2884      1.985     4.42     845.7519     55.05138     713.2206        42     1.653     1.279 -39.06   0
       255    572.7628    634.1240 307.6821232  +6.4262170     47369.64     73332.11     77174.29     78.16521     156.2684     312.3505      1.636     4.39     850.1171     55.05138     6919.146        68     1.709     1.039 -41.62   0
       256    937.1796    635.8167 307.5307130  +6.4377056     782.3945     1025.754     701.1793     78.04105     156.0199     312.2263      1.573     5.06     847.0646     55.05138     122.6776         7     1.240     0.583 -32.13   0
       257    532.0068    634.2669 307.6990452  +6.4247922     672.1883     1069.769     753.7196     77.79211     155.9578     312.1331      1.680     4.81     850.2933     55.05138     119.5772         7     1.403     0.468 -46.25   0
       258    180.2447    630.8052 307.8452518  +6.4144100     2520.266     4097.167     4125.119     77.66734     155.8956     311.9777      1.663     5.14     850.4227     55.05138     357.9246        21     1.587     0.777 -43.55   0
       259     24.0437    637.6990 307.9098878  +6.4063065     1080.689     1888.284     1701.609     78.28918     156.0821     312.5367      1.730     4.54     852.0129     55.05138        175.3        14     1.400     0.673 -49.06   0
       260    502.6282    631.1433 307.7113517  +6.4250967     649.5217     891.5083     508.4742     77.91668     156.2684     312.2263      1.503     4.27     850.3134     55.05138     103.7386         7     1.130     0.461 -42.63   0
       261     72.8387    625.0449 307.8900514  +6.4131731     1156.484     1881.234     1926.172     78.04105     156.2063     312.2263      1.742     5.28     851.4255     55.05138       165.55        12     1.494     0.533 -47.11   0
       262    470.0241    617.9197 307.7253377  +6.4294619     60791.51     94836.92     100011.6     78.04105     155.9578     312.2884      1.637     4.24     849.8737     55.05138     8490.364        73     1.715     1.056 -41.18   0
       263     13.5066    619.5039 307.9148786  +6.4134619     1680.163      2841.73     3125.659     78.28919     156.7022     312.2574      1.810     4.82     852.1013     55.05138     229.4083        21     1.471     0.940 -40.75   0
       264    655.6118    615.4316 307.6483418  +6.4367077      715.502     1259.794     1503.156     77.79211     155.9578     312.2263      1.791     4.57     849.2078     55.05138     157.8319         8     1.454     0.409 -37.34   0
       265    144.3990    613.0289 307.8607384  +6.4205417      1511.74     2450.263     2054.355     77.79211     156.0199     312.1331      1.716     5.86     850.4221     55.05138     194.7327        15     1.453     0.666 -46.36   0
       266    423.5645    610.4880 307.7448834  +6.4309710     983.4964      1612.82     1664.934     78.28919     156.0821     312.3195      1.728     5.47     849.5875     55.05138     136.4136        11     1.380     0.611 -37.60   0
       267    938.9172    610.8240 307.5308283  +6.4480805     565.6858     683.2863     453.2389     78.16521     155.9578     312.2574      1.415     3.58     846.6089     55.05138     106.6724         5     1.106     0.334 -10.02   0
       268    616.3935    609.5311 307.6648286  +6.4378302     916.0043     1652.679     1923.706     77.79211     155.7711     312.1642      1.985     6.17     849.1983     55.05138      152.227        12     1.327     0.807 -46.65   0
       269    497.6657    608.9200 307.7141602  +6.4341038     556.0684     949.9998     1225.188     78.53654     156.3304     312.2884      1.824     5.02      849.623     55.05138     99.90955         7     1.476     0.483 -48.69   0
       270    315.3678    607.4293 307.7899225  +6.4286010     2095.622     3490.539     3805.705     77.79211     155.9578      312.071      1.797     4.88     849.5175     55.05138     320.8233        21     1.567     0.936 -57.54   0
       271    323.9319    609.1207 307.7863087  +6.4281906     543.9624     807.6094     1189.431     78.41296     156.4545     312.3195      1.343     3.57     849.5721     55.05138      104.544         5     1.001     0.367 -32.74   0
       272     16.7239    608.6832 307.9139082  +6.4180367     632.4655     1127.596     1886.285     78.41296     156.5164     312.4437      2.394     5.29     852.0561     55.05138     101.6208         9     1.582     0.499 -32.65   0
       273    467.3695    606.1425 307.7268365  +6.4342344     845.0743     1392.029     1800.057     78.16521     156.2063     312.2263      1.599     5.28     849.4449     55.05138     113.0011        10     1.345     0.585 -52.67   0
       274    742.0300    601.4756 307.6129176  +6.4453604      5185.22     8032.464     8600.854     78.16521     156.2684     312.3195      1.648     4.46     848.7569     55.05138     706.4761        30     1.657     0.859 -40.43   0
       275    795.6672    596.6691 307.5908010  +6.4491382     13576.23     21013.55      21804.6     78.28919     156.2684     312.3195      1.670     4.52     848.5552     55.05138     2059.181        39     1.684     0.892 -41.40   0
       276   1012.9371    597.2641 307.5005381  +6.4561481     956.9626     1412.172      1371.47     78.28918     156.2063     312.3505      1.540     5.24     842.3005     55.05138     177.1992        11     1.273     0.609 -38.33   0
       277    538.1110    596.7003 307.6977731  +6.4405038     1092.193     2005.376     1962.298     78.28918     156.6403     312.2884      1.833     5.43     849.3013     55.05138     176.6493        14     1.629     0.585 -50.70   0
       278    619.4329    594.8807 307.6640584  +6.4439796      2797.12     4424.523     4697.936     78.16521     156.1442     312.3195      1.648     4.55     848.7623     55.05138     427.8319        21     1.558     0.766 -40.63   0
       279     40.4198    595.9886 307.9044964  +6.4240749     563.3105     728.5492     820.9941     77.91667     155.8956     312.2263      1.473     3.85     851.5435     55.05138     93.27765         5     1.250     0.341 -41.72   0
       280    936.5277    590.9739 307.5324856  +6.4561948     1127.928      1801.15     2239.844     77.91667     156.0821     312.2263      1.733     4.64     845.7563     55.05138     181.7531        13     1.409     0.625 -50.33   0
       281    377.7376    588.6101 307.7646530  +6.4384637     891.0277     1374.111     1626.223     77.79211     156.0199     312.1331      1.538     4.48     848.7926     55.05138     138.0416        10     1.335     0.581 -37.89   0
       282    231.8571    588.4423 307.8252458  +6.4336321     1409.014     2108.673     2447.568     78.16521     156.1442     312.3505      1.698     5.31     849.1221     55.05138     184.9605        14     1.338     0.728 -52.71   0
       283    871.6377    579.9837 307.5598061  +6.4585646     2658.129     4190.439     4767.696     77.91667     156.0199      312.071      1.665     4.61     846.6953     55.05138     381.6104        21     1.502     0.844 -46.78   0
       284    166.6609    579.9106 307.8526106  +6.4349612     642.4069     917.3779     1101.861     78.28918     156.3304     312.3816      1.880     4.42     849.6439     55.05138     95.95978         7     1.083     0.513 -20.72   0
       285    830.3208    577.5253 307.5770496  +6.4581989     2503.897      3862.99     4451.243     78.53655     156.4545     312.3816      1.669     4.33     847.5502     55.05138     397.9326        18     1.507     0.701 -38.71   0
       286    258.3893    572.2779 307.8147716  +6.4411963     7500.801     11746.74     12147.47     77.91668     155.8333     312.1642      1.671     4.22     848.8046     55.05138     1010.658        35     1.646     0.948 -40.08   0
       287    801.4418    573.2084 307.5891893  +6.4590156     2360.306     4035.979     4704.728     77.66734     156.0199      312.071      1.846     4.84     848.0851     55.05138     357.6509        22     1.674     0.769 -41.63   3
       288    811.0227    568.6088 307.5853641  +6.4612346     151507.6     237545.4     251071.4     77.91667     155.9578     312.1331      1.693     4.56     847.7808     55.05138     20499.41       125     1.814     1.143 -42.47   2
       289    192.6007    566.8170 307.8422792  +6.4412384     56518.24     89922.13     96042.45     77.91668     155.7711     312.0088      1.713     4.33     849.0886     55.05138     7873.367        85     1.799     1.127 -43.74   0
       290    740.5979    568.9877 307.6146026  +6.4587233      550.498     918.5964      1231.93     77.91667     155.8956      312.102      1.485     4.85     848.0677     55.05138     75.83344         5     1.215     0.549 -39.03   0
       291    116.6500    563.0561 307.8739498  +6.4402354     5931.327     9544.438     10124.58     78.28918     156.2063     312.3505      1.721     4.49     849.9549     55.05138     805.3485        31     1.623     0.909 -41.47   0
       292    981.9219    560.4953 307.5146512  +6.4702914     1224.705     2023.069     2220.871     78.04105     156.4545     312.3505      1.678     5.60     842.9037     55.05138     197.6593        14     1.427     0.620 -40.96   0
       293    230.8514    558.2622 307.8266813  +6.4460559     622.0997     954.9946     1440.495     78.28918     156.1442     312.3195      1.756     4.94     848.4635     55.05138     102.7229         7     1.303     0.531 -69.14   0
       294    847.5472    555.9311 307.5706184  +6.4676886     4148.039     6597.851     6999.917     78.16521     156.0821     312.2574      1.667     4.34     846.6193     55.05138     577.5865        26     1.579     0.854 -42.62   0
       295    366.0427    554.0370 307.7706747  +6.4523423      16409.6     26203.14        27979     78.04105     156.1442     312.1952      1.683     4.31     847.3747     55.05138     2262.487        48     1.700     1.050 -41.22   0
       296    456.4463    553.8633 307.7331324  +6.4554480     699.4672     911.9591      984.921     78.16521     156.1442     312.3505      1.548     4.32     847.4426     55.05138     102.5182         7     1.104     0.481 -43.02   0
       297    168.9116    552.4005 307.8526042  +6.4463924     1587.843     3148.618     4217.524     77.54237     155.7088     312.0088      2.468     9.04     849.1807     55.05138     287.3828        27     2.853     0.800 -29.47   0
       298    242.8148    550.8079 307.8219641  +6.4495352     720.1872     945.1023     1103.931     77.91667     155.9578     312.1642      1.656     4.00     848.3337     55.05138     118.3027         7     1.417     0.323 -49.81   0
       299    801.5665    549.1854 307.5899432  +6.4689364     5578.074     8554.577     9337.882     77.91668     155.9578     312.1952      1.644     4.88     847.6007     55.05138       801.35        27     1.603     0.811 -41.70   0
       300    105.3155    550.1343 307.8790935  +6.4451876     794.7682      1352.94     1189.715     78.41296     156.4545     312.3816      1.585     5.10     849.8797     55.05138     126.9315        10     1.449     0.508 -55.49   0
       301    532.4250    548.8146 307.7017449  +6.4600799     6135.733     9443.078     9569.127     78.04105     156.0199     312.2574      1.678     4.51     847.4214     55.05138     895.8077        31     1.637     0.888 -41.29   0
       302    390.5738    545.5123 307.7607731  +6.4566847     1302.595     1861.124     2130.918     78.41296     156.0199     312.1952      1.682     5.22     847.2183     55.05138     174.8225        11     1.301     0.592 -40.35   0
       303    179.3374    542.0510 307.8486234  +6.4510152     6438.596      10221.4     10269.26     78.28918     156.1442     312.3195      1.685     4.31     848.8181     55.05138     945.2365        33     1.627     0.928 -40.66   0
       304    817.9224    541.6429 307.5834025  +6.4725966     1294.261     1941.213     2055.068     78.16521     156.2063     312.3816      1.561     4.91     846.9164     55.05138     188.7032        15     1.434     0.694 -43.91   0
       305    577.0393    542.0176 307.6834429  +6.4643808     2278.554     3620.864      4116.14     77.91668     156.0199      312.102      1.830     4.58     847.1738     55.05138     312.5704        22     1.723     0.741 -33.26   0
       306    274.6233    538.4837 307.8091685  +6.4556915     83821.96       132148     139717.4     78.16521     155.9578     312.2574      1.730     4.50     847.8899     55.05138      12033.5        91     1.798     1.114 -41.20   0
       307     50.9220    540.7809 307.9020001  +6.4472168     4677.673     7863.661     8149.349     77.79211     155.8956     312.2884      1.757     4.28     850.5209     55.05138      643.515        34     1.637     1.068 -47.66   0
       308    860.6310    542.1760 307.5656450  +6.4738038     466.3109     800.6604     354.9974     77.79211     156.0821     312.1331      1.232     3.46     845.8574     55.05138     79.35413         5     0.794     0.434 -71.57   0
       309    564.1669    536.0179 307.6889912  +6.4664260     774.6917     1149.955     1431.642     77.91668     156.0199     312.1642      1.674     4.91     846.8904     55.05138     129.8149        10     1.279     0.534 -27.90   0
       310    258.3499    533.5478 307.8160939  +6.4571819     1570.033     2390.725     2403.724     78.41296     156.0821     312.3505      1.724     5.31     847.6394     55.05138     219.7034        12     1.380     0.587 -49.51   0
       311    797.7715    530.9994 307.5921295  +6.4763166     15153.48     23765.23     24541.89     77.79211     156.0199     312.1331      1.627     4.48     846.5635     55.05138     2096.834        42     1.654     0.935 -43.22   0
       312    974.0320    532.3942 307.5188693  +6.4816282     1660.709     2470.923     2223.178     77.66734     156.0199      312.102      1.637     5.20     842.5962     55.05138     212.3262        14     1.369     0.667 -39.96   0
       313    501.3695    529.3198 307.7152995  +6.4670859     38257.16     66038.57     71310.31     78.16521     156.1442     312.2884      1.863     4.34     846.5307     55.05138     5116.153        76     1.854     1.240 -33.77   0
       314    651.6836    527.6005 307.6529233  +6.4728321      945.849     1334.583     1050.044     77.54237     155.7088     312.0088      1.456     4.42     846.6942     55.05138     154.6707        13     1.390     0.727 -51.67   0
       315    213.7601    525.7706 307.8348759  +6.4588931     1807.817     2827.892      2879.64     77.79211     155.9578     312.1952      1.714     4.10     847.4356     55.05138     255.2493        16     1.430     0.670 -46.34   0
       316     49.3236    526.0153 307.9031628  +6.4532578     1128.621     1695.679     1751.328     77.79211     155.9578     312.1952      1.523     4.96     850.1376     55.05138     155.0785        11     1.312     0.566 -45.23   0
       317    661.2655    524.3221 307.6490534  +6.4745062     2849.008      4354.85     4573.304     78.41296     156.2063     312.2884      1.630     4.47     846.5304     55.05138     395.1968        22     1.488     0.823 -44.13   0
       318     99.8615    525.2040 307.8822006  +6.4552945     639.3251      858.852     999.1888     77.66734     155.9578     312.0399      1.456     4.60     849.3206     55.05138      98.1814         8     1.162     0.516 -55.27   0
       319    671.8002    524.3082 307.6446782  +6.4748646     1286.067     1957.181     1863.495     77.54237     155.7088     311.9777      1.562     5.62     846.5856     55.05138     176.6046        13     1.433     0.620 -44.32   0
       320    723.3880    523.4948 307.6232777  +6.4769268     1270.578     1977.891     1931.274     78.04105     155.9578      312.102      1.589     3.74     846.4464     55.05138     224.9231        11     1.221     0.586 -49.48   0
       321    398.9860    519.9397 307.7581403  +6.4675230     1607.893     2479.653     2350.045     77.79211     156.0821      312.071      1.645     5.40     846.4697     55.05138     242.3629        15     1.671     0.593 -49.79   0
       322     80.1699    522.2202 307.8904798  +6.4558632     636.3604     1126.405     1269.518     77.79211     156.0199     312.1952      1.583     4.29     849.5361     55.05138     99.97595         7     0.893     0.588 -30.98   0
       323     76.7427    519.9948 307.8919784  +6.4566664     441.4621     1051.773      1563.54     77.79211     156.0821     312.0399      2.195     6.00     849.5292     55.05138     71.42242         9     1.623     0.624 -52.56   0
       324    330.7084    518.2293 307.7865568  +6.4659364     3609.203     5832.279       5792.6     78.41296     155.9578     312.2263      1.718     4.63     846.4312     55.05138     495.1979        27     1.619     0.921 -37.85   0
       325    145.7165    516.8401 307.8634381  +6.4602904     24441.59     38884.03     40673.27     78.28918     156.1442     312.2884      1.700     4.42      848.725     55.05138     3258.959        50     1.716     1.009 -41.61   0
       326    510.3856    517.6947 307.7119457  +6.4721869     2107.296     3547.895     3856.375     78.04105     155.9578     312.1642      1.787     4.73     846.1342     55.05138     298.4756        23     1.627     0.822 -39.50   0
       327    873.8391    517.1025 307.5609991  +6.4845952     1319.289     1782.675     1477.165     78.28918     156.0821     312.5367      1.541     4.91     844.2451     55.05138     242.9052        16     1.533     0.718 -44.43   0
       328    110.8118    515.0640 307.8779951  +6.4598487     2532.433     4077.746     3967.943     77.79211     156.0199     312.1331      1.670     4.51     848.9648     55.05138     386.4576        20     1.499     0.801 -44.95   0
       329    347.7561    513.3612 307.7796401  +6.4685185     958.1675     1536.898     1905.055     78.04105     156.1442     312.1642      1.682     5.10     846.1376     55.05138     153.5486        11     1.460     0.503 -42.32   0
       330    971.3344    511.4976 307.5206895  +6.4901643     4896.576     7754.248     8332.454     78.28919     156.2684     312.3505      1.703     4.56     842.4955     55.05138     677.2695        30     1.599     0.910 -39.90   0
       331    544.3214    503.9659 307.6983118  +6.4789916     1349.473     2261.354     2199.575     78.16521     156.2063     312.3195      1.757     5.44     845.3293     55.05138     201.8499        16     1.520     0.735 -43.00   0
       332      9.9613    501.1169 307.9203525  +6.4622090      23809.3     38532.02     41437.84     78.28918     156.1442     312.2884      1.717     4.26     850.0482     55.05138     3251.514        59     1.774     1.059 -42.43  16
       333    442.7367    497.9933 307.7407071  +6.4780504     40060.21     64219.91     67227.49     77.66734     155.8956      312.102      1.690     4.50     845.7834     55.05138     5378.417        66     1.756     1.033 -42.60   0
       334    650.7561    497.6880 307.6543133  +6.4851486     11599.18        18229     19231.44     78.28919     156.0821     312.3505      1.668     4.42     845.1244     55.05138     1650.566        40     1.667     0.948 -44.66   0
       335    290.4205    498.1387 307.8039674  +6.4728759     941.5297     1460.713     1596.779     77.91668     156.2063     312.2574      1.572     5.61     845.7006     55.05138     137.0717        12     1.197     0.742 -50.06   0
       336    984.5195    496.4023 307.5157180  +6.4968355     1099.218     1660.461     1635.509     77.66734     155.7711      312.071      1.791     6.16     842.3303     55.05138     169.9853        13     1.546     0.690 -50.42   0
       337    207.8775    495.5295 307.8383394  +6.4711781     18067.79     30284.84     32277.53     78.53654     156.4545     312.2884      1.819     4.23     846.2457     55.05138     2266.928        55     1.718     1.187 -39.38   0
       338    173.4673    496.6616 307.8525932  +6.4695533     1627.312     2445.892      2410.87     78.28919     156.1442     312.3195      1.570     4.16     847.6913     55.05138     231.6642        16     1.296     0.784 -49.38   0
       339    913.5092    495.7234 307.5452374  +6.4947454     618.6904     823.6595      1228.87     78.16521     156.4545     312.3195      1.508     4.77     842.7583     55.05138     136.2455         7     1.492     0.431 -42.05   0
       340    825.0886    495.6995 307.5819666  +6.4918013     925.6124     1357.234     1270.643     78.28918     156.6403     312.2884      1.561     4.90     843.7913     55.05138     141.7857        10     1.386     0.491 -44.32   0
       341    572.5965    494.4571 307.6868870  +6.4838643     2799.846     4108.459      4358.47     77.66734     156.0821     312.0088      1.610     4.39     844.8195     55.05138     404.6665        20     1.439     0.812 -38.71   0
       342    946.4362    491.7035 307.5316947  +6.4975041      4544.01     7061.139     7008.471     78.28919     156.0821     312.4747      1.683     4.49     842.4443     55.05138     643.6595        29     1.603     0.899 -38.91   0
       343    619.4853    490.0840 307.6675578  +6.4872403     6198.321     9660.907     10395.18     78.04105     156.3304     312.4126      1.660     4.39     844.6393     55.05138      824.939        28     1.572     0.862 -44.58   0
       344    106.8471    490.6273 307.8804670  +6.4698021     1213.038     1818.197     2037.861     77.91668     156.2684     312.2574      1.548     4.00     848.3729     55.05138     174.5496        12     1.140     0.715 -58.07   0
       345    969.0956    483.8883 307.5225439  +6.5014865     3101.779     4909.243     4790.124     78.28919     156.5784     312.3505      1.610     4.52     842.3103     55.05138     446.4529        23     1.575     0.821 -48.32   0
       346    407.4523    483.1128 307.7558638  +6.4830087     722.2017     1249.038     1651.357     78.28918     156.0821     312.4437      1.484     5.52     845.3406     55.05138     92.50513        10     1.561     0.550 -40.77   0
       347    747.3516    481.8738 307.6147208  +6.4949092     603.0692     956.1181     450.9755     78.28918     156.2684     312.3505      1.541     5.37     844.1214     55.05138     102.2354        10     1.288     0.632 -59.23   0
       348    531.7119    481.2620 307.7043129  +6.4879408     7283.977     11397.25     12284.43     78.28919     156.3925     312.3816      1.685     4.52     844.4037     55.05138     1037.133        33     1.623     0.902 -43.15   0
       349    377.6589    481.5124 307.7682927  +6.4826692     2622.778     4051.093     3976.779     78.28919     156.2684     312.4126      1.669     4.20     845.3061     55.05138     372.3461        20     1.435     0.822 -36.10   0
       350    888.3310    477.1450 307.5563186  +6.5015736     2896.132     4456.534     5945.945     78.28918     156.0821     312.2884      1.689     4.27     842.3359     55.05138     411.6713        20     1.513     0.725 -41.85   0
       351    541.8422    477.4203 307.7002343  +6.4898662     676.5652     1032.662     1875.997     77.79211     156.0199     312.1642      2.060     5.36     844.0549     55.05138     117.0339         7     1.260     0.645 -36.14   0
       352    895.6339    471.5774 307.5534717  +6.5041158     2084.465      3318.54     3882.531     77.79211     156.0199      312.071      1.811     4.72     842.1389     55.05138     314.4264        19     1.519     0.842 -39.20   0
       353    934.9194    471.1601 307.5371667  +6.5055999     1192.525     1835.187     1381.539     78.28918     156.2684     312.2574      1.428     4.35     841.9523     55.05138      209.606        13     1.400     0.590 -40.91   0
       354    114.4539    470.6243 307.8779831  +6.4783148     699.5757      1204.61     933.0342     77.79211     156.2063     312.1331      1.821     5.34     847.8653     55.05138     128.6433         8     1.573     0.511 -42.67   0
       355    719.6772    467.5205 307.6266980  +6.4999083     2921.062     4309.481     4256.526     78.53655     156.4545     312.4747      1.624     4.76     843.6689     55.05138     422.1652        21     1.470     0.767 -44.19   0
       356    430.7031    465.9828 307.7467830  +6.4908600     926.0446     1417.633     1727.363     78.16521     156.0199      312.102      1.780     4.98     844.3829     55.05138     126.9092        11     1.371     0.565 -49.93   0
       357    390.4303    465.6209 307.7635232  +6.4896577     3581.358     5676.122     6283.892     77.79211     156.0199     312.1952      1.741     4.88     844.3871     55.05138     470.1411        25     1.586     0.855 -45.59   0
       358     81.3181    466.4023 307.8918885  +6.4789419     1885.886     2873.582     2828.326     77.66734     155.8333     312.0399      1.673     5.56     848.1094     55.05138     256.5469        16     1.505     0.671 -39.04   0
       359    618.2555    462.3061 307.6690020  +6.4986655     9646.022     14895.35     15567.98     78.16521     156.2063     312.5057      1.679     4.51     843.3837     55.05138     1298.595        34     1.627     0.909 -43.06   0
       360    781.2094    458.5421 307.6014397  +6.5056727     14921.92     24179.73     27326.82     77.66734     156.1442     312.0399      1.794     5.30     842.4193     55.05138      2126.52        57     2.288     0.929 -46.19   0
       361    300.5015    459.2766 307.8010903  +6.4892562     2689.719     4315.004     3835.942     77.91668     156.4545     312.3195      1.692     4.39     843.9035     55.05138     382.4864        21     1.523     0.804 -44.57   0
       362    424.4696    458.4202 307.7496268  +6.4937725     629.4995      863.207     1084.866     77.91668     156.0821     312.2574      1.574     5.17     843.9089     55.05138     91.33472         9     1.476     0.513 -44.93   0
       363    809.9475    455.7541 307.5895956  +6.5077844     1282.182     2013.343     2519.145     78.28918     156.1442     312.3816      1.749     5.05     841.9141     55.05138     194.1866        14     1.429     0.656 -38.62   0
       364    383.8304    455.5156 307.7666050  +6.4936074     1653.887     2647.625     3258.979     78.28919     156.0199     312.1952      1.684     4.70     843.7934     55.05138     206.7285        17     1.429     0.782 -47.86   0
       365    966.1104    453.8299 307.5247905  +6.5137949     1759.109     2809.482     3033.739     78.41296     155.9578     312.2884      1.748     4.79     840.9536     55.05138      269.331        20     1.720     0.796 -56.18   0
       366    714.3757    452.8695 307.6293921  +6.5057787     568.3357     967.4397     1037.337     77.91668     156.0821     312.2574      1.952     5.33     843.0112     55.05138     91.76038         7     1.369     0.587 -72.09   0
       367    118.3805    450.6165 307.8770279  +6.4867057     4279.218      6793.04     7238.958     78.04105     155.9578     312.2263      1.734     4.17      847.405     55.05138     623.8777        28     1.676     0.892 -40.60   0
       368    372.3085    451.6752 307.7715202  +6.4948058     765.1782     1152.244     1499.571     78.28919     156.3925     312.3505      1.467     4.17     843.5558     55.05138     124.5464         7     0.953     0.521 -27.33   0
       369    756.4389    449.7144 307.6120253  +6.5084883     2194.299      3359.09     3487.591     78.28919     156.2063     312.3195      1.646     4.17     842.4284     55.05138     338.3603        19     1.396     0.783 -42.59   0
       370   1020.1774    448.5599 307.5025074  +6.5177744     3617.744     6581.603     6987.631     77.91668     156.0199     283.7492      1.959     4.74     839.8223     55.05138     401.9043        33     1.582     1.164 -34.97  16
       371    276.0196    447.9000 307.8116427  +6.4931295     1489.919     2272.842     2424.073     78.28918     156.0821      312.102      1.539     4.35     843.6754     55.05138     220.4918        18     1.389     0.914 -51.07   0
       372    354.3046    445.4974 307.7792066  +6.4967513     3033.691     4710.821     4760.112     78.28919     156.7641     312.1642      1.706     4.53     843.1402     55.05138     458.3696        23     1.570     0.840 -47.39   0
       373    710.0307    443.3936 307.6315151  +6.5095449     1577.249     2317.996     2743.508     77.66734     155.9578      312.102      1.542     4.62     842.5927     55.05138     226.3954        16     1.520     0.708 -41.42   0
       374    984.4651    441.7680 307.5175698  +6.5193866     716.3752     1213.549     1233.495     78.16521     156.2684     312.2884      1.839     4.75     840.0014     55.05138     139.1522         7     1.463     0.437 -51.22   0
       375    413.4970    441.5584 307.7547523  +6.5003645     648.7979     781.2807     904.8425     78.28919     156.0821     312.5367      1.406     4.22     842.9622     55.05138     112.5181         8     1.176     0.625 -59.31   0
       376    242.3368    441.0969 307.8258628  +6.4948053     828.7241     1367.395     1173.273     78.16521     156.3304     312.3816      1.812     6.46     844.1521     55.05138     135.0816        10     1.491     0.787 -38.83   0
       377    551.6538    435.8880 307.6975554  +6.5073391     892.3968     1590.517     2144.817     78.28918     156.0821     312.4437      2.064     6.02     842.2208     55.05138     132.9661        12     1.747     0.584 -34.98   0
       378    473.8674    434.2688 307.7299211  +6.5053992     1218.879     2080.906      2294.99     78.28918     156.3304     312.3195      1.826     5.89     842.4318     55.05138     169.1855        14     1.417     0.688 -38.24   0
       379    836.3185    433.4290 307.5793899  +6.5178815     1522.139     2271.215     2407.986     78.16521     156.0199     312.2884      1.633     5.12     840.9421     55.05138     227.5022        15     1.448     0.669 -47.25   0
       380    621.4806    433.0384 307.6686459  +6.5108549     658.6636     1000.275     1142.274     78.28918     156.2684     312.2574      1.725     4.84     842.1676     55.05138     144.5715         9     1.481     0.603 -39.22   0
       381    822.2729    432.2674 307.5852634  +6.5178916     1897.127     2862.019     3160.661     78.41296     156.3304     312.2884      1.621     5.10     840.9255     55.05138     255.2357        16     1.426     0.693 -42.95   0
       382    719.4268    430.5266 307.6280440  +6.5151707     14530.55     22106.99     23567.96     77.91668     156.1442     312.2574      1.668     4.54     841.9745     55.05138      2274.76        37     1.637     0.883 -41.05   0
       383   1009.7236    426.6505 307.5075834  +6.5264698     482.0557     919.0817     1222.806     78.16521     156.2684     312.3195      1.990     5.98     838.4036     55.05138     77.06134         6     1.513     0.665 -13.81   0
       384    640.2833    426.6027 307.6610516  +6.5141412     2359.889     3721.518     4149.226     77.66734     155.8333     312.0088      1.722     4.21     842.0488     55.05138     377.7262        22     1.458     0.880 -34.78   0
       385    615.5422    423.6112 307.6714295  +6.5145474     5112.524     8460.781     9153.822     77.66734     156.1442     312.0399      1.733     4.40       841.75     55.05138     716.1586        29     1.575     0.934 -48.86   3
       386    611.8886    421.0285 307.6730340  +6.5154912     13897.42     22096.58     23235.62     78.41296     155.9578     312.2263      1.661     4.32     841.5906     55.05138     1955.204        40     1.695     0.912 -43.21   3
       387    944.6401    420.4438 307.5348276  +6.5268599     3531.616     5517.309     6022.708     78.04105     156.2063     312.1952      1.707     4.62      839.929     55.05138     540.5915        24     1.569     0.818 -43.99   0
       388    383.8033    416.3807 307.7679344  +6.5097607     27583.63     44078.96     46436.39     77.91668     155.7711     312.1331      1.714     4.41      841.425     55.05138     3896.809        59     1.729     1.046 -42.65   0
       389    900.3177    416.2397 307.5533804  +6.5271154     1482.347     2437.593      3290.08     78.28919     156.2684     312.2574      1.666     4.24     840.3128     55.05138     234.9293        16     1.437     0.846 -45.41   0
       390    129.9582    415.8696 307.8733923  +6.5014380     2162.384      3433.63     3302.771     78.16521     156.2063     312.3816      1.770     4.25     846.4729     55.05138      284.449        23     1.563     0.871 -41.08   0
       391    913.5255    410.8329 307.5480750  +6.5297883     4944.229     7570.343     7867.829     78.16521     156.2063     312.2884      1.631     4.20     840.1671     55.05138     724.5073        26     1.555     0.801 -40.43   0
       392    595.5703    412.0769 307.6801134  +6.5186396     554.2271      1130.36     1048.001     78.16521     156.2684     312.3505      2.335     5.88      841.114     55.05138     108.2843         7     1.388     0.702 -44.61   0
       393     63.3081    411.2362 307.9012329  +6.5011063     1433.933     2457.014     2361.572     78.41296     156.0821     312.3505      1.865     5.20     847.2422     55.05138      195.011        17     1.255     1.008 -35.15   0
       394    241.3406    406.9124 307.8274297  +6.5088824     13270.82     21317.29     22752.47     78.28918     156.2684     312.4126      1.713     4.30     843.5389     55.05138     1840.696        45     1.682     1.023 -43.88   0
       395    969.5641    408.6697 307.5248682  +6.5325521     560.1273     792.0701     468.2466     78.16521     156.2684     312.3816      1.700     4.73     838.7512     55.05138     92.31366         7     1.313     0.483 -50.63   0
       396    736.1208    400.6923 307.6221108  +6.5280446     658.1164     1140.786     1819.451     78.04105     156.4545     312.3816      1.724     5.15     840.6983     55.05138     99.79645         8     1.175     0.638 -48.38   0
       397    703.9758    400.3938 307.6354741  +6.5270922     689.2241     910.8073     818.0182     77.79211     155.9578     312.1952      1.480     3.67     840.8771     55.05138     124.4435         6     1.163     0.332 -48.98   0
       398     76.3637    400.7655 307.8961639  +6.5058680     768.5189     1120.786     1406.005     78.04105     155.9578      312.071      1.777     4.56     846.9963     55.05138     147.9439         9     1.260     0.693 -70.82   0
       399    964.5796    399.0753 307.5272602  +6.5363463     941.3964     1537.328     1665.736     77.91667     156.0199     312.2574      1.863     4.55      838.606     55.05138      155.201         9     1.265     0.516 -50.94   0
       400    354.2417    396.6910 307.7808772  +6.5168955     1333.899     2285.767     2229.198     78.28919     156.2063     312.3816      1.755     5.66     840.4221     55.05138      184.183        14     1.616     0.672 -45.54   0
       401    186.4224    395.8464 307.8506148  +6.5116031     1580.308     2163.369     1910.528     77.91668     156.2063     312.1952      1.359     0.00     844.8234     55.05138     693.4016        13     1.110     0.884  48.90   0
       402    141.6284    395.5043 307.8692326  +6.5102370     4773.513     7705.167     7766.056     78.41296     155.9578     312.2884      1.715     4.67     845.9146     55.05138     709.0081        28     1.705     0.812 -42.02   0
       403    438.9453    394.5612 307.7457639  +6.5206182     675.5997      1072.26     1180.521     78.28918     156.2684     312.3195      1.778     4.85     840.2714     55.05138     115.4748         7     1.274     0.523 -59.31   0
       404    246.3258    394.4994 307.8257776  +6.5141738     1311.045     1864.345     1292.105     77.79211     156.3304     312.2574      1.575     5.19     843.0406     55.05138     212.7422        11     1.262     0.602 -47.49   0
       405    163.6016    391.3676 307.8602452  +6.5126840     2314.116     3873.037      3997.96     77.54237     156.0199      312.071      1.794     4.59     845.3707     55.05138     290.6216        22     1.581     0.854 -63.44   0
       406    827.5527    392.1414 307.5844159  +6.5346318     796.2057     1255.346     975.1039     78.28918     156.2063     312.4437      1.597     4.33     840.1085     55.05138     144.4921         7     1.190     0.449 -41.62   0
       407    558.6492    390.4626 307.6961771  +6.5263245     889.8737     1339.051     1236.891     78.28919     156.1442     312.3816      1.640     4.47     839.8855     55.05138     155.9265         9     1.103     0.746 -41.32   0
       408    274.9142    387.0382 307.8141541  +6.5182147     777.0884     1274.439     1148.749     78.28919     156.2063     312.3195      1.681     4.22     842.1592     55.05138     158.3942         6     1.245     0.409 -46.11   0
       409    975.6301    385.6495 307.5231192  +6.5422572     838.3589     1574.606     1976.993     77.91668     156.2684     312.2263      2.430     5.63     837.8667     55.05138     105.0651        11     1.269     0.703 -56.16   0
       410    387.1692    386.1155 307.7675558  +6.5223666     1935.179     3226.022     3539.381     78.28918     156.0199     312.1952      1.719     4.62     839.8414     55.05138     244.6445        19     1.441     0.791 -48.42   0
       411      6.1627    386.3392 307.9258105  +6.5094576     712.7205     1154.389     857.2245     78.28918     156.2684     297.7909      1.623     5.09     847.5359     55.05138     128.0358         9     1.351     0.543 -35.92  16
       412    321.0752    384.1628 307.7950764  +6.5209528     567.2272      1089.18     1533.336     78.16521     156.2684     312.3505      2.212     6.48     840.7599     55.05138     102.5523         8     1.401     0.841 -31.38   0
       413    594.3311    382.2494 307.6816308  +6.5309105     360.4078     430.8585     221.3925     78.16521     156.1442     312.3195      1.355     4.14     839.4388     55.05138     87.62598         5     1.517     0.322 -39.84   0
       414    440.9044    379.7804 307.7454477  +6.5267852     6975.528     11213.42     12120.61     78.16521     156.0199     312.1331      1.696     4.41     839.4636     55.05138     960.0605        35     1.646     0.916 -41.04   0
       415     37.3298    380.4805 307.9130628  +6.5129262      3206.63     5386.322     5774.251     78.53655     156.5164     312.3505      1.840     4.60     847.1515     55.05138     455.4194        28     1.774     0.894 -43.33   0
       416    773.5530    378.8490 307.6072941  +6.5383134     1900.682     3185.124     3615.044     78.28918     156.0821     312.3505      1.842     4.79     840.1212     55.05138     290.6801        19     1.484     0.808 -38.32   0
       417     67.9633    379.8733 307.9003591  +6.5142088     403.0037     505.6823     140.2588     78.16521     156.2063     312.3505      1.190     4.00     846.8311     55.05138     69.40076         6     0.979     0.468 -38.39   0
       418    781.6078    377.1592 307.6040047  +6.5392803     12283.66        19293     20212.81     77.66734     156.0199     312.0088      1.663     4.60     840.0972     55.05138     1761.431        41     1.655     0.941 -41.41   0
       419    344.9633    375.8044 307.7854352  +6.5252055     874.8434     1678.609     1904.122     77.41721     155.9578     312.1331      2.167     5.76     839.6089     55.05138      128.616        12     1.496     0.626 -38.68   0
       420   1023.8432    373.2256 307.5035062  +6.5489944     1340.911     1603.647      1962.33     65.17489     121.2531     231.9591      1.011     2.60     836.0261     55.05138     373.0748         7     1.011     0.360 -87.00  24
       421    956.3041    368.5950 307.5317190  +6.5486522     588.7264     1071.192     985.9723     78.04105     155.8956      312.071      1.759     4.18     837.9556     55.05138     107.4453         7     1.219     0.409 -40.19   0
       422    189.7198    367.9622 307.8501862  +6.5232239     744.1454     1276.182     1012.414     78.16521     156.2684     312.2884      2.041     5.33     843.9487     55.05138     106.0283         9     1.433     0.560 -47.34   0
       423    461.2514    363.9995 307.7375268  +6.5339820     2213.206     3522.595     3721.389     77.54237     155.7711     311.8844      1.683     4.40     838.5447     55.05138     346.1534        22     1.519     0.820 -44.19   0
       424    489.1677    363.3766 307.7259512  +6.5351756     2925.969     4919.028     4785.399     77.79211     156.0199     312.1331      1.749     4.84     838.4219     55.05138     408.4403        26     1.646     0.853 -41.06   0
       425    917.6708    363.4311 307.5479413  +6.5494940     954.5096     1309.638     1113.902     78.16521     156.2063     312.2884      1.490     4.77     838.7444     55.05138     149.6182        10     1.179     0.708 -50.60   0
       426    846.9908    360.0564 307.5774169  +6.5485259     31055.67     50948.65     54247.15     77.66734     156.0821     312.0088      1.713     4.46     839.6795     55.05138     4315.509        62     1.762     1.081 -47.44   0
       427    338.5994    355.9929 307.7887464  +6.5331694     706.1009      1022.66     1253.539     77.66734     155.8956     312.1331      1.827     4.67     838.9471     55.05138     123.8732         8     1.230     0.504 -29.77   0
       428     64.4203    356.1012 307.9026340  +6.5239018     573.3936     1105.882     872.4016     78.28918     156.0199      312.102      1.738     3.50     846.5937     55.05138     87.73578         5     0.783     0.451  71.76   0
       429    618.7549    352.4059 307.6724880  +6.5440477      2606.54     4075.846     4695.895     77.66734     155.9578     311.9777      1.670     4.82     837.9069     55.05138     406.7309        24     1.708     0.738 -43.78   0
       430     26.8859    352.9037 307.9183331  +6.5239571      1069.73     1550.677     1265.782     78.28919     156.5784     312.3816      1.426     5.30     846.9576     55.05138     163.8968        14     1.492     0.638 -47.40   0
       431    149.7933    350.6880 307.8673543  +6.5290108     517.0063     702.7918     1096.944     77.79211     155.8956      312.071      2.042     3.42     844.8632     55.05138     102.0599         5     1.233     0.274 -34.31   0
       432    703.4079    346.0114 307.6375362  +6.5495216     77221.52       119385     125416.3     77.91667     156.0199     312.2574      1.640     4.35      838.782     55.05138     10939.29        83     1.740     1.077 -42.19   0
       433    861.7667    347.3617 307.5717042  +6.5542599     1086.493     1828.166     2281.693     78.04105     156.0199      312.102      1.870     5.53     839.2259     55.05138     174.4315        13     1.446     0.596 -44.76   0
       434     82.4801    345.6193 307.8954865  +6.5288367     1176.112       2161.2     1739.903     77.91668     155.8956     312.2574      1.769     5.94     846.3399     55.05138     182.2595        13     1.448     0.685 -47.97   0
       435    565.7967    342.7830 307.6948113  +6.5462455     2741.786     4266.902     4533.516     77.91667     155.7711     312.1642      1.622     4.62     837.2491     55.05138     400.7132        22     1.468     0.841 -46.09   0
       436    103.1412    341.5028 307.8870432  +6.5312317     5891.645     9633.812     10076.46     78.04105     156.2063     312.4437      1.731     4.32     846.0032     55.05138     793.9161        32     1.653     0.939 -46.63   0
       437    945.0066    342.7759 307.5372773  +6.5589330     836.9998     1232.161     1086.199     77.79211     156.0199     312.1642      1.547     5.31      837.362     55.05138     117.0818        11     1.282     0.620 -38.71   0
       438    549.1783    338.9128 307.7018451  +6.5472860      6854.44     10762.45     11257.34     78.28918     156.0199     312.1642      1.634     4.26     837.0327     55.05138     968.4283        33     1.612     0.921 -43.32   0
       439    277.9313    336.5911 307.8146021  +6.5391395      2618.22     4171.226     4310.465     77.79211     155.9578     312.1952      1.661     4.78     840.8602     55.05138     324.8752        21     1.489     0.846 -46.45   0
       440    412.0259    334.0593 307.7589836  +6.5446888     24858.86     40135.97     42159.07     77.91668     156.2063     312.1642      1.693     4.31     837.2639     55.05138     3465.016        57     1.725     1.054 -41.02   0
       441    589.9176    333.5690 307.6851008  +6.5508572     682.1066     928.5956     698.0472     78.16521     156.0199     312.2574      1.301     3.98     836.7133     55.05138     103.8279         7     0.842     0.637  74.23   0
       442    519.6437    332.7482 307.7143216  +6.5488405     1128.739     1721.932      1701.51     78.28919     156.1442     312.3505      1.640     5.17     836.7155     55.05138     175.5757        13     1.435     0.605 -42.46   0
       443    391.9240    332.1542 307.7673983  +6.5448004     1232.874     1931.784     2363.161     78.16521     156.2684     312.3505      1.670     5.12      837.452     55.05138     158.9161        13     1.318     0.682 -38.75   0
       444    491.4056    329.3130 307.7261679  +6.5493115      1158.12     1896.841     1847.081     77.79211     155.8956     312.0399      1.735     5.12     836.5068     55.05138      178.643        13     1.456     0.567 -45.05   0
       445    806.7111    326.6305 307.5952715  +6.5609774      750.494     1194.828     1114.551     78.41296     156.0199     312.2574      1.863     5.58     838.9491     55.05138     145.4282        11     1.551     0.818 -41.16   0
       446    642.2390    326.7790 307.6635934  +6.5554127     626.4462     1130.449     1002.416     77.91668     156.0199      312.071      1.611     4.32     836.8171     55.05138     130.6747         7     1.302     0.497 -42.27   0
       447    501.1153    324.4493 307.7222979  +6.5516448     8332.192      13203.4     14227.28     78.28918     156.2063     312.4126      1.706     4.60     836.2178     55.05138     1131.102        36     1.754     0.889 -45.10   0
       448    389.3215    326.0432 307.7686853  +6.5472355     626.8183     805.6697      1856.43     78.16521     156.2063     312.3505      1.607     5.40     837.3203     55.05138      92.4458         8     1.335     0.616 -58.01   0
       449    925.6793    322.9494 307.5459709  +6.5664720     863.9193     1288.877     1436.019     78.28918     156.2684     312.3195      1.615     5.45     836.8495     55.05138     170.8132        11     1.761     0.476 -39.30   0
       450    770.2649    323.2978 307.6105244  +6.5611344     3057.372     4583.527     4827.816     78.28919     156.2684     312.3505      1.597     4.85     838.7299     55.05138     430.0753        20     1.514     0.719 -40.52   0
       451    718.1591    322.6743 307.6321918  +6.5596486     673.8294     1070.079     1167.969     78.16521     156.2063     312.3505      1.728     4.99     838.1466     55.05138     131.9145        10     1.516     0.544 -21.66   0
       452    327.4002    321.5327 307.7945601  +6.5470177     1053.349     1587.882     2047.504     77.54237     155.7088     312.0399      1.706     4.55     838.7213     55.05138     170.6216        16     1.488     0.775 -46.99   0
       453    162.3435    315.6636 307.8633236  +6.5438902     775.4758     1077.645     1624.481     78.41296     156.1442     312.3505      1.560     3.90     843.6806     55.05138     107.1534         7     0.866     0.750 -75.39   2
       454    164.3130    313.7082 307.8625715  +6.5447637      559.708     935.7054      1287.77     78.16521     156.6403     312.4126      1.590     3.98     843.5804     55.05138     126.3864         5     1.074     0.422  12.51   2
       455    263.7685    314.5118 307.8212301  +6.5477772     671.6297      954.623     682.2344     78.41296     156.0199     312.2574      1.619     3.42     840.5092     55.05138     107.9662         5     0.794     0.427 -22.90   0
       456    390.9612    308.6433 307.7685903  +6.5544729     7140.769     11352.23     11587.29     78.04105     156.1442     312.1952      1.698     4.39     836.7717     55.05138     952.8765        35     1.635     0.941 -42.54   0
       457    744.4814    308.5574 307.6217305  +6.5663566     953.2166     1452.907     1647.677     78.28919     156.2063     312.2884      1.722     4.71     838.2024     55.05138     193.3497        12     1.459     0.571 -53.71   0
       458    246.9500    309.0402 307.8284012  +6.5494703     2043.422     3331.653     3279.515     78.41296     156.2063     312.2574      1.671     4.67     841.0587     55.05138     321.4246        20     1.621     0.724 -41.48   0
       459    758.9129    304.5750 307.6158688  +6.5684833     52343.99     79965.97      84122.2     78.41296     156.0199     312.1952      1.645     4.29     838.1138     55.05138     7647.391        72     1.714     1.036 -41.30   0
       460    430.6711    303.7430 307.7522590  +6.5578286     2269.576      3629.24     3875.815     78.41296     156.2063     312.2884      1.700     4.47     835.6315     55.05138     325.6694        20     1.563     0.772 -40.15   0
       461    993.7493    301.6229 307.5184058  +6.5775477     1620.347     2483.089     2446.578     77.79211     156.2684     312.2263      1.660     4.69     835.3577     55.05138      229.366        18     1.531     0.745 -47.60   0
       462    934.6746    300.9264 307.5429718  +6.5758633      2209.24     3540.557     3358.419     78.53654     156.4545     312.3816      1.657     4.35     835.6802     55.05138     319.7297        17     1.478     0.742 -48.12   0
       463    576.8362    301.1736 307.6916244  +6.5637912     1238.937     1987.648     1869.083     77.91667     156.0199      312.102      1.693     6.41     834.8251     55.05138     171.4729        17     1.444     0.865 -42.73   0
       464    416.8871    299.7305 307.7581203  +6.5590223     2172.238     3553.361     3847.536     78.41296     156.4545     312.3505      1.774     5.56     835.5942     55.05138     266.9202        24     1.732     0.887 -45.14   0
       465    467.5932    300.3477 307.7370350  +6.5604691     1090.762     1751.032     2156.418     77.79211     156.0199     311.9466      1.781     5.21     835.0103     55.05138     152.2175        11     1.448     0.531 -42.63   0
       466    297.0483    299.2560 307.8079197  +6.5551931     674.9467     1023.717      1007.09     78.28918     156.2063     312.4126      1.506     4.60      838.634     55.05138     122.5103         8     1.317     0.455 -40.48   0
       467    838.0196    294.3364 307.5833479  +6.5753547     1033.315     1914.589     2074.179     77.91667     156.2063     312.1642      2.103     6.24     837.3126     55.05138     139.3348        14     1.433     0.829 -33.84   0
       468    467.2790    294.5511 307.7373607  +6.5628513     641.8983     1096.509      1771.95     78.28919     156.2684     312.2884      1.608     4.39     834.7477     55.05138     106.2795         7     1.250     0.439 -40.28   0
       469    970.0211    292.8193 307.5285586  +6.5803898     589.4194     713.7625     149.0641     78.04105     156.1442     312.2574      1.450     5.16     835.2354     55.05138     95.68506         6     1.074     0.700 -66.70   0
       470    447.5829    290.9924 307.7456627  +6.5636594     1023.734     1886.778     2107.377     77.91667     155.9578     312.1642      2.131     5.92     834.7717     55.05138     157.8867        13     1.514     0.651 -40.91   0
       471    193.5188    290.8475 307.8512109  +6.5551826     2231.737     3788.279     3855.724     78.28918     156.2063     312.3505      1.806     4.53     842.4846     55.05138     293.1852        24     1.601     0.939 -37.02   0
       472    757.3323    289.1514 307.6170431  +6.5747971     5806.184      9047.59     9460.802     78.16521     156.1442     312.3505      1.652     4.27      837.608     55.05138     830.4097        30     1.625     0.836 -42.43   0
       473    228.9239    288.7608 307.8365737  +6.5572349     842.8578     1221.847     1274.125     78.16521     156.2063     312.3816      1.475     4.76     841.6892     55.05138     118.9415         9     0.946     0.680 -61.92   0
       474    773.7669    287.1583 307.6102824  +6.5761695     2653.931     4159.289     4163.004     78.04105     156.2063     312.1642      1.602     4.17     837.5062     55.05138      408.068        21     1.489     0.796 -43.41   0
       475    347.9932    288.2276 307.7871280  +6.5614570     605.0604     991.9253     959.2798     77.79211     156.0821     312.1331      1.850     4.03     837.7672     55.05138     98.20447         5     0.873     0.532 -52.84   0
       476     90.0442    287.9946 307.8942915  +6.5528772     1010.114     1573.247      1744.01     77.66734     155.8956     311.9777      1.578     5.11     846.0338     55.05138     180.4351        11     1.310     0.589 -34.34   0
       477    476.4727    286.5266 307.7338114  +6.5664721     572.3328     1066.378     795.3184     78.53655     156.3304     312.3816      1.724     4.30      834.266     55.05138     86.20319         5     1.202     0.439 -33.76   0
       478    363.1812    281.6974 307.7810386  +6.5646627     1786.317     3449.743     4141.193     78.16521     156.0821      312.071      2.056     6.50     837.0834     55.05138     218.1688        25     1.771     1.030 -18.71   0
       479     76.7214    282.3384 307.9000170  +6.5547631     1221.267     1813.227     1871.164     78.41296     156.2684     312.3195      1.747     4.00     845.8734     55.05138     184.9288        13     1.306     0.654 -37.75   0
       480   1011.9373    278.0102 307.5116402  +6.5879017     5441.846     9128.223     9601.398     77.79211     156.0199     312.1331      1.738     4.54     834.5399     55.05138     732.4573        34     1.733     0.952 -42.50   0
       481    489.9817    277.9130 307.7284893  +6.5704808     1903.775     3184.944     3285.218     78.04105     155.9578     312.1952      1.762     4.52      834.033     55.05138     250.4533        20     1.529     0.809 -40.17   0
       482    252.6128    273.3130 307.8272540  +6.5644079     5542.511     8942.197     9025.429     77.91668     156.0199     312.2263      1.747     4.64     840.0344     55.05138     770.0811        36     1.643     1.025 -41.85   0
       483    816.9993    272.1883 307.5928237  +6.5837946     666.0552     896.9991     861.5753     77.91668     155.8956     312.1331      1.362     3.40     836.6166     55.05138     125.5226         6     0.918     0.435 -37.92   0
       484    771.7037    266.8938 307.6118197  +6.5844655      730.225     951.7594     987.6647     78.28918     156.7641     312.2263      1.511     4.76     836.4803     55.05138     121.0316         8     1.150     0.581 -46.76   0
       485    229.5054    266.1779 307.8370941  +6.5665761     579.2427     992.8845     536.8223     78.28919     156.0199     312.1642      1.637     2.31     840.9599     55.05138     110.0282         5     0.710     0.469 -71.04   0
       486    973.5638    263.2160 307.5280783  +6.5927281      1052.64     1729.385     1717.961     77.91668     156.0199      312.102      1.796     6.37     833.7908     55.05138     127.7878        15     1.633     0.697 -46.91   0
       487    386.7521    264.0051 307.7718427  +6.5727573     1503.674     2626.069     2516.831     77.66734     156.0199     312.0088      1.739     4.31     835.6693     55.05138     227.4021        16     1.365     0.812 -51.35   0
       488    156.2526    259.9524 307.8677350  +6.5666812     1682.947     2727.355     2536.297     78.41296     156.1442     312.3505      1.686     4.84     842.6923     55.05138     253.7077        21     1.596     0.804 -45.40   0
       489    308.9140    260.2803 307.8043047  +6.5716801     1009.634     1511.858     1151.948     78.04105     156.5164     312.4437      1.675     5.34     837.7285     55.05138     159.6393        12     1.447     0.580 -37.84   0
       490    566.0977    255.6671 307.6976160  +6.5822156     2087.138     3180.852     3140.536     78.28918     156.2684     312.3505      1.591     4.46     833.4659     55.05138     312.5582        18     1.447     0.770 -39.95   0
       491    909.9602    254.9600 307.5547800  +6.5940125     1635.396      2708.99     3232.854     78.04105     156.3304     312.1952      1.751     4.79     833.9482     55.05138     251.3975        18     1.570     0.694 -38.58   0
       492    729.7701    253.2935 307.6296978  +6.5886767     4966.035     7434.584       7507.1     78.41296     155.9578     312.2263      1.598     4.34     835.3658     55.05138     771.4185        26     1.556     0.810 -40.85   0
       493    670.4578    253.3129 307.6543387  +6.5866834     2093.823     3205.788     3199.203     78.28919     156.2063     312.4437      1.695     4.36     833.8402     55.05138     309.6467        22     1.625     0.790 -44.30   0
       494    967.5706    253.2968 307.5309006  +6.5966226     717.1707     863.6658     1058.068     78.41296     155.9578     312.3195      1.460     4.89     833.2835     55.05138     120.8588         8     1.259     0.538 -44.46   0
       495    385.2320    247.6190 307.7730263  +6.5794700     782.7811     1192.207     1191.385     77.79211     156.0199     312.1952      1.682     5.58     835.2894     55.05138      119.296        10     1.338     0.655 -46.41   0
       496    925.6717    245.3906 307.5485731  +6.5984874     1008.935     1588.269     1657.001     77.79211     155.8333     312.1331      1.714     5.15     832.9728     55.05138     196.0871        11     1.432     0.526 -41.93   0
       497    229.2431    238.3195 307.8381431  +6.5780665     2326.055     3558.433      3341.35     78.28919     156.2063     312.2884      1.723     4.53     840.1734     55.05138     319.2791        21     1.516     0.833 -47.90   0
       498    872.1238    237.4585 307.5710865  +6.5999731     1697.121     2484.486     2917.408     78.41296     156.2063     312.2884      1.624     4.82      834.256     55.05138     265.6744        15     1.414     0.678 -40.13   0
       499    762.2579    237.0886 307.6167444  +6.5964528     1616.927     2243.151     2190.583     78.28918     156.1442     312.4437      1.424     3.97     834.8549     55.05138     229.3085        14     1.243     0.689 -44.48   0
       500    583.3997    232.4637 307.6912082  +6.5923735     456.5841     737.8808     547.2896     77.54237     155.9578      312.071      1.765     3.40     832.9488     55.05138     84.91016         5     1.055     0.317 -68.20   0
       501    356.2162    233.3603 307.7855611  +6.5843812     1063.198     1298.322     1714.952     77.91668     156.0199      312.102      0.827     1.92     835.3607     55.05138     374.3593         5     0.623     0.381 -71.53   0
       502    463.4756    228.1529 307.7411761  +6.5901316     21514.41     35125.16     38407.16     78.16521     156.2684     312.3195      1.808     5.24     833.4689     55.05138     2882.277        71     2.406     1.037 -43.08   0
       503    324.5919    230.3936 307.7987992  +6.5845434     620.2379     998.9119     543.8505     77.66734     156.0199     312.1642      1.431     5.40     836.5888     55.05138     98.44421         9     1.551     0.530 -37.76   0
       504    789.1949    227.5788 307.6058722  +6.6012792     12583.04     20232.96     21894.34     77.91668     155.9578     312.1331      1.742     4.68     834.6561     55.05138     1740.866        50     1.813     1.022 -36.06   0
       505    728.1728    223.3807 307.6313658  +6.6009709     804.1343      1441.14     1610.627     77.91668     156.0199     312.2263      1.805     6.81     833.7154     55.05138     125.9779        13     1.582     0.822 -40.84   0
       506    151.2523    221.6435 307.8711059  +6.5823257     2338.568      3794.72     3641.127     78.28919     156.2063     312.3505      1.672     3.98     842.0139     55.05138     321.3176        23     1.550     0.871 -42.76   0
       507    125.8214    220.8517 307.8816974  +6.5817964     1098.617     1675.784     1551.453     77.79211     156.2063     312.1331      1.599     4.10     842.4473     55.05138     161.1242        11     1.058     0.842 -54.90   0
       508    178.1446    219.4161 307.8600092  +6.5841502      536.693     650.9629     805.1254     77.66734     156.1442     312.0399      1.360     3.69     841.2523     55.05138     109.4636         6     1.445     0.271 -35.94   0
       509    925.5981    217.7910 307.5495287  +6.6098778     1446.023     2396.007     2595.942     77.66734     155.8956      312.102      1.757     5.20     831.7435     55.05138     218.0875        17     1.610     0.738 -43.71   0
       510    587.1675    214.2473 307.6902554  +6.6000192     4545.754      7192.12     7334.059     77.91668     156.2063     312.2574      1.627     4.26     832.4844     55.05138     652.2358        28     1.626     0.833 -40.72   0
       511    307.3517    214.9704 307.8064815  +6.5903303     1083.477     1595.292     1660.943     77.91667     156.2684     312.2263      1.621     5.78      837.401     55.05138     141.5257        16     1.405     0.817 -47.65   0
       512    549.8635    214.1780 307.7057561  +6.5987975     2031.284     3176.185     3160.824     77.91667     156.2063     312.1952      1.660     4.77     832.3538     55.05138     300.6368        19     1.568     0.719 -41.81   0
       513    391.7021    213.3722 307.7714922  +6.5938236     1351.768     2181.405     2270.666     78.41296     155.9578     312.2884      1.780     4.74     834.3953     55.05138      217.744        17     1.551     0.749 -46.85   0
       514    948.0371    211.3254 307.5404224  +6.6132960     2527.628     3908.625     4285.223     78.16521     156.2684     312.3195      1.654     4.68     831.4231     55.05138     346.8547        19     1.498     0.743 -48.34   0
       515    894.3124    210.8063 307.5627613  +6.6117161     10673.04     16806.58     17410.16     77.79211     155.8956      312.071      1.663     4.58     832.3728     55.05138     1524.052        39     1.641     0.954 -43.40   0
       516    321.8388    211.1102 307.8005931  +6.5924106     954.7781     1435.718     1724.059     78.28918     156.1442     312.3505      1.569     4.77     836.6512     55.05138     141.7509        10     1.288     0.523 -52.40   0
       517    980.9478    208.6143 307.5268395  +6.6155137     9075.985     14371.64     14660.21     77.66734     156.1442      312.071      1.674     4.72     831.3047     55.05138     1196.464        36     1.651     0.930 -40.56   0
       518    569.0760    210.8276 307.6978867  +6.6008245      903.922     1310.917     1345.082     78.16521     156.2063     312.2884      1.488     4.70     832.3159     55.05138     147.2593         9     1.297     0.484 -40.06   0
       519    692.3442    208.5064 307.6467510  +6.6059116     2793.843     4425.429     5036.338     78.16521     156.2063     312.5057      1.739     4.40     832.7105     55.05138     423.0366        22     1.541     0.806 -40.56   0
       520     20.4001    207.2344 307.9259526  +6.5838658     24438.56     39530.23     41946.34     77.29183     155.9578      312.102      1.724     4.40     844.8508     55.05138     3273.807        52     1.701     1.042 -42.65   0
       521    266.9057    208.2256 307.8235120  +6.5917549     1083.298     1531.834     1053.048     78.41296     155.9578     312.1642      1.535     5.73     838.8679     55.05138     153.3048        13     1.282     0.723 -27.81   0
       522    500.9599    203.4118 307.7264359  +6.6016017     1893.833     3114.163     3248.647     77.66734     156.0199      312.071      1.746     4.75     832.2482     55.05138     239.4301        17     1.374     0.806 -38.84   0
       523    884.9938    199.2301 307.5670211  +6.6161834     1876.283     3101.296     3415.052     77.79211     156.0199      312.102      1.875     4.93     832.0213     55.05138     253.8928        21     1.648     0.809 -45.52   0
       524    832.8848    200.0674 307.5886433  +6.6140964     1817.332     2997.809       3175.1     78.53654     156.4545     312.3505      1.781     4.81     832.8599     55.05138      276.317        15     1.505     0.613 -44.79   0
       525    512.8365    199.4850 307.7216338  +6.6036209     2503.695     4025.978      4624.28     78.28919     156.1442     312.2884      1.745     4.84     831.9971     55.05138     362.5732        20     1.553     0.743 -44.24   0
       526    744.4814    196.7167 307.6254854  +6.6125231     38629.13     60338.65     63744.58     78.04105     156.4545     312.3816      1.693     4.34     832.8766     55.05138     5807.657        64     1.732     1.027 -41.48   0
       527    347.4666    196.0112 307.7904550  +6.5995041     5747.913     11670.81     13049.43     77.79211     156.0199     312.1952      2.199     6.81     835.3859     55.05138      665.863        46     2.136     1.142 -63.51   0
       528    978.1505    195.5244 307.5284402  +6.6208237     2644.132     4267.544      4602.47     78.16521     156.2684     312.3195      1.746     4.46     830.8638     55.05138     376.5392        21     1.567     0.789 -47.73   0
       529    912.4071    193.8531 307.5558116  +6.6193186     7123.929     11190.36     11448.11     77.79211     156.0199     312.0088      1.676     4.62     831.2733     55.05138     968.9918        28     1.548     0.882 -44.44   0
       530   1016.7400    194.1145 307.5124539  +6.6226935     1514.038     2478.617     2158.217     78.41296     156.2684     311.9466      1.708     5.39     830.6668     55.05138     212.2267        16     1.473     0.790 -33.65  16
       531    455.8857    192.7655 307.7455209  +6.6044841     4794.967     7684.761     8325.711     78.28918     156.0821     312.3195      1.697     4.45     832.6553     55.05138     629.2272        28     1.626     0.850 -42.63   0
       532    230.2493    189.3852 307.8393765  +6.5982990     761.4495     1495.167     1798.884     77.66734     156.1442     312.0399      2.450     7.16     839.7362     55.05138     107.3768        13     1.662     0.865 -27.36   0
       533    113.2508    184.1399 307.8881599  +6.5965266     4664.627     7722.058      8278.47     78.28918     156.1442     312.3195      1.755     4.51      842.092     55.05138     592.6223        30     1.685     0.923 -43.51   0
       534    932.5426    183.4598 307.5477940  +6.6242813     876.5455     1059.102     1417.758     78.41296     156.1442     312.3505      1.572     4.54     830.6187     55.05138     163.7303        10     1.293     0.515 -44.41   0
       535    283.5226    180.8255 307.8175328  +6.6036235     32172.62     51963.59     54506.97     78.04105     156.1442     312.2884      1.733     4.43     838.5745     55.05138     4375.532        60     1.737     1.072 -42.50   0
       536    258.7605    181.8811 307.8277847  +6.6023553     6179.783     9997.197     10507.66     78.28918     156.2684     312.2574      1.717     4.33     839.1078     55.05138     848.0448        36     1.659     0.999 -39.77   0
       537    609.4449    183.0334 307.6820494  +6.6136502     534.2498      1045.02      1298.74     77.91667     156.1442     312.2263      1.692     2.91      831.876     55.05138     90.00092         4     0.826     0.300 -59.01   2
       538     83.0567    182.9882 307.9007427  +6.5959850     549.7418     703.8609     883.1494     77.66734     156.1442     312.0088      1.410     4.88     843.0057     55.05138     85.25464         6     1.162     0.580  -0.63   0
       539    712.4404    180.2160 307.6393519  +6.6182622     964.5037     1470.927     1567.363     77.79211     156.0199      312.102      1.602     4.05     832.0416     55.05138     167.7343        10     1.183     0.556 -37.29   0
       540    407.6168    176.3279 307.7661284  +6.6096490     48099.92     77294.48     81685.34     77.79211     156.1442     312.2263      1.732     4.47     833.3875     55.05138     6850.143        70     1.766     1.071 -41.94   0
       541    163.4679    177.5699 307.8675195  +6.6009291     3781.182     6118.747     6241.649     78.04105     156.2063     312.2884      1.762     4.87     840.5676     55.05138     558.1399        28     1.594     0.905 -44.17   0
       542      7.6323    178.2657 307.9322364  +6.5953927     447.3873     689.7723     632.7554     78.16521     156.2684     309.0418      1.611     4.08     845.6746     55.05138     83.76801         5     1.183     0.402  76.13  16
       543    424.8560    176.9304 307.7589458  +6.6099790     1254.988     2021.297     1734.506     78.41296     156.0821     312.2884      1.663     5.34      832.945     55.05138     183.8898        17     1.621     0.706 -46.58   0
       544    319.0451    174.0432 307.8030035  +6.6076170     2111.658     3598.927      4244.69     78.28919     156.2063     312.2574      1.993     6.22      836.894     55.05138     286.6506        25     1.935     0.920 -54.83   3
       545    311.6135    174.0188 307.8060919  +6.6073773     17326.59     27938.11      29622.5     78.04105     155.9578     312.2263      1.711     4.37     837.2686     55.05138     2270.579        49     1.764     1.006 -39.78   2
       546    746.9225    172.6057 307.6252807  +6.6225575     31529.44     49923.28     52231.99     77.91667     155.7088     312.1642      1.696     4.59     831.8815     55.05138     4293.658        56     1.697     1.005 -42.78   0
       547    695.0318    174.3616 307.6467815  +6.6200961     906.9703     1366.953     1258.929     77.91667     155.9578     312.1331      1.628     4.84     831.7727     55.05138     138.8466        12     1.322     0.657 -38.98   0
       548    795.0747    172.9693 307.6052620  +6.6240180      1096.92     1867.076     1917.648     78.16521     156.2684     312.3195      1.853     4.24     831.7126     55.05138     202.1311        12     1.448     0.581 -42.41   0
       549    501.7156    174.4725 307.7270959  +6.6135726     2553.975     2816.067     2384.564     78.41296     156.5164     312.3505      1.362     3.92     831.2322     55.05138     1251.516        10     1.510     0.292  21.56   0
       550    494.2951    173.1425 307.7302237  +6.6138727      1233.99     1496.531     1348.058     78.16521     156.2063     312.4747      0.882     2.40     831.3112     55.05138     494.0892         7     0.963     0.328   7.64   1
       551     34.2515    172.5424 307.9213714  +6.5986523     679.5064     741.9794     905.9973     78.28919     156.2063     312.3195      1.595     5.54     844.7808     55.05138     106.0405        10     1.319     0.657 -65.36   0
       552     63.7151    169.7527 307.9092253  +6.6007966     8728.989     14127.36     14725.97     78.28919     156.2063     312.3195      1.741     4.51     843.6457     55.05138     1205.965        39     1.706     0.959 -42.87   0
       553     97.6990    167.7246 307.8951755  +6.6027785     1351.866     2187.601     2110.296     77.79211     156.3304     312.2263      1.741     5.68      842.312     55.05138     190.3514        17     1.546     0.733 -45.74   0
       554   1005.6499    166.8306 307.5179755  +6.6335860     1046.346     1321.037     1018.669     77.91668     156.2684     312.2263      1.534     4.85     829.6964     55.05138     155.5905        13     1.190     0.760 -42.60   0
       555    973.4263    166.0703 307.5313898  +6.6328245     517.7678     837.6806     1083.123     77.91667     156.0821     312.2574      1.609     4.26      829.866     55.05138     78.80054         6     1.471     0.352 -43.62   0
       556    731.1086    160.7019 307.6322509  +6.6269420     477.4913     572.3067     138.3698     78.28918     156.7022     312.2884      1.344     3.86      831.442     55.05138     99.22241         5     0.866     0.494 -52.01   0
       557    580.9746    156.9058 307.6947568  +6.6234812     852.7224     1284.941     691.6622     78.41296     155.9578     312.1642      1.594     5.76     830.6666     55.05138     137.3811        12     1.154     0.809 -31.18   0
       558   1006.3143    153.2476 307.5181544  +6.6392151     2080.516     3464.899     4137.551     78.28919     156.1442     312.3195      1.738     4.91     829.0471     55.05138      277.078        21     1.466     0.875 -46.00   0
       559    589.2963    151.0123 307.6914975  +6.6261928     1109.641     1599.695     1398.176     78.16521     155.9578      312.102      1.597     5.64     830.5875     55.05138     148.6786        13     1.441     0.622 -50.73   0
       560    597.6818    148.9314 307.6880835  +6.6273328     1948.408     3024.076     2877.015     78.53654     156.4545     312.3505      1.720     4.65     830.6642     55.05138     280.5435        18     1.478     0.736 -41.47   0
       561    341.9216    148.8801 307.7943476  +6.6187723     1016.935     1629.799     1430.759     78.53654     156.4545     312.4747      1.739     5.69      835.814     55.05138     142.3074        14     1.319     0.826 -58.51   0
       562    282.4593    147.0931 307.8191125  +6.6175116     29147.93     47163.34     50331.65     78.16521     156.1442     312.4437      1.748     4.40     838.7411     55.05138     3809.996        63     1.753     1.106 -42.77   0
       563    846.0425    148.1890 307.5849168  +6.6359509     464.3355     686.6462     700.7775     77.66734     156.0199     312.0399      1.507     3.74     830.0893     55.05138     81.72504         5     1.248     0.322 -63.38   0
       564     27.6518    145.6015 307.9250242  +6.6095501     4121.482     6857.315     6689.959     77.66734     155.8333     311.9155      1.772     4.53     844.5062     55.05138     568.8787        33     1.802     0.937 -47.42   0
       565    714.1184    143.7358 307.6398800  +6.6333768     7679.145     12239.12     12967.34     78.41296     156.2684     312.3195      1.682     4.57     830.6576     55.05138     1034.308        35     1.596     0.979 -45.13   0
       566    191.3880    144.9185 307.8570225  +6.6153462     828.8959     1150.073     764.2896     77.91667     155.9578     312.1642      1.619     5.81     839.7726     55.05138     120.6916        11     1.492     0.638 -41.85   0
       567    124.8883    140.7977 307.8847895  +6.6148087     4539.134     7273.072     7837.555     77.66734     155.8333      312.071      1.676     4.43     840.7261     55.05138     633.0814        31     1.756     0.880 -44.67   0
       568    267.8988    142.1816 307.8253275  +6.6190494     795.0917     1149.266     1087.656     78.28918     156.0821      312.071      1.398     4.80     838.9995     55.05138     118.7072         8     1.242     0.526 -29.54   0
       569    586.8888    138.6997 307.6929119  +6.6311945     651.3333      1004.56     353.4833     78.28918     156.6403     312.2884      1.749     5.78     830.0898     55.05138     102.2718         8     1.249     0.753 -37.47   0
       570    463.7337    138.1753 307.7440985  +6.6272811       1270.8     1879.157     1966.387     77.91668     156.2063     312.2263      1.586     4.91     831.0295     55.05138     207.5815        14     1.492     0.638 -46.83   0
       571    395.6484    136.7805 307.7724334  +6.6255714     3781.206     6989.524     7475.252     77.79211     156.2684     312.1331      1.989     4.55     833.2157     55.05138     441.5403        37     1.740     1.148 -53.25   0
       572    652.7339    137.6389 307.6655896  +6.6338384      768.335     1084.241     1022.743     78.16521     156.1442     312.4126      1.508     4.51     830.3623     55.05138     147.0917         8     1.272     0.454 -42.98   0
       573    572.0021    135.8880 307.6991917  +6.6318562     629.8591     1164.445     1588.576     77.66734     155.8333      312.071      2.346     5.40     829.7706     55.05138     90.22516         8     1.417     0.580 -54.83   0
       574    360.0624    135.7547 307.7872530  +6.6247996     3035.324     4941.861     4701.338     78.16521     156.1442     312.3816      1.667     4.59     835.0486     55.05138     389.1702        23     1.628     0.794 -42.57   0
       575    114.2110    135.7725 307.8893953  +6.6165234     1589.057     2711.365     2827.165     77.91667     156.0199     312.1952      1.771     4.54     840.8746     55.05138     230.2242        20     1.576     0.788 -47.18   0
       576    750.2298    134.0936 307.6251998  +6.6385653     654.2664     943.3608     709.6944     78.41296     155.9578     312.2263      1.372     4.01     830.1741     55.05138     122.9246         7     1.118     0.412 -33.50   0
       577    675.6688    133.7145 307.6561923  +6.6362263     673.2034     1203.705      1082.53     78.41296     156.4545     312.3505      1.847     4.61     830.1853     55.05138     129.2425         8     1.370     0.440 -49.65   0
       578   1006.6508    129.9490 307.5187949  +6.6488438     1304.461      2081.66     2057.496     78.28918     156.0821     312.2574      1.739     5.53     827.8171     55.05138     204.0541        15     1.459     0.702 -43.91   0
       579    211.8676    124.6649 307.8491978  +6.6243953     5263.835     8595.731      8832.47     78.28918     156.2063     312.3505      1.717     4.42     839.6207     55.05138     660.3611        31     1.655     0.920 -42.05   0
       580     94.4165    124.3897 307.8980037  +6.6205551     2063.821     3394.718      3399.73     78.04105     155.9578     312.1952      1.749     4.43     841.0059     55.05138     288.2296        21     1.551     0.819 -51.23   0
       581    673.5759    123.4670 307.6574062  +6.6403862     6107.469     9580.388     9649.434     77.91668     156.1442     312.2574      1.680     4.60      829.693     55.05138     906.5069        30     1.591     0.901 -43.23   0
       582    821.8445    123.2113 307.5958090  +6.6454525     1096.347     1516.772     1285.141     77.79211     156.0821     312.0399      1.559     4.42     829.4901     55.05138     176.7349        11     1.462     0.568 -35.78   0
       583    625.8578    120.7413 307.6773244  +6.6399132     8980.119     14650.84     16063.95     78.28918     156.1442     312.3505      1.744     4.53     829.6033     55.05138     1199.712        42     1.732     1.014 -43.23   3
       584    629.3759    112.2711 307.6761475  +6.6435273     51236.51     81434.14     85986.94     77.91668     156.0821     312.2574      1.711     4.51     829.2015     55.05138     7147.285        72     1.763     1.057 -42.64   2
       585    260.6642    120.9618 307.8290492  +6.6275651     646.2367     999.0222     1281.644     78.28918     156.1442     312.4126      1.579     4.25     839.1343     55.05138     132.9976         7     1.259     0.409 -64.37   0
       586     24.4544    119.8017 307.9272250  +6.6200914     890.7405     1704.454     1792.017     77.66734     155.9578     311.9466      2.104     5.21     843.5674     55.05138     124.1729        10     1.577     0.487 -51.72   0
       587    563.5981    120.2162 307.7032106  +6.6380435      709.361     935.7147     1618.967     77.91668     155.8333      312.102      1.532     4.41     829.1482     55.05138     91.94452         7     0.995     0.556 -31.58   0
       588    352.8656    116.5229 307.7908914  +6.6324962      3606.07     5758.401      6100.31     78.41296     156.2063     312.2884      1.749     4.51     835.6608     55.05138     482.1364        27     1.629     0.876 -42.46   0
       589    534.7151    115.7950 307.7153600  +6.6389002     1797.383     2684.777     2781.076     77.79211     155.8956     312.0088      1.634     4.40     829.0641     55.05138     235.3901        17     1.423     0.744 -45.47   0
       590    998.7256    115.9691 307.5225561  +6.6543501     771.8763      1174.84     1339.241     78.16521     156.2063     312.3195      1.913     4.09     827.1215     55.05138     121.9568         7     1.138     0.420 -34.56   0
       591    753.4424   1018.2432 307.5941990  +6.2737029     1303.796     2235.661     2917.319     78.04105     156.2063     302.7646      2.028     4.62     858.6238     55.05138     168.9323        15     1.264     0.825 -37.14  16
       592    308.4677    105.9520 307.8096943  +6.6353677       3463.4     5850.107     6422.155     78.28918     156.1442     312.3505      1.824     4.65     837.8982     55.05138     518.6645        29     1.681     0.912 -44.79   0
       593    708.4741    100.2112 307.6436873  +6.6511541     820.1192     1422.192     1303.147     77.79211     155.8333     312.1642      1.651     4.73     828.6672     55.05138     124.6083         9     1.489     0.426 -48.89   0
       594    679.8706     99.3810 307.6556001  +6.6505392      1195.87      2200.55     2187.591     77.91668     156.0821     312.2574      1.854     5.43     828.6213     55.05138     174.2906        18     1.735     0.738 -55.03   0
       595    693.8584     96.1113 307.6498979  +6.6523572     3054.305     4865.543     4931.719     78.16521     156.2063     312.4436      1.641     4.92     828.4974     55.05138     466.8445        19     1.500     0.730 -45.19   0
       596    435.4844     87.2416 307.7575511  +6.6473572     4026.326     6258.113      6044.05     78.28919     156.0821     312.2884      1.678     4.19     830.4988     55.05138     595.4409        25     1.576     0.876 -37.45   0
       597    889.9911     83.6072 307.5688218  +6.6640780     2052.762     3197.972     3303.261     77.66734     156.0199     312.1952      1.639     4.70     827.3301     55.05138     303.3793        19     1.506     0.750 -50.85   0
       598    587.9840     83.1940 307.6943237  +6.6541429     866.1271      1129.95     1370.865     77.91668     155.9578     312.1642      1.600     4.33     828.2344     55.05138     144.6563         9     1.220     0.606 -49.62   0
       599    600.2161     81.2143 307.6893077  +6.6553700     1759.874     2725.162     2308.188     78.04105     155.8956     312.2574      1.608     4.36     828.2379     55.05138     262.0104        17     1.444     0.734 -37.98   0
       600    246.2029     80.4174 307.8364258  +6.6438142     876.0797     1423.403     1813.067     77.91668     155.7711      312.102      1.755     6.17     839.1924     55.05138     113.0341        12     1.440     0.743 -49.32   0
       601    398.8950     78.9311 307.7730338  +6.6495591     1881.927     2986.443     2931.333     78.16521     156.3304     312.3505      1.664     4.42     832.1944     55.05138      252.201        17     1.438     0.728 -46.94   0
       602    146.7842     75.9244 307.8778841  +6.6423234      2927.45     5002.288     5701.884     77.79211     155.9578     312.1952      1.830     4.66     838.2614     55.05138     393.3532        25     1.647     0.861 -41.68   0
       603     28.7438     73.7033 307.9270020  +6.6392637     11921.49     19418.75     21088.07     78.16521     156.1442     312.5367      1.744     4.41     841.4824     55.05138     1579.863        45     1.747     1.017 -42.98   0
       604    295.2652     74.1562 307.8162522  +6.6480483     1214.143     1927.454     2699.051     78.28918     156.1442     312.3195      1.875     5.02     838.5463     55.05138     153.7873        14     1.420     0.771 -37.66   0
       605    567.4449     74.1577 307.7031617  +6.6571845     562.5995     770.6592     539.3393     78.16521     156.2063     312.1642      1.422     4.12     828.0099     55.05138     88.13416         6     1.056     0.459 -30.82   0
       606    555.4977     73.1493 307.7081599  +6.6572002     739.7234     1281.298     1592.887     78.16521     156.1442     312.5057      1.913     5.47     827.9518     55.05138     123.7566        10     1.345     0.627 -57.02   0
       607    763.6550     72.8263 307.6216787  +6.6643046     645.4384     1239.422     1715.917     77.91668     156.2684     312.1642      2.127     5.01      827.567     55.05138     104.5825         7     1.548     0.458 -50.56   2
       608    762.4296     68.4219 307.6223357  +6.6660817     673.9709     1045.277     2146.861     77.66734     156.0199     312.1952      2.781     4.01     827.3663     55.05138     114.9125         5     1.020     0.660 -76.62   2
       609    986.5891     72.2412 307.5290640  +6.6719954     496.6843     588.0975      859.268     77.66734     156.0199     312.0399      1.322     3.45     824.7236     55.05138     70.06317         5     0.766     0.449 -71.08   0
       610    908.1089     82.6818 307.5613245  +6.6650653     3706.388     5903.079     6134.937     78.04105     156.4545     312.3816      1.658     4.74     826.8311     55.05138     482.8478        24     1.551     0.810 -43.56   0
       611    830.4502     68.3013 307.5940758  +6.6684062     6021.437     9333.351     9887.613     78.28919     156.2063     312.5057      1.701     4.92     827.1994     55.05138     865.6252        31     1.694     0.841 -40.97   0
       612    775.5528     68.7406 307.6168721  +6.6663892       3258.9     5111.854     5203.622     78.28919     156.2063     312.4126      1.715     4.65     827.3506     55.05138     434.5436        25     1.606     0.838 -41.98   0
       613    420.7455     68.9854 307.7642901  +6.6543981     1114.516     1774.017     1612.636     77.66734     156.1442     312.0399      1.684     6.33     830.4214     55.05138     188.3644        15     1.481     0.761 -51.69   0
       614    921.7045     68.5292 307.5561497  +6.6713614     520.8247     817.7248     819.0339     78.16521     156.2684     312.2884      2.001     4.81     826.1935     55.05138     77.28967         6     1.333     0.491  -4.05   0
       615    537.9318     66.6065 307.7156788  +6.6593119     980.5498         1665     1934.988     77.79211     155.8956     312.1642      2.029     5.77     827.9335     55.05138     155.7149        14     1.520     0.617 -44.89   0
       616     69.0354     65.4782 307.9105400  +6.6440166      2991.02     4938.457     5127.951     78.16521     156.2684     312.3505      1.699     4.65     839.4412     55.05138     390.6793        25     1.589     0.882 -49.22   0
       617     53.6435     66.3663 307.9169050  +6.6431313     1081.499     1776.099     1850.373     78.04105     156.2063     312.1331      1.671     5.99     840.1149     55.05138     140.3304        14     1.468     0.687 -42.82   0
       618    658.2451     65.6202 307.6657203  +6.6637509     389.9115     685.0707     399.6031     77.91668     156.0821     312.1331      1.568     4.65     827.6206     55.05138     73.78107         5     1.389     0.442 -31.50   0
       619    430.2209     65.2511 307.7604788  +6.6562576     913.9871     1341.766     1317.926     77.79211     156.2684     312.1952      1.658     5.86      830.119     55.05138     123.0265        13     1.197     0.807 -41.75   0
       620    592.8184     62.2209 307.6930203  +6.6629622     1380.443     2122.312     2025.915     78.04105     156.1442     312.2263      1.530     4.80     827.8922     55.05138     226.1211        13     1.387     0.609 -36.69   0
       621     11.4957     60.9488 307.9345995  +6.6439468     2482.939     4112.831     4822.958     78.16521     156.1442     312.5367      1.804     4.45     841.7259     55.05138     323.5167        22     1.538     0.855 -45.94   0
       622    872.4934     57.8171 307.5769574  +6.6741392     472.7042     605.7277     575.5205     78.04105     156.0199     312.1952      1.435     4.81      826.618     55.05138     74.24341         6     1.540     0.427 -56.39   0
       623     83.4610     57.1987 307.9048264  +6.6479200     779.1164     1321.694     1418.376     77.66734     156.0199     312.0399      1.645     4.03      838.465     55.05138     127.1053         9     1.099     0.582 -56.45   0
       624    770.0463     56.2267 307.6195803  +6.6713705      1972.99     3374.693      3789.24     77.91667     156.2684     312.2263      1.782     5.18     826.8159     55.05138     261.9924        20     1.634     0.751 -37.91   0
       625    411.0253     56.2264 307.7687588  +6.6593383     958.4933      1370.06     1031.587     77.79211     156.0199     312.1952      1.503     4.72     830.7667     55.05138     160.9861         9     1.278     0.494 -48.28   0
       626    107.4516     55.3069 307.8949227  +6.6495090     768.5201     1320.833     1316.678     78.16521     156.0821     312.5367      1.749     5.49     837.7012     55.05138     108.0498         9     1.429     0.595 -39.71   0
       627     96.7569     49.9170 307.8995483  +6.6513736      8863.06     14591.56     15105.48     78.28918     156.2063     312.2574      1.743     4.65     837.5052     55.05138     1185.809        36     1.680     0.957 -44.58   0
       628    425.8247     49.6348 307.7628316  +6.6625561     2442.812     3829.472     4122.306     77.79211     156.0199      312.102      1.702     4.47      829.881     55.05138      336.334        20     1.517     0.806 -40.19   0
       629    639.5538     41.9501 307.6742826  +6.6728954     17570.18     27926.73     29033.02     78.28918     156.0821     312.3505      1.701     4.57     827.1736     55.05138     2266.245        46     1.700     0.973 -44.91   0
       630    263.5584     43.8631 307.8304483  +6.6594864      1418.62     2446.239     3383.694     78.28918     156.1442     312.3816      2.098     5.36     838.8683     55.05138     176.7458        18     1.610     0.806 -49.68   0
       631    668.8360     43.7128 307.6620559  +6.6731485     534.8984     892.6554     726.1395     78.28918     156.0821     312.3195      1.740     6.31     826.8217     55.05138     68.82837         7     1.401     0.798 -33.78   0
       632    539.3234     37.9687 307.7160643  +6.6711797     4924.765     7879.669     7907.042     78.16521     156.2684     312.2884      1.699     4.44      827.366     55.05138     697.1639        31     1.660     0.898 -44.27   0
       633    257.4062     38.3995 307.8331889  +6.6615347     1840.495     3009.015     4160.048     77.66734     155.8956     312.1331      1.824     5.29      838.847     55.05138     264.5067        17     1.547     0.736 -34.43   3
       634    265.4705     33.9483 307.8299884  +6.6636432     8845.167     14401.25      16178.5     78.16521     156.0821     312.3505      1.766     4.47     838.8217     55.05138     1126.899        41     1.753     1.002 -43.90   2
       635    695.2025     37.0012 307.6513256  +6.6768018     461.1626     591.9486     1216.683     77.66734     155.7711     312.0399      1.368     4.33     826.4674     55.05138     73.55548         5     1.069     0.499 -52.01   0
       636    626.4899     36.2902 307.6799013  +6.6747941     961.6038     1516.124     2080.673     78.28919     156.7022     312.4126      1.709     5.57     827.2484     55.05138     124.7802        11     1.365     0.642 -54.18   3
       637    625.6091     31.7385 307.6804203  +6.6766434     2909.354     4874.731     5368.443     77.66734     156.0821      312.102      1.722     4.51     827.1642     55.05138     410.4526        22     1.481     0.817 -47.33   2
       638    444.8440     33.6069 307.7554688  +6.6698104     21295.41     34814.52      36867.2     77.79211     155.9578     312.0088      1.748     4.60     829.0432     55.05138     2821.997        52     1.748     1.015 -44.51   0
       639      6.2334     36.2812 307.9376203  +6.6539511     1115.075     1708.066     1497.281     78.16521     156.1442     298.6039      1.658     4.86     841.0212     55.05138     159.9965        13     1.234     0.750 -31.40  16
       640    922.7026     33.6895 307.5569029  +6.6857761     1727.678     2872.528     2651.266     78.28919     156.6403     312.3195      1.685     4.48     825.4989     55.05138     248.2733        17     1.459     0.735 -40.04   0
       641    325.0019     34.4869 307.8052347  +6.6654221     1040.505     1479.388     1326.488     77.66734     155.8333     312.0399      1.492     5.22     837.1917     55.05138     155.3531        10     1.075     0.716 -59.48   0
       642     30.8532     33.6192 307.9274813  +6.6558799     2288.279     3831.806     3996.571     77.79211     156.2063     312.1331      1.732     4.29     839.7791     55.05138     313.8549        21     1.519     0.824 -49.26   0
       643    558.0234     33.3308 307.7084501  +6.6737211     612.6016     840.0416     623.9628     77.91667     156.0821     312.2884      1.396     4.16     827.2428     55.05138     127.5215         7     1.148     0.431 -55.67   0
       644    530.0018     33.5924 307.7200849  +6.6726735     556.9707     802.0368     738.9944     77.66734     155.8956     312.1331      1.794     3.84     827.4204     55.05138     106.6532         5     1.272     0.333 -49.57   0
       645    253.2387     30.7376 307.8351791  +6.6645571     2816.353     4514.677     5263.447     78.28919     156.2063     312.3816      1.741     4.45     838.8039     55.05138     383.6132        25     1.548     0.880 -42.75   0
       646    306.2402     29.1528 307.8132102  +6.6669933     985.8155     1536.428     1820.671     78.16521     156.2063     312.1331      1.800     5.01     838.0496     55.05138     123.0834        10     1.086     0.654 -46.05   0
       647    943.0361     24.0471 307.5487768  +6.6904354     866.3447     1455.059     1790.758     77.91668     156.2684     312.2574      1.760     5.94     824.5118     55.05138     149.0331        12     1.561     0.660 -36.56   0
       648    694.7755     23.1708 307.6519678  +6.6824964     1829.401     2634.178     2552.667     77.79211     156.0821     312.1642      1.545     4.22     825.9857     55.05138     258.5344        18     1.373     0.770 -44.89   0
       649     99.2860     23.4586 307.8993918  +6.6623798     599.0656     778.2913     1110.786     78.28919     156.2063     312.4437      1.658     4.99     836.1414     55.05138     91.40839         7     1.026     0.687 -43.17   0
       650    260.7147     18.3832 307.8324897  +6.6699080     628.8423     1208.565     901.0605     77.91668     155.9578     312.2574      1.593     5.10     838.7393     55.05138     81.81622         8     1.367     0.538 -51.25   0
       651    206.4259     18.4971 307.8550430  +6.6680348     732.9601     1073.638     1383.318     78.41296     155.9578     312.2263      1.955     5.47     837.8953     55.05138     104.8123         9     1.329     0.636 -45.55   0
       652    960.9485   1012.4573 307.5082346  +6.2830223     5727.866     10557.01     11607.22     78.28918     156.2063     312.3195      1.992     4.83     854.7504     55.05138     584.3267        45     1.883     1.235 -45.50  16
       653    715.0228   1013.2141 307.6103196  +6.2744941     857.7879     1280.561     2313.746     78.04105     156.0199     312.2263      1.979     6.18     859.4959     55.05138     110.0876        11     1.198     0.895 -22.14   3
       654    720.5690   1010.4727 307.6081088  +6.2758112      2612.83     4571.582     4942.851     78.16521     156.2063     312.3195      1.889     4.98     859.2993     55.05138     311.9161        24     1.639     0.899 -36.77   2
       655    443.6959   1011.6747 307.7230252  +6.2660422     846.2532     1321.191     1861.145     78.04105     156.3925     312.3505      2.083     6.09      860.111     55.05138     148.4174        11     1.480     0.704 -43.35   0
       656    736.3313   1009.5237 307.6015960  +6.2767301     832.0872     1479.773     1168.387     78.41296     156.3304     312.3195      1.888     6.18     858.9697     55.05138      112.429        13     1.430     0.864 -55.27   0
       657    367.4464   1007.9326 307.7548090  +6.2650288     1783.281     2770.211     2885.862     78.28918     156.1442     312.3195      1.690     4.28      861.326     55.05138     247.3344        18     1.419     0.798 -44.22   0
       658    245.3153   1012.4743 307.8053625  +6.2590527     1422.232      2098.95     2022.723     78.41296     156.5164     312.3816      1.637     6.06     860.2298     55.05138      170.603        15     1.384     0.746 -46.98   0
       659    519.9439    999.7318 307.6917691  +6.2735282     1044.763     1541.766      1512.27     78.41296     156.0821     312.2574      1.504     5.28     860.1836     55.05138     149.0214        10     1.277     0.658 -51.48   0
       660    754.1464    997.5731 307.5945998  +6.2822589     7225.976     12334.24     13368.51     78.04105     156.3304     312.2574      1.838     4.44     858.2894     55.05138     838.7582        40     1.764     1.033 -44.80   0
       661    549.5463    998.2755 307.6795272  +6.2751213     3959.858     6670.445     7008.235     78.28919     156.2063     312.3505      1.822     4.33     860.2233     55.05138     517.7715        31     1.644     1.027 -44.08   0
       662    299.8463    996.7686 307.7832514  +6.2673676      13926.9     23294.37      25309.3     77.91667     156.2063     312.2263      1.792     4.60      861.468     55.05138     1789.652        52     1.928     1.022 -39.41   0
       663    815.2607    996.8469 307.5692488  +6.2846015      1074.17     1840.372     1984.835     78.16521     156.1442     312.3816      1.879     4.84     856.9642     55.05138     139.2544        15     1.368     0.774 -40.08   0
