#   1 NUMBER                 Running object number                                     
#   2 X_IMAGE                Object position along x                                    [pixel]
#   3 Y_IMAGE                Object position along y                                    [pixel]
#   4 ALPHA_J2000            Right ascension of barycenter (J2000)                      [deg]
#   5 DELTA_J2000            Declination of barycenter (J2000)                          [deg]
#   6 FLUX_APER              Flux vector within fixed circular aperture(s)              [count]
#   9 FLUXERR_APER           RMS error vector for aperture flux(es)                     [count]
#  12 FLUX_RADIUS            Fraction-of-light radii                                    [pixel]
#  13 FWHM_IMAGE             FWHM assuming a gaussian core                              [pixel]
#  14 BACKGROUND             Background at centroid position                            [count]
#  15 THRESHOLD              Detection threshold above background                       [count]
#  16 FLUX_MAX               Peak flux above background                                 [count]
#  17 ISOAREA_IMAGE          Isophotal area above Analysis threshold                    [pixel**2]
#  18 A_IMAGE                Profile RMS along major axis                               [pixel]
#  19 B_IMAGE                Profile RMS along minor axis                               [pixel]
#  20 THETA_IMAGE            Position angle (CCW/x)                                     [deg]
#  21 FLAGS                  Extraction flags                                          
         1     25.7159     19.9166 307.9273679  +6.6691435     9316.795     13386.84     13841.51     77.86878     156.1091      311.723      1.528     3.67     834.8996     54.92987     1393.791        34     1.462     0.930 -44.38   0
         2    321.2608     15.1884 307.8047412  +6.6809478     14254.97     20421.54     21321.04      77.4959     155.7376     311.3511      1.504     3.81     837.2803     54.92987     2091.363        36     1.475     0.919 -44.55   0
         3     94.9364     15.4918 307.8987590  +6.6732805     2783.058     4021.947     4065.149     78.11638     156.0472      311.692      1.523     3.91     835.6442     54.92987       384.72        17     1.348     0.738 -48.04   0
         4     86.2538     14.2440 307.9024081  +6.6735059     1622.883      2145.42     2534.387     78.11638     155.8615     311.6301      1.450     3.61     835.4357     54.92987     241.8698        16     1.306     0.747 -48.99   0
         5    789.8450     13.6249 307.6101074  +6.6971518     876.5093     1028.644     1019.297     77.62039     155.9234     311.5061      1.364     4.14     826.6473     54.92987     130.5719        11     1.143     0.648 -50.55   0
         6    387.5161     12.9791 307.7772884  +6.6840644     2718.138     3796.087       3609.2     77.86878     155.5515     311.5371      1.467     4.05     834.7916     54.92987     414.3237        17     1.331     0.735 -49.50   0
         7    648.2293      8.4846 307.6691182  +6.6945800      12048.5     16617.06     17429.87     78.11638     155.6135     311.4751      1.475     3.93     826.6153     54.92987     2085.688        33     1.458     0.848 -45.53  16
         8     66.0619     10.0752 307.9109366  +6.6745531     695.0209     1078.006      1266.36     78.36319     155.8615     311.6301      1.483     4.50     834.7802     54.92987     112.4769         8     1.082     0.531 -52.66   0
         9    982.7354      9.7323 307.5300922  +6.7051412     804.0709     1003.374      1052.63     78.11638     155.8615      311.661      1.349     4.19     823.7091     54.92987      135.712         8     1.097     0.584 -16.29   0
        10    525.7869      8.2505 307.7199985  +6.6906124     1489.382     2075.515      2055.42      77.4959     155.7995     310.8856      1.445     4.62     827.1559     54.92987     248.5446        12     1.226     0.624 -47.28  16
        11    812.8004      7.6573 307.6007684  +6.7003758     1605.723     2402.607     2051.333     77.37122     155.4894     308.2031      1.457     3.72     826.5218     54.92987     251.1394        14     1.127     0.781 -46.02  16
        12    883.3359      5.8363 307.5715220  +6.7034624     1524.634     2319.847     2062.514     77.99268     155.8615     294.1288      1.575     4.00     825.8516     54.92987     234.3518        18     1.407     0.881 -50.49  16
        13    248.6841      5.4076 307.8352217  +6.6825691     7036.126     10484.13     11435.11     77.74469     155.5515     289.8299      1.667     4.30     836.4271     54.92987     1177.801        36     1.865     0.880 -33.74  16
        14    409.7538      4.0212 307.7683488  +6.6885022     8978.693     12830.66     13401.72     77.74469     154.0545     273.5485      1.471     3.64     833.2595     54.92987     1471.883        30     1.453     0.859 -49.85  24
        15    670.9788      2.4129 307.6598687  +6.6978412      11835.6     21124.79     22628.27     77.86878     138.4058     251.2884      1.923     8.07     826.4719     54.92987     1971.534        43     2.100     0.867 -28.61  24
        16    639.8989      3.8183 307.6727350  +6.6962301     9958.573     13704.05     14451.06     78.11638     152.6062     271.0665      1.453     3.75     826.5562     54.92987     1526.179        30     1.455     0.822 -46.65  24
        17    725.4543      2.6145 307.6372280  +6.6995640     2120.634     2879.524     2662.313      77.4959     141.3054     254.2298      1.482     3.84      826.502     54.92987     355.4802        16     1.293     0.724 -46.26  24
        18    648.3102      1.2048 307.6693275  +6.6975881      1285.52     1592.542     2041.184     66.06216     121.7809     232.3215      0.918     2.32     826.4904     54.92987     380.3718         7     0.886     0.394  -6.32  24
        19    188.2624      1.3699 307.8604599  +6.6822227     917.1317     1236.423     1215.647     68.21927     124.2921     234.9663      1.346     4.67     835.6057     54.92987     237.9512        10     1.494     0.426  -9.14  24
        20    913.1094    992.6508 307.5263415  +6.2970267     36573.72     67828.36     72834.41     78.11638     155.6756     311.7849      1.987     4.41     855.6075     54.92987     3954.063        75     1.792     1.415 -47.30   0
        21    514.8292    995.5399 307.6915944  +6.2826400     473.9102     791.6036     951.0475     77.86878     155.8615     311.5991      1.525     4.64     859.5004     54.92987     104.8111         5     0.947     0.803  79.77   0
        22    220.3969    991.3399 307.8139655  +6.2745870     1654.595     2599.211     2529.331      77.4959     155.6135     311.3511      1.601     4.34     856.7878     54.92987     221.1072        17     1.402     0.877 -41.81   0
        23    811.0677    986.6627 307.5689047  +6.2961236     1957.168      3362.11     3320.966     78.11638     155.7995      311.661      1.863     5.78     856.9688     54.92987     215.0447        22     1.515     1.060 -65.85   0
        24    108.4420    990.0952 307.8604830  +6.2713720     723.7432     1139.248     550.9375     78.11638     155.7995      311.754      1.584     3.91      855.209     54.92987     147.8997         8     1.105     0.543 -30.44   0
        25    759.2643    984.3964 307.5904870  +6.2953443     5969.001     10410.75     11458.45      77.4959     155.6756     311.4131      1.904     4.30     857.5875     54.92987     715.8208        38     1.720     1.150 -54.10   0
        26    619.7109    988.5204 307.6482866  +6.2890176     790.1207     1252.295      1354.68     77.86878     156.1091      311.723      1.657     4.40     859.4597     54.92987     112.9766         9     1.034     0.716  26.56   0
        27    228.6207    983.8490 307.8108021  +6.2779533     1407.403     2443.827      2510.75     77.62039     155.9234     311.5061      1.754     5.61     856.8629     54.92987     201.3132        20     1.560     1.025 -61.56   0
        28    545.7706    983.4932 307.6791508  +6.2886405     881.3334     1349.312     1189.876     78.23988     155.6135     311.5371      1.624     4.81     859.6151     54.92987      141.963         8     1.057     0.621 -39.22   0
        29    193.1125    983.2914 307.8255615  +6.2770014     808.4962      1365.64      1501.71     77.99268     156.2945      311.754      1.736     5.88     856.1982     54.92987     102.8704        11     1.206     0.807 -32.55   0
        30     53.6027    981.6587 307.8835307  +6.2730269     2579.909     3947.826     4320.948      77.4959     155.6756     311.3821      1.717     4.59     854.1713     54.92987     308.1604        23     1.516     0.914 -36.98   0
        31    947.4701    979.3828 307.5125168  +6.3036404      5557.43     10582.38     11412.73      77.6204     155.7376     311.5371      2.018     4.53      854.312     54.92987      647.744        43     1.701     1.339 -56.52   0
        32    203.8977    975.6193 307.8213409  +6.2805279     632.1103     958.7178     1031.117     77.99268     155.7376     311.3821      1.685     5.60     856.2589     54.92987     80.78955         9     1.088     0.814 -36.17   0
        33    630.0541    973.6173 307.6444891  +6.2955134     655.2132     1001.182      1322.49     77.62039     155.8615     311.3821      1.823     5.95     859.0389     54.92987     98.90356        10     1.736     0.574 -53.30   0
        34    921.1461    970.7679 307.5237319  +6.3063270     1930.683     3421.488      3414.06     77.99268     155.9234     311.5681      1.853     5.59     854.8958     54.92987     228.0205        26     1.640     1.058 -43.00   0
        35    641.9091    967.0880 307.6397848  +6.2986021     4361.126     7009.759     7378.262     78.11638     156.2945      311.754      1.735     4.17     858.7213     54.92987      494.744        28     1.525     0.976 -44.31   0
        36    254.1402    967.4053 307.8007580  +6.2855914     4365.031     6582.702     6541.702     77.62039     155.7376     311.4131      1.599     4.14     857.1671     54.92987     552.9467        26     1.486     0.900 -44.90   0
        37    780.9099    967.4029 307.5820659  +6.3030770     1128.557     1861.511      2186.01      77.4959     155.5515     311.3821      1.778     4.91     857.1109     54.92987     126.6843        13     1.121     0.843 -35.91   0
        38    464.0685    965.3831 307.7136740  +6.2934052     1114.141     1676.479     1611.409     77.62039     155.7995     311.5371      1.535     5.30     858.8792     54.92987     152.0106        10     1.157     0.687 -65.39   0
        39     22.8680    965.1340 307.8968433  +6.2788241     2103.355     3248.051     3318.623     78.11638     155.9234      311.661      1.621     4.51     853.2834     54.92987     241.1008        21     1.529     0.855 -50.56   0
        40    965.1677    961.0336 307.5057785  +6.3118010     560.1274     821.9487       812.25     77.62039     155.6135     311.3821      1.441     4.87     853.3791     54.92987     90.56158         7     1.041     0.645 -32.00   0
        41    566.5378    959.6157 307.6713253  +6.2991876     1604.112     2479.161     2181.227      77.6204     155.7995     311.4441      1.612     5.23      859.236     54.92987       194.51        16     1.371     0.805 -41.60   0
        42    290.2127    960.6734 307.7860078  +6.2895710     741.9864     1207.257     1450.222      77.6204     155.5515     311.4131      1.709     5.14     857.8316     54.92987     113.4705         9     1.200     0.621 -42.90   0
        43    997.4879    958.6119 307.4924402  +6.3138688     698.3205     1565.885     2114.634     77.74469     155.5515     311.5061      2.912     5.27     852.4357     54.92987      104.449         8     1.200     0.653 -45.50   0
        44    605.8713    955.7311 307.6551249  +6.3020960     1255.673     1803.438     1672.852     78.11638     155.9854     311.5991      1.522     4.92       859.17     54.92987     174.5484        13     1.393     0.677 -42.69   0
        45     55.8014    956.5641 307.8834589  +6.2834604     668.7889     917.1862     1018.474     77.24632     155.6756     311.4441      1.485     3.88      853.694     54.92987     121.1973         7     0.892     0.749 -67.96   0
        46     50.5852    955.7781 307.8856507  +6.2836110     416.9615     711.6898     1002.458     77.86878     155.6756     311.5681      1.623     4.55     853.5865     54.92987     68.71277         5     0.826     0.712 -39.52   0
        47    285.7722    953.8037 307.7880809  +6.2922594     1414.937     2171.764     2582.945     77.62039     155.6756     311.4751      1.699     5.01     857.5714     54.92987     183.6595        16     1.298     0.855 -44.36   0
        48    752.6563    949.3830 307.5943955  +6.3095813     745.0352     984.6253     1158.589      77.6204     155.7995     311.3821      1.591     5.97     857.2398     54.92987     100.5823        11     1.276     0.825  -8.20   0
        49    890.1401    946.3026 307.5374178  +6.3154028     6226.434     10980.06      11222.3     77.86878     155.8615      311.754      1.874     4.31     854.9787     54.92987     705.3689        40     1.574     1.286 -42.91   0
        50    426.0056    943.6874 307.7302003  +6.3010981     2149.687     3108.571     3093.238     77.62039     155.5515     311.3821      1.582     3.97     858.5837     54.92987     274.9233        20     1.335     0.931 -49.28   0
        51    327.6367    942.0226 307.7710946  +6.2985157     9699.905     14672.42     15649.64     77.74469     155.6135     311.4131      1.638     4.08     857.5833     54.92987     1188.217        38     1.558     1.001 -43.96   0
        52    247.7578    940.9648 307.8042919  +6.2962950     7155.548     10768.86     11138.56     77.86878     155.8615     311.4751      1.607     4.00     856.5029     54.92987      886.608        31     1.539     0.937 -41.35   0
        53    760.5444    935.0971 307.5915959  +6.3157406     601.7324     1135.844      1468.87     77.99268     155.8615     311.8159      2.066     5.37     856.9658     54.92987      82.0191         9     0.977     0.835 -81.13   0
        54    575.9168    935.0251 307.6682512  +6.3096512     1126.945     1734.575     1445.259     77.99268     155.6135     311.6301      1.691     4.47     858.8239     54.92987     173.5089        15     1.493     0.710 -41.32   0
        55    138.6992    931.3767 307.8498884  +6.2966219     739.4877     1027.094     1379.291     78.23988     155.6135     311.4441      1.302     4.83     854.2946     54.92987     141.2167         8     0.951     0.696 -89.15   0
        56    905.9854    930.8046 307.5313541  +6.3223254     818.9437     1451.308     1770.295     77.74469     155.5515     311.4751      2.043     4.97     854.2137     54.92987     121.3893         9     1.253     0.558 -46.02   0
        57    862.1207    930.4826 307.5495768  +6.3210076     645.2249     1282.526     1454.234     78.23988     156.1091      311.754      1.899     4.52     855.4882     54.92987     94.18939         6     1.023     0.568  62.85   0
        58    972.7851    926.9276 307.5037484  +6.3261341     590.9955     1467.168     2024.721     77.62039     155.7376     311.5371      2.714     7.07     852.7885     54.92987     106.9466         8     1.739     0.805 -59.80   0
        59    742.0029    924.4858 307.5996471  +6.3195076     1722.685     2918.389     3480.643      77.4959     155.4894     311.3511      1.888     5.17     857.0829     54.92987     191.5563        20     1.488     0.959 -43.30   0
        60    565.9001    925.2041 307.6727373  +6.3133736     723.4007      1043.61     745.5731     77.86878     155.6135     311.2891      1.435     4.48     858.6735     54.92987     122.1747         8     1.343     0.424 -31.18   0
        61    606.0775    921.1552 307.6561916  +6.3163779     690.4244     865.0341     395.4461     77.99268     155.9234     311.6301      1.462     5.07     858.5992     54.92987     115.7103         8     1.141     0.637 -51.15   0
        62    973.8621    919.9730 307.5035322  +6.3290409     1053.669      1718.85     2292.057     77.74469     155.9234     311.5681      1.938     6.04     852.6143     54.92987     124.3807        13     1.040     0.987  34.95   0
        63    527.5016    920.2425 307.6888448  +6.3141478     1035.062      1429.25     1071.496     78.11638     155.7376     311.8469      1.432     3.24     858.6362     54.92987     164.6812        10     1.041     0.665 -37.13   0
        64    660.8040    917.8005 307.6335821  +6.3195774     2467.891     3800.971     4064.555      77.4959     155.4273     311.3821      1.649     4.06     857.9152     54.92987     319.8977        23     1.417     0.956 -46.37   0
        65    951.6277    915.3856 307.5129161  +6.3302002     774.3788     1291.124       1825.7     77.74469     155.6756     311.5371      1.827     4.62      852.962     54.92987     126.9578         9     1.280     0.762  89.34   0
        66     57.3737    914.1406 307.8842278  +6.3010271     2924.124      4557.38     4725.193     77.74469     155.8615     311.4751      1.676     4.48     852.6243     54.92987     384.9696        27     1.648     0.981 -53.45   0
        67    200.9411    913.1793 307.8246576  +6.3062078     2311.294      3595.26     3722.734     77.74469     155.7376     311.4751      1.595     4.02     855.0599     54.92987     297.4285        21     1.368     0.929 -43.69   0
        68     74.9339    913.5489 307.8769576  +6.3018569     2057.071     3000.352     3121.968     77.99268     155.7995     311.6301      1.634     3.95     852.9052     54.92987     259.4868        17     1.289     0.828 -44.53   0
        69    821.6808    913.2343 307.5669404  +6.3267908     744.7432     1203.323     1433.541     77.99268     155.8615      311.661      1.731     5.24     855.7452     54.92987     114.9697        10     1.214     0.701 -63.68   0
        70    938.8505    912.7296 307.5183093  +6.3308744      891.361     1298.007     944.9343     77.99268     155.7995      311.661      1.533     5.69     853.2233     54.92987     127.0334        11     1.154     0.789 -31.57   0
        71    655.3939    907.0009 307.6361880  +6.3238568     6847.379     10669.16      11254.5      77.4959     155.5515     311.4441      1.679     3.81     857.8106     54.92987     833.4554        35     1.508     1.075 -47.02   0
        72    339.5691    909.2366 307.7672364  +6.3124484     1060.532     1457.312     1918.323     77.74469     155.6135     311.4131      1.502     5.83     857.0494     54.92987     137.3812        11     1.227     0.781 -28.45   0
        73    234.9590    909.4379 307.8106600  +6.3088849     766.0311     1225.423     1433.221     77.86878     155.8615     311.5061      1.812     5.38      855.633     54.92987      95.5296         8     1.023     0.797 -56.92   0
        74    793.1877    907.7120 307.5789541  +6.3281277     680.5116     993.9166      881.538     77.74469     155.6135     311.5061      1.686     5.04     856.1015     54.92987     89.96808         8     0.965     0.745 -87.25   0
        75    893.1783    903.1712 307.5375897  +6.3333108     2457.669     4308.549     4385.744      77.4959     155.6135     311.5061      1.874     4.25     854.2377     54.92987     300.4224        27     1.503     1.134 -39.12   0
        76     15.7667    905.4918 307.9017907  +6.3032101     1070.191     1402.473     940.5626     78.23988     155.7376      311.661      1.515     3.88     851.7205     54.92987     149.9024        11     1.067     0.707 -47.78   0
        77     28.5663    903.8856 307.8965308  +6.3043001     1096.777     1611.175     1472.871     78.11638     155.7376     311.6301      1.540     4.23     851.8785     54.92987     150.1709        11     1.203     0.636 -51.60   0
        78    445.2960    903.9805 307.7235171  +6.3181322     586.4385     668.5002     271.6909     77.99268     155.6756     311.4441      1.406     4.88     858.0624     54.92987     95.39484         6     1.034     0.775   4.10   0
        79    338.3398    900.3011 307.7680453  +6.3160965     16964.76     25157.13     26273.71     77.86878     155.7995      311.754      1.597     3.93     856.8874     54.92987     2261.308        42     1.535     1.015 -41.53   0
        80     72.7682    901.4319 307.8782626  +6.3067871     1329.278     1945.972     1669.273      77.6204     155.6135     311.3201      1.583     4.01     852.4043     54.92987     193.0323        15     1.215     0.851 -49.45   0
        81    209.0396    899.7875 307.8217436  +6.3120062     1343.703     2000.396     2165.285     77.62039     155.6756     311.4131      1.429     4.23     854.9541     54.92987     223.4095        14     1.263     0.798 -22.51   0
        82    389.4215    898.9479 307.7468828  +6.3183534     698.4742      901.622     845.2421     77.62039     155.8615     311.4441      1.259     3.81     857.2495     54.92987     147.6074         7     1.051     0.480 -40.04   0
        83    668.1984    891.6243 307.6313839  +6.3306297     679.7375     1105.993     1460.248     77.74469     155.5515     311.4131      1.657     5.25      857.408     54.92987     109.9749         8     0.991     0.784 -26.99   0
        84    416.3169    890.8336 307.7359875  +6.3225972     1091.985     1628.797      1781.33     78.11638     155.8615     311.5991      1.738     4.09      857.254     54.92987     159.7144        12     1.176     0.700 -66.06   0
        85    102.0100    890.8143 307.8664784  +6.3121454     1666.272     2488.632      2875.32     77.86878     155.6135     311.5681      1.508     3.86     852.4879     54.92987      249.342        14     1.145     0.758 -38.38   0
        86    496.8661    888.0928 307.7026365  +6.3264041     677.7441     1015.752     1025.786     77.99268     156.0472     311.6301      1.504     5.44     858.4227     54.92987     119.2679         9     1.425     0.587 -70.02   0
        87    669.6123    886.9410 307.6309529  +6.3326101     938.9865     1369.766     1376.712      77.4959     155.7995     311.3511      1.533     5.41     857.3022     54.92987      121.174        11     1.187     0.695 -37.60   0
        88     84.8936    884.6211 307.8737919  +6.3141316     2461.889     3982.583     4021.044     77.99268     155.6756     311.4441      1.788     6.26     851.9722     54.92987     398.9418        24     1.705     0.885 -41.04   0
        89    883.6573    884.6771 307.5421574  +6.3406315         1932     2918.045     2717.192     78.11638     155.7995     311.5681      1.703     3.95     854.1556     54.92987     235.6758        19     1.219     1.011 -19.84   0
        90    854.4492    884.1595 307.5543019  +6.3398790     1907.937     2983.388     3046.127     78.23988     155.8615     311.5681      1.743     4.19     854.6354     54.92987     222.5864        23     1.394     1.025 -35.61   0
        91    817.5696    883.8547 307.5696244  +6.3387846      3065.35     4783.605     4493.188     77.99268     155.9234     311.5681      1.692     4.10     855.2635     54.92987     388.4121        25     1.457     0.984 -41.44   0
        92    553.4261    875.3828 307.6795775  +6.3335289     349095.3     514968.5     536948.2     77.74469     155.6135     311.5371      1.641     3.82     858.0785     54.92987     48561.15       167     1.684     1.207 -45.69   0
        93    448.0389    882.1490 307.7231071  +6.3272366     548.4015     676.3515      1109.16     77.86878     155.8615     311.6301      1.449     3.58     857.6898     54.92987     96.09161         5     0.799     0.507 -53.76   0
        94    333.2760    882.1816 307.7707532  +6.3234088     690.9006     957.7417     1285.407     77.62039     155.6135     311.5991      1.594     3.45     856.5839     54.92987      102.507         5     0.981     0.351 -46.94   0
        95    397.6454    878.0477 307.7441665  +6.3272555      8036.32     11751.06     12020.92     78.11638     155.7376     311.6301      1.556     3.80     856.7543     54.92987     1108.345        28     1.440     0.907 -43.71   0
        96    641.6088    878.4122 307.6428638  +6.3352030      1327.13     1966.092     2050.482     77.74469     155.6756     311.5681      1.671     3.86      857.503     54.92987     163.8702        13     1.049     0.879 -62.42   0
        97    340.8577    876.4443 307.7677972  +6.3260296     13099.81     19187.39     19591.03     77.99268     155.8615      311.692      1.569     3.92      856.478     54.92987     1826.761        36     1.538     0.944 -41.06   0
        98    659.2666    872.7006 307.6357227  +6.3381465     3675.696     5429.269     5638.925     78.11638     155.9854     311.5991      1.612     3.77     857.2114     54.92987     478.8759        23     1.379     0.955 -50.59   0
        99    891.7368    871.3577 307.5392455  +6.3463978      4937.75     8128.778     9399.307     78.11638     155.7995      311.692      1.825     3.90     853.8423     54.92987     545.4481        36     1.594     1.231 -27.31   0
       100    731.2326    869.2132 307.6059587  +6.3419710     711.7166     920.6436     1000.799     77.62039     155.6135     311.5681      1.640     4.84     856.4822     54.92987     115.3842         8     1.264     0.525 -32.83   0
       101    822.5640    865.5773 307.5681586  +6.3464960     1710.281     2710.892     2629.554     77.74469     155.6135     311.4131      1.725     5.16     854.8328     54.92987     196.3198        20     1.464     0.978 -46.17   0
       102    634.0551    866.6443 307.6463922  +6.3398111      3643.09     5196.442     5745.379     78.11638     155.8615      311.661      1.562     3.79     857.4254     54.92987     472.8876        21     1.359     0.884 -44.95   0
       103   1023.5682    865.8926 307.4846894  +6.3530111     1732.196     2160.438     1990.628     69.34229     125.2979     236.3593      1.232     3.44     849.1417     54.92987      400.369        12     1.149     0.611 -82.33  24
       104    176.4562    866.9298 307.8363708  +6.3244864      724.576     940.1794     751.4866     78.23988     155.7995     311.5991      1.230     4.88     853.9943     54.92987     103.6584         8     1.281     0.527 -13.13   0
       105    949.9308    864.4130 307.5153136  +6.3511890     861.7881     1493.795      1929.87     77.62039     155.7376     311.5061      1.924     6.24     852.4421     54.92987     107.9297        13     1.285     0.852 -54.57   0
       106    624.9758    865.0000 307.6502167  +6.3401889     1143.302     2009.153     2194.183      77.6204     155.4894     311.4131      1.816     5.20     857.5053     54.92987     150.9658        13     1.200     0.855 -63.86   3
       107    627.2743    861.0504 307.6493940  +6.3418958      2350.95     3343.529     4012.675     78.11638     155.9234      311.661      1.533     3.62     857.3781     54.92987      348.108        17     1.272     0.812 -36.16   3
       108    910.6090    859.1655 307.5318148  +6.3520557     2993.885     5038.415     4877.853     77.62039     155.6756     311.4441      1.802     4.08     853.4996     54.92987     333.5128        25     1.395     1.053 -46.46   0
       109    320.9635    860.4252 307.7765923  +6.3319816     1118.418     1557.266     1476.806     77.74469     155.6756     311.3821      1.595     3.63     856.1594     54.92987     189.7607        14     1.190     0.817 -36.00   0
       110    368.7296    855.4058 307.7569283  +6.3356422     2796.038     4125.651     4445.765      77.6204     155.4894     311.5061      1.533     3.89     855.8802     54.92987     437.1233        21     1.390     0.829 -49.75   0
       111    504.9199    845.0101 307.7007302  +6.3444586     3214.166     4841.187     4572.551     77.74469     155.5515     311.4751      1.527     3.74     856.9577     54.92987     446.4013        21     1.391     0.835 -41.20   0
       112    849.8821    843.8273 307.5575392  +6.3563798     837.1784      1313.84     1766.788     77.99268     155.6756     311.5681      1.627     3.74      854.101     54.92987     150.8084         8     0.861     0.657 -53.13   0
       113    551.7973    841.1784 307.6813945  +6.3475965     6302.728      9189.48     9940.052     77.74469     155.5515     311.3821      1.554     3.78     856.7841     54.92987     914.7422        32     1.504     0.937 -40.15   0
       114    570.1007    842.7669 307.6737420  +6.3475480     674.8115     777.3972     519.1857     78.11638     155.7376     311.7849      1.485     4.65      856.949     54.92987     109.0587         7     1.281     0.480 -49.08   0
       115    558.5759    840.6809 307.6785966  +6.3480268      1372.06     1762.708     2482.664     77.86878     155.6135     311.5371      1.672     5.06     856.8153     54.92987     190.4475        15     1.357     0.817 -44.86   0
       116    263.5396    841.2560 307.8010747  +6.3379852      804.919     1174.898     809.2296     78.23988     155.8615      311.661      1.413     4.71     854.7823     54.92987     119.4268         8     1.258     0.500 -40.64   0
       117    469.4118    840.0809 307.7156376  +6.3453146      1540.06     2166.973     1669.672     77.74469     155.5515     311.4751      1.422     3.57     856.3747     54.92987     250.2029        12     1.159     0.684 -31.74   0
       118    887.3774    839.3563 307.5421192  +6.3594660     1379.925     2114.302     1736.161      77.6204     155.7376     311.4441      1.692     5.19     853.5141     54.92987     151.6521        16     1.282     0.920 -40.04   0
       119    111.2716    839.2656 307.8643601  +6.3337357     1466.714     2063.247     2081.272     78.11638     155.9234      311.692      1.600     4.25     851.2488     54.92987     221.9225        16     1.335     0.804 -50.11   0
       120    687.8288    837.7432 307.6250280  +6.3535258     697.3262     936.6945     869.2134     77.74469     155.9234     311.5371      1.451     3.71     856.2579     54.92987     103.9125         7     0.857     0.600 -30.87   0
       121    522.5101    835.0858 307.6937578  +6.3491399     20834.42     30078.74     30961.78     77.86878     156.2945      311.754      1.558     3.83     856.3819     54.92987     2816.494        44     1.510     0.972 -43.57   0
       122    363.8000    836.9066 307.7595931  +6.3431158     727.2106     853.7212     947.7289     77.62039     155.4894     311.2891      1.364     3.26     855.1165     54.92987     125.0501         5     0.783     0.502 -40.37   0
       123    168.9749    835.2369 307.8405378  +6.3373216     657.0834     1081.259      957.366     77.74469     155.6756     311.3821      1.665     4.27     852.5831     54.92987     109.1738         7     1.207     0.431 -56.05   0
       124    936.1670    833.1633 307.5220667  +6.3636361     3436.419     5749.018     5992.611     77.74469     155.6135     311.3821      1.735     4.07     852.6549     54.92987     416.4135        26     1.455     1.041 -48.40   0
       125     56.5430    831.0396 307.8873577  +6.3353072     515.0613     956.1932     729.7257     78.11638     155.9234      311.661      2.170     4.86     850.1962     54.92987      133.145         7     1.217     0.592 -54.57   0
       126    407.8118    831.1686 307.7415113  +6.3469476     558.4665     898.6476     925.3975     77.62039     155.6135     311.5371      1.581     3.94     854.9355     54.92987     80.80737         6     0.758     0.588 -41.54   0
       127    487.1964    827.5849 307.7086705  +6.3510643     394.6982     439.1673     498.3127     77.74469     155.4894     311.4751      1.054     3.45     855.8112     54.92987     69.21307         5     0.782     0.439 -20.25   0
       128     32.7364    825.8367 307.8974160  +6.3366612     1444.258      2103.89     2054.447     77.99268     155.8615     311.6301      1.585     4.10     849.7707     54.92987     231.3216        14     1.368     0.634 -30.48   0
       129    577.9263    824.6063 307.6710983  +6.3553054     571.2355     951.2717     1213.536     77.74469     155.4273     311.5371      1.775     3.34     856.2695     54.92987     80.88287         6     0.806     0.724   7.72   0
       130    315.1246    823.7534 307.7802424  +6.3469274     3549.544     5381.308     5254.668     77.99268     155.9234     311.6301      1.549     3.92     854.8058     54.92987     529.4457        24     1.446     0.875 -47.26   0
       131    780.6672    819.5065 307.5870873  +6.3641302     56422.25     85004.59     88526.03     77.99268     156.0472      311.661      1.669     3.87     855.0179     54.92987     7350.464        68     1.601     1.129 -45.57   0
       132     14.8832    822.1963 307.9049502  +6.3375686     2153.706     3340.615     3685.229     77.62039     155.4894     311.3511      1.570     4.10     849.4317     54.92987     283.4537        20     1.373     0.894 -26.98   0
       133    719.0475    821.0253 307.6126223  +6.3614624     669.3641     853.8873     1541.665     77.74469     155.9234     311.5061      1.329     3.64     855.7117     54.92987     107.7844         5     0.999     0.382 -58.93   0
       134    237.8204    817.6193 307.8125437  +6.3468876     5505.995     8583.111     10984.91     77.86878     155.7995     311.5681      1.775     3.76      853.096     54.92987     821.1296        29     1.474     0.957 -49.20   0
       135    424.2120    818.1052 307.7351382  +6.3528859     887.5951     1367.269     1514.222     77.86878     155.6135     311.4131      1.646     3.65      854.451     54.92987     134.4227        10     1.069     0.648 -46.75   0
       136    708.9113    814.1375 307.6170604  +6.3639703     21900.39     33245.73     35870.61     78.11638     155.9854      311.692      1.618     3.74     855.6492     54.92987     2973.944        56     1.655     1.086 -44.43   3
       137    702.6085    810.6310 307.6197942  +6.3652091     91549.63     135251.6     140970.9      77.6204     155.6756     311.4441      1.602     3.77     855.6325     54.92987     12862.17        76     1.587     1.094 -44.71   3
       138    905.9453    814.7038 307.5352288  +6.3702582     8183.455      13176.8     14322.45     77.99268     155.8615     311.8469      1.727     3.91     852.9773     54.92987     1016.338        38     1.531     1.125 -41.47   0
       139    206.8180    814.2482 307.8255284  +6.3472472     536.5678      886.113     1167.004     77.62039     155.9234     311.4441      1.922     4.51     852.2463     54.92987     81.26917         7     1.028     0.561 -70.86   0
       140    347.5074    811.6756 307.7672009  +6.3529908     22039.24     31909.14     33459.79     77.99268     155.9854     311.6301      1.571     3.79     854.1055     54.92987     3355.698        45     1.545     0.975 -44.63   0
       141    409.3149    809.4940 307.7416111  +6.3559461     23835.59     34265.89     34685.72     77.99268     156.2328      311.723      1.559     3.72     853.9691     54.92987     3547.735        41     1.492     0.953 -45.04   0
       142    636.3774    810.7889 307.6472892  +6.3629487     929.1636     1385.782     1342.856     77.74469     155.6756     311.5061      1.679     4.69      856.047     54.92987     152.2051        11     1.378     0.539 -49.93   0
       143    396.7311    811.7913 307.7467592  +6.3545794     1604.656     2258.979     2022.956     77.62039     155.6135     311.5371      1.539     4.51     854.0942     54.92987     228.3628        13     1.164     0.738 -42.64   0
       144    946.6165    808.1674 307.5185582  +6.3743015     1835.629     3117.762     3335.236     77.74469     155.6135     311.5061      1.844     4.55     851.9387     54.92987     240.5983        23     1.483     1.035 -53.94   0
       145    902.8497    806.1382 307.5367988  +6.3736924     6420.141     10236.82     10403.17     78.11638     155.7995      311.692      1.689     3.93     852.9036     54.92987     762.3641        31     1.475     1.037 -46.31   0
       146    875.9488    806.3889 307.5479605  +6.3726992     632.7976     844.0007     632.0208      77.4959     155.7376     311.3821      1.444     5.33     853.2949     54.92987     129.6932         8     1.334     0.815 -36.85   0
       147    643.3646    805.3126 307.6445705  +6.3654413     6637.549     9703.508      9644.27     78.11638     155.7376     311.6301      1.578     3.91     855.8646     54.92987     879.2738        30     1.465     0.943 -42.66   0
       148    383.1284    805.1198 307.7526300  +6.3568817      566.285     740.5249     915.3394     78.36319     156.1091      311.661      1.628     4.35     853.7877     54.92987     98.20581         5     1.035     0.520 -37.77   0
       149    432.0911    803.3878 307.7323582  +6.3592239     1797.871     2568.138      2619.96     77.86878     155.6135     311.4441      1.505     3.87     853.7885     54.92987     265.9123        14     1.303     0.662 -40.15   0
       150    157.2643    802.7266 307.8464884  +6.3503534     820.7083     838.0531     1042.946     78.23988     155.8615     311.6301      1.355     4.75     850.9843     54.92987     127.6052         9     1.172     0.545 -43.92   0
       151    481.1547    802.0080 307.7120326  +6.3614233     368.7341     433.2029     117.7379     77.62039     155.7376     311.3201      1.162     3.92     853.9893     54.92987      76.9624         5     0.841     0.522 -33.17   0
       152    596.4484    797.2146 307.6643209  +6.3672288     1035.484     1412.098     1354.875      77.4959     155.7995     311.3201      1.579     3.15     855.4806     54.92987     167.9329        10     0.955     0.694 -45.12   0
       153    122.6580    796.4208 307.8610678  +6.3518036     1225.032     1880.172     1712.832     77.74469     155.7376     311.4441      1.676     5.17     850.2836     54.92987      161.344        19     1.477     0.899 -44.72   0
       154    871.6486    796.2538 307.5500830  +6.3767413      735.562      1089.57     716.9496     78.11638     155.8615      311.661      1.697     5.21     853.2186     54.92987     97.62292         8     1.167     0.658 -41.21   0
       155    147.5327    796.3655 307.8507419  +6.3526553     1092.423     1574.432     1862.758     77.99268     155.9234      311.723      1.551     3.37     850.5771     54.92987     216.1703        11     1.157     0.627 -50.28   0
       156    678.6740    795.1860 307.6302467  +6.3707926      2566.21     3669.004     3666.403     77.62039     155.6135     311.4441      1.517     4.04      855.347     54.92987     376.3564        18     1.359     0.759 -39.09   0
       157    412.2378    792.1443 307.7409770  +6.3632061     57248.25     82792.53     85912.22     78.11638     155.9234      311.661      1.544     3.84     853.2025     54.92987     7896.913        69     1.582     1.029 -41.45   0
       158    529.9673    791.1458 307.6921274  +6.3675284     7583.908     10631.44     10672.72     77.99268     155.7995     311.5681      1.500     3.87     854.0695     54.92987     1116.165        29     1.458     0.877 -46.25   0
       159    237.3150    796.1364 307.8134723  +6.3557400     759198.2      1627628      1781072     78.23988     155.9854     311.6301      2.200     5.65     852.1965     54.92987      63773.7       590     2.491     1.992 -54.30   4
       160    446.7849    789.6841 307.7267148  +6.3653697     4880.681     6768.693     7529.709     77.74469     155.6135     311.5371      1.479     3.47     853.2781     54.92987     716.2899        23     1.372     0.806 -42.46   0
       161    775.2148    787.6310 307.5904120  +6.3771099     11849.14     17804.36     18436.51     77.74469     155.6135     311.5681      1.631     3.76     854.4738     54.92987     1544.088        38     1.494     1.043 -44.09   0
       162    670.4519    786.3752 307.6339542  +6.3741578      549.608     771.0508      158.966     77.74469     155.8615     311.5371      1.268     4.07     855.0079     54.92987      86.6972         5     0.964     0.491  84.24   0
       163    443.5342    783.0635 307.7282856  +6.3679951     2586.399     3634.194     4130.522     78.11638     155.8615     311.6301      1.589     3.90     852.9537     54.92987     380.1874        20     1.418     0.800 -46.58   0
       164      4.6334    784.1743 307.9104807  +6.3529238     1213.162     1890.249      1717.71     77.62039     155.6756     280.9661      1.572     4.89     848.5483     54.92987     193.4202        15     1.387     0.729 -23.96  16
       165    797.1910    781.5983 307.5814875  +6.3803282     1263.022     1761.018     1688.523      77.4959     155.5515     311.4131      1.503     3.96     854.1196     54.92987     211.0179        13     1.231     0.791 -41.24   0
       166    140.9905    780.2190 307.8539989  +6.3591034     3153.071     4933.834     5482.331     77.74469     155.5515     311.4751      1.634     3.84     849.8495     54.92987     458.4071        23     1.434     0.887 -48.79   0
       167    132.9861    779.9252 307.8573321  +6.3589580     12110.82     17927.13     19315.46     77.62039     155.6135     311.4441      1.547     3.62     849.7764     54.92987     1689.465        40     1.539     0.994 -39.73   2
       168    125.3457    777.3229 307.8605916  +6.3597777     3068.964     4672.995     5366.471     78.23988     155.8615     311.6301      1.712     4.38       849.59     54.92987     407.0335        22     1.369     1.144 -23.67   3
       169    920.7192    776.0659 307.5303782  +6.3866991     6297.085     10108.51      10981.1     78.36319     156.0472     311.5991      1.750     3.88     851.8581     54.92987     778.0297        35     1.522     1.136 -45.98   0
       170    969.9971    775.8687 307.5099226  +6.3884094     1429.589     2163.529     2604.607      77.4959     155.4894     311.4131      1.785     4.35     850.7759     54.92987     184.6908        16     1.300     0.832 -30.84   0
       171    676.2943    773.7387 307.6319493  +6.3795686     1741.958     2494.759     2439.742     77.99268     155.9234      311.661      1.498     3.95     854.4869     54.92987     264.2783        16     1.319     0.722 -44.22   0
       172    563.1486    773.2477 307.6789468  +6.3760190     2459.894     3569.482     3663.729     78.23988     155.7376     311.6301      1.495     4.36     853.7552     54.92987     335.4431        18     1.391     0.802 -46.80   0
       173    411.1204    772.8556 307.7420852  +6.3711325     1340.171     2103.531     2233.599     78.23988     155.8615      311.661      1.636     4.10     852.3265     54.92987     236.3754        13     1.269     0.667 -46.30   0
       174    694.6603    771.3341 307.6244032  +6.3811700     572.5245     660.9438     681.5251     78.23988     155.7995     311.6301      1.290     4.41     854.3358     54.92987     95.58942         6     1.078     0.514 -57.77   0
       175    125.3091    770.9130 307.8608215  +6.3624228     1923.456     2919.473     3451.941     77.86878     156.2945      311.754      1.586     3.70     849.3636     54.92987     291.6085        17     1.319     0.743 -51.17   0
       176    944.5768    767.5961 307.5207530  +6.3909847     2933.341     4793.691     4784.437     77.74469     155.5515     311.4751      1.758     4.03     851.1442     54.92987     367.9786        30     1.605     1.066 -48.22   0
       177    914.9718    768.1375 307.5330282  +6.3897825     2898.465     4793.459     5170.692     77.74469     155.8615     311.5991      1.754     4.22     851.7675     54.92987     357.1156        24     1.476     0.986 -49.34   0
       178    975.2723    767.2661 307.5080179  +6.3921354     1801.751     3124.184     3023.933     78.11638     155.9234      311.661      1.783     4.58     850.5667     54.92987     206.2888        21     1.400     1.027 -47.00   0
       179    667.3715    767.2725 307.6358697  +6.3819425     1556.743     2172.804     1728.757     77.99268     155.8615     311.5991      1.487     3.79     854.2018     54.92987     221.2838        12     1.152     0.672 -41.17   0
       180    427.7476    768.1284 307.7353392  +6.3736367     562.4363     855.6785     424.4878     77.99268     155.8615      311.661      1.699     3.93     852.1793     54.92987     80.49683         6     1.216     0.364 -27.87   0
       181    814.4777    765.5767 307.5748425  +6.3875152     993.3666     1415.868      1467.06     77.74469     155.6756     311.5681      1.525     4.52     853.5144     54.92987     152.8467        12     1.308     0.668 -34.68   0
       182    239.9360    762.7380 307.8135015  +6.3696158      2271.76     4020.285     6274.129     78.11638     155.8615      311.661      3.043     4.85     850.6894     54.92987     344.2743        25     1.633     0.987 -68.83   0
       183    889.7007    762.9521 307.5436942  +6.3910876     607.7171      1083.66     1037.406     78.11638     155.7376     311.8159      2.174     4.92     852.2359     54.92987     123.8138         7     1.467     0.467  -6.28   0
       184    260.0704    758.1670 307.8052944  +6.3721732     728.5821     1165.797     1226.129     77.99268     155.8615      311.661      1.610     3.80     850.9793     54.92987     130.5024         8     0.987     0.571 -61.96   0
       185    932.8286    757.1760 307.5259776  +6.3948985     956.8909     1487.695     1019.633     77.62039     155.7376     311.4751      1.574     4.91     851.0543     54.92987     131.2291        11     1.211     0.726 -45.99   0
       186    906.5720    756.6070 307.5368994  +6.3942653      1135.87     1796.647     2523.728      77.6204     155.6756     311.4441      1.904     5.07     851.6746     54.92987     159.5018        14     1.367     0.802 -56.09   0
       187    155.5983    757.8839 307.8486817  +6.3688111     871.8425     1112.924     1164.587     77.37121     155.4894     311.3201      1.375     4.41     849.0458     54.92987     202.3804         8     1.074     0.546 -47.69   0
       188    959.4929    755.3168 307.5149671  +6.3965474     2324.576     3552.949     4221.497     77.86878     156.1709      311.754      1.754     3.97     850.6499     54.92987     310.5355        21     1.346     0.985 -43.59   0
       189    679.0430    754.4009 307.6314521  +6.3876435     1026.128     1570.903     2180.276      77.4959     155.5515     311.2581      1.997     6.05     853.6569     54.92987     119.8268        15     1.442     0.810 -37.02   0
       190    236.8508    751.1406 307.8151706  +6.3743011     463.2583     1118.348     2260.244     78.11638     155.8615     311.6301      3.304     3.91     850.0295     54.92987     83.42133         5     1.359     0.322 -56.96   0
       191    469.9854    750.2448 307.7183982  +6.3824232     631.9769     1046.466     1564.639      77.4959     155.6756     311.4131      1.759     5.23     851.7244     54.92987     94.31201         9     1.372     0.563 -42.66   0
       192   1001.3651    748.3779 307.4978102  +6.4007959     1760.299     2767.132     3113.925      77.6204     155.6135     311.3821      1.674     4.29     850.0912     54.92987     246.8763        20     1.400     0.920 -37.40   0
       193    399.2426    750.0840 307.7477778  +6.3801391     747.7441     1075.101     869.1631     78.11638     155.7995     311.5371      1.519     3.56     851.2529     54.92987     114.5316         8     0.861     0.661 -49.94   0
       194    627.4852    748.4330 307.6530597  +6.3883982     765.7462     1128.447     1383.934     78.11638     155.6756     311.5991      1.636     4.00     853.3344     54.92987      118.376         8     1.011     0.580 -42.06   0
       195    802.4904    747.3201 307.5804275  +6.3946560      1134.64     1632.199      1657.75     77.86878     156.0472      311.692      1.652     5.24      853.178     54.92987     152.1149        11     1.263     0.613 -46.79   0
       196    888.6699    744.7499 307.5447273  +6.3985686     1398.582     2180.523     2484.001     77.99268     155.7995      311.661      1.640     5.26     851.8867     54.92987     167.0353        14     1.136     0.915 -49.22   0
       197    863.4836    739.8041 307.5553503  +6.3997775     849.5624     1385.663     1364.496      77.6204     155.4894     311.3511      1.665     4.91     852.5129     54.92987     125.4212         9     1.227     0.557 -29.28   0
       198    845.4136    736.0119 307.5629800  +6.4007453     1641.005     2445.105     2414.941     77.99268     155.5515     311.5681      1.662     4.55     852.5698     54.92987     202.4456        17     1.419     0.784 -45.13   0
       199     44.7254    735.2631 307.8954747  +6.3744539     2570.715     3562.319     3786.306     78.36319     155.8615     311.5991      1.490     3.89     848.0174     54.92987     387.0642        19     1.251     0.881 -44.09   0
       200    108.9335    735.7463 307.8687988  +6.3763954     662.9161     1211.428     1504.365     78.11638     155.7995     311.5681      1.600     3.50     848.0358     54.92987     123.6909         5     1.086     0.325 -24.93   2
       201    107.8178    733.0018 307.8693540  +6.3774913     774.1289     1354.283     1835.668     77.74469     155.4273     311.3511      1.932     6.33     848.0045     54.92987     114.9976        11     1.237     0.910 -17.24   2
       202    457.2614    733.9170 307.7242266  +6.3887416     594.4793     699.5446     702.9066     78.23988     155.8615     311.6301      1.213     3.28     850.9952     54.92987     120.1838         5     0.816     0.465 -38.59   0
       203    700.3481    726.7539 307.6235263  +6.3997640     445.0627     731.1189      431.285     78.23988     155.7995      311.692      1.647     2.69      852.742     54.92987     98.72418         5     0.817     0.617 -44.03   0
       204    657.3083    723.5414 307.6415054  +6.3996639     6909.324     9777.255     10188.73     77.99268     155.7995      311.723      1.562     3.77     852.4797     54.92987      1040.32        28     1.520     0.850 -45.09   0
       205    525.5286    723.4219 307.6962299  +6.3953415     650.0489     718.7135     401.6228     77.74469     155.7376     311.5991      1.440     4.56     851.3132     54.92987     101.4321         8     1.138     0.518 -52.51   0
       206    514.9689    723.4050 307.7006153  +6.3949980     880.0498     1045.184     1353.107      77.4959     155.7376     311.4131      1.389     5.36     851.2361     54.92987     123.1025        11     1.149     0.706 -49.14   0
       207    604.2025    722.6818 307.6635860  +6.3982577     1562.965     2147.218     2535.382      77.4959     155.4894     311.3511      1.425     3.43     852.3651     54.92987     257.0425        12     1.177     0.650 -39.72   0
       208    120.0322    719.7480 307.8647264  +6.3833702     3937.597      5623.22     5568.444     77.99268     155.8615     311.5371      1.517     3.83      847.844     54.92987     579.8417        24     1.427     0.840 -41.67   0
       209    994.3341    718.8414 307.5017106  +6.4127583     2376.623     3951.172     4130.394     78.11638     155.7995      311.723      1.779     4.36     850.0505     54.92987     275.3651        24     1.381     1.091 -39.44   0
       210    631.2263    719.3689 307.6524749  +6.4005217     2437.073     3414.837     4073.278      77.6204     155.6135     311.4751      1.497     3.83     852.3372     54.92987     341.6451        17     1.284     0.763 -45.27   0
       211    307.2634    719.0401 307.7870075  +6.3898972     684.6904     944.5989      1039.42     78.11638     155.7995      311.692      1.224     3.19     849.5596     54.92987     132.1078         7     0.903     0.581 -71.10   0
       212    243.1924    719.1494 307.8136078  +6.3877198     858.7153     1546.918     1701.949     77.62039     155.6756     311.2891      2.172     4.11      848.624     54.92987     188.7775        12     1.232     0.997 -57.88   0
       213    774.2186    715.6100 307.5932226  +6.4068119     21026.96     30819.08     31933.15     77.74469     155.5515     311.5061      1.598     3.76      852.408     54.92987     3020.251        42     1.533     0.973 -44.83   0
       214    904.2435    715.2557 307.5392407  +6.4112609     3736.041     5845.311     6801.775     78.11638     155.8615     311.6301      1.776     3.88     850.8602     54.92987     451.6567        27     1.517     0.932 -43.78   0
       215    473.1263    716.0708 307.7182348  +6.3966365     1634.721     2309.833       2867.5     78.36319     155.9854      311.661      1.521     4.01     850.7831     54.92987     241.5879        15     1.323     0.678 -43.69   0
       216    456.6188    716.6778 307.7250691  +6.3958376     631.0494     845.6216     695.0554      77.6204     155.5515     311.5991      1.156     3.95     850.6583     54.92987     117.5081         6     0.882     0.507 -42.65   0
       217    501.8484    715.5937 307.7063242  +6.3977873     1072.549      1498.31     1055.562     77.62039     155.6756     311.2581      1.481     4.42     850.9821     54.92987     141.7941        11     1.230     0.645 -49.58   0
       218    319.6385    715.7094 307.7819804  +6.3916840     710.1211     951.5919     830.9133     78.11638     155.7995      311.661      1.548     3.99     849.4811     54.92987     110.5647         6     0.925     0.661 -60.21   0
       219    275.4347    715.6276 307.8003378  +6.3902470     609.3842     745.3844     618.8239      77.6204     155.6135     311.4131      1.462     4.66     849.0223     54.92987     113.6924         8     1.223     0.589 -46.15   0
       220    544.8297    714.6602 307.6885076  +6.3995996     375.5183     497.3659     824.4717     77.86878     155.8615     311.5991      1.552     3.97     851.2122     54.92987     69.48248         6     1.098     0.410 -13.42   0
       221    654.7667    708.4609 307.6430633  +6.4058058     7651.666     10855.19     11218.63     77.86878     155.9234     311.5681      1.527     3.78       851.98     54.92987      1215.11        31     1.483     0.874 -47.23   0
       222    247.6433    709.4510 307.8120842  +6.3918720     6977.144     9623.533     9709.076     78.23988     155.8615      311.661      1.501     3.75     848.2126     54.92987     1145.563        27     1.423     0.854 -40.95   0
       223    637.2181    709.5225 307.6503150  +6.4047856     824.4792     1230.405     1891.753      77.6204     155.6756     311.5991      1.566     4.31     852.0811     54.92987     135.1013         7     1.126     0.470 -49.13   0
       224    350.1242    708.7208 307.7695553  +6.3955832     759.6202     917.7238     891.9765     78.36319     156.1091      311.723      1.424     5.11     849.3976     54.92987     152.9941         8     1.171     0.728 -17.96   0
       225    914.6367    701.0286 307.5353977  +6.4174785      1177.58     1902.285     1812.887     77.74469     155.6135     311.4441      1.625     4.77     850.3946     54.92987     162.3232        13     1.390     0.676 -37.43   0
       226    726.3573    696.9255 307.6137193  +6.4129409     3577.527     5813.933     5786.334     77.99268     155.9234      311.661      1.733     3.97     852.0944     54.92987     459.8577        29     1.486     1.070 -59.81   0
       227    682.1306    696.9660 307.6320834  +6.4114586     1053.661     1560.331     2121.032     77.99268     155.8615      311.692      1.620     4.35     851.6487     54.92987      154.033        12     1.163     0.706 -22.90   0
       228    992.7050    693.3196 307.5032347  +6.4232417     8373.684     13424.12     13896.76     77.86878     156.1091      311.723      1.721     4.06     849.9326     54.92987     1028.407        34     1.552     1.056 -42.98   0
       229    931.1487    693.7515 307.5287827  +6.4210289     2514.368     3801.316     3679.158     78.23988     155.7376     311.6301      1.598     4.06     850.0525     54.92987     297.8624        20     1.337     0.959 -59.27   0
       230     11.8819    693.5395 307.9105107  +6.3905836      2189.12     3378.943     3780.489     78.23988     155.8615      311.661      1.722     4.34     848.1128     54.92987     295.7228        20     1.350     1.034 -22.83   2
       231     70.0060    688.5682 307.8865431  +6.3945748     27041.05     39108.43     40330.09      77.4959     155.6756     311.4131      1.520     3.69      847.837     54.92987     3952.178        43     1.500     0.946 -42.03   0
       232    531.3312    689.3528 307.6949572  +6.4095999     2252.105     3280.914     3205.127     78.11638     155.7995     311.5991      1.572     3.58     850.4191     54.92987     359.9705        19     1.412     0.725 -48.99   0
       233    500.1479    686.5821 307.7079985  +6.4097086     1513.007     2097.397     2119.933     77.62039     155.9234     311.3821      1.404     3.88     850.3035     54.92987     222.3408        13     1.162     0.704 -51.24   0
       234    920.8665    685.4348 307.5333289  +6.4241226      1037.91     1581.948      1333.14     77.99268     155.9234      311.692      1.559     5.00     850.0741     54.92987     139.9462        14     1.286     0.813 -50.45   0
       235    541.4504    681.9865 307.6910009  +6.4129770     877.8483      2123.42       2491.3      77.4959     155.7995     311.3511      2.167     6.11     850.2404     54.92987     713.5316        13     2.200     0.478 -51.08   0
       236    716.1281    680.6116 307.6185103  +6.4193374     3500.712     5289.203      5127.27     77.62039     155.4894     311.4441      1.619     3.82     851.5448     54.92987     487.8536        23     1.460     0.850 -49.57   0
       237    738.0427    678.7477 307.6094721  +6.4208329     4340.091      6314.62     6083.458     78.11638     155.9234      311.661      1.526     3.66     851.7441     54.92987     611.4398        23     1.390     0.848 -39.81   0
       238    569.4736    676.7385 307.6795392  +6.4160738     3485.898     4939.724     5206.542     78.23988     155.8615      311.661      1.528     3.90     850.5775     54.92987     614.7526        20     1.413     0.729 -45.16   0
       239    405.7183    677.2725 307.7475212  +6.4104151     1376.817      1861.17     1878.619     78.36319     156.1709      311.661      1.372     4.13     849.2895     54.92987     213.8916        12     1.284     0.575 -40.79   0
       240    313.6659    675.8585 307.7857929  +6.4079378     1608.544     2281.817     2180.028     78.23988     155.7995     311.6301      1.458     3.57     847.2521     54.92987      272.829        14     1.286     0.645 -52.57   0
       241    230.1586    676.4749 307.8204479  +6.4049041     1865.339     2434.864     2682.818     77.99268     155.8615      311.661      1.406     3.53     846.4818     54.92987     308.0463        15     1.228     0.753 -39.14   0
       242   1011.0713    674.7610 307.4962240  +6.4315107      4792.12     7595.477     7738.587     77.99268     155.8615      311.692      1.683     4.10      849.845     54.92987     606.8499        27     1.473     1.009 -39.10   0
       243    976.3818    673.6918 307.5106652  +6.4308060     7863.639     12069.07     12400.85     77.99268     155.6135     311.5061      1.678     3.88      849.845     54.92987     958.0522        35     1.532     1.021 -42.74   0
       244    530.5848    674.3320 307.6957683  +6.4157766     702.7372     818.7731     1182.682      77.6204     155.7376     311.5371      1.228     3.08     850.0091     54.92987     137.5125         6     0.862     0.492 -87.82   0
       245    696.2197    672.2826 307.6270550  +6.4221164     980.8356     1211.381     753.3379     77.74469     155.5515     311.5681      1.237     4.57     851.0162     54.92987     163.0435         8     1.213     0.501 -31.72   0
       246     87.8837    670.4885 307.8797258  +6.4026351     1007.016     1213.975     1415.646     77.86878     156.0472      311.692      1.381     4.41     847.5922     54.92987     153.9469        12     1.265     0.641 -33.69   0
       247    421.7288    668.2638 307.7411738  +6.4146664     3108.474     4478.073     4841.207     78.11638     155.8615      311.661      1.536     3.94     849.2473     54.92987     505.7001        23     1.424     0.859 -44.66   0
       248    134.7846    667.4583 307.8603526  +6.4054496     25962.84     37491.77     38624.65      77.4959     155.7995     311.3821      1.550     3.72     846.8586     54.92987     4124.179        46     1.534     0.963 -42.24   0
       249    803.2069    667.7667 307.5827770  +6.4275245     1044.876     1932.528     2102.051      77.4959     155.7376     311.4441      1.909     5.73     850.6385     54.92987     158.9883        11     1.344     0.688 -43.02   0
       250    354.3152    662.1173 307.7693728  +6.4149630     761.1945     933.2113     502.6523     77.86878     156.0472      311.692      1.326     4.65        847.4     54.92987     120.8198         7     1.222     0.501 -43.09   0
       251    971.3365    656.6603 307.5133261  +6.4376710     6601.479     11203.64     12482.07     78.11638     155.7995      311.661      1.870     3.83      849.061     54.92987      774.011        40     1.511     1.328 -30.70   0
       252     15.7384    656.2278 307.9101608  +6.4061161     1307.653     1996.942     1771.687     77.74469     155.8615     311.5991      1.529     4.20     848.0865     54.92987     217.7545        11     1.328     0.546 -40.71   0
       253   1023.7529    652.6238 307.4916926  +6.4410694     8553.298     10369.66     10838.19     66.78894     122.5712     232.9855      0.991     2.50     848.1886     54.92987      2718.49        21     1.423     0.499 -89.15  24
       254    564.8120    652.0798 307.6822975  +6.4260997     52517.68     74008.36      76785.2     77.74469     155.5515     311.4751      1.479     3.74     849.7208     54.92987     8389.425        58     1.507     0.969 -43.88   0
       255    929.1972    653.2232 307.5309400  +6.4376972     689.0974     933.7057     847.2158     77.74469     155.5515     311.4441      1.618     5.75     849.4038     54.92987      105.097         8     1.267     0.734 -35.35   0
       256    524.1160    652.3231 307.6991889  +6.4246484     786.4702      966.153      1430.06     78.23988     156.1709      311.723      1.412     4.64     849.3098     54.92987     110.6767         8     1.099     0.557 -54.72   0
       257    208.5684    653.1810 307.8301927  +6.4138021     703.8274     771.5118     1114.518      77.6204     155.6756     311.5061      1.156     4.48     846.0164     54.92987     122.0711         8     0.928     0.636 -30.29   0
       258    789.4641    651.1395 307.5890374  +6.4339343     667.4582     845.9038     1382.293     78.11638     155.7995      311.661      1.473     3.89     850.4652     54.92987     141.8403         6     1.058     0.409 -73.01   0
       259    172.3655    648.8622 307.8453703  +6.4143792      3030.79     4303.679     3970.531     77.99268     155.9234     311.5991      1.464     3.67     846.1185     54.92987     484.2869        18     1.290     0.763 -47.16   0
       260    495.0717    648.7782 307.7113683  +6.4251476     763.5922     979.4973     878.4937     77.74469     155.6756     311.5991      1.450     4.25     848.9959     54.92987     123.9761         8     1.108     0.612 -45.13   0
       261    976.3774    647.4169 307.5115398  +6.4416539     603.7147     763.1119     965.3024     77.74469     155.6756     311.5371      1.571     3.92     848.4918     54.92987     79.86578         5     1.054     0.418  15.70   0
       262     65.0977    643.3854 307.8900958  +6.4130647     1355.271     2087.948     2033.319     77.99268     155.6135     311.4131      1.539     4.16     847.3387     54.92987     235.6044        15     1.333     0.791 -36.81   0
       263    462.0559    635.9356 307.7255073  +6.4293533     69691.23      97866.4     101091.9     78.23988     155.7995     311.6301      1.468     3.59      848.082     54.92987     10798.55        68     1.527     0.984 -42.23   0
       264      5.2376    637.8105 307.9151388  +6.4133692     1765.432     2801.457     2826.932      77.4959     155.6756     287.6563      1.697     5.14     848.2133     54.92987      314.626        17     1.571     0.696 -31.08  16
       265    647.8307    632.9729 307.6484593  +6.4367419      842.405     1033.971     410.2535     77.62039     155.6135     311.4441      1.344     3.96     849.4542     54.92987     160.8077         7     1.119     0.423 -31.90   0
       266    136.3484    631.2639 307.8609157  +6.4204445     1809.637      2338.97     1938.453     78.11638     155.7995     311.5991      1.506     4.37     846.1605     54.92987     254.5046        14     1.257     0.720 -39.86   0
       267    931.3333    628.5989 307.5308713  +6.4479344     724.8378     1053.057     971.7736     77.37122     155.4273     311.3821      1.649     5.45     848.8256     54.92987     100.4904         8     1.198     0.700 -45.98   0
       268    416.0191    628.7495 307.7448648  +6.4307904     936.9735     1064.217      1047.65     77.62039     155.9234     311.4131      1.283     4.03     847.1841     54.92987     183.5699        10     1.244     0.528 -39.25   0
       269    608.2527    627.1704 307.6650886  +6.4378250     945.9523     1530.544     1882.543     77.86878     155.9854     311.5681      1.834     4.93     849.1722     54.92987     139.2445         9     1.221     0.563 -60.18   0
       270    489.7245    627.3836 307.7143029  +6.4338030     600.7689     836.5751     1041.788      77.6204     155.6135     311.5371      1.717     4.08     848.0203     54.92987     105.1188         7     0.955     0.536 -58.17   0
       271    307.4509    625.3720 307.7900620  +6.4285746     2140.998     3108.118     3165.493     77.74469     155.9854     311.5371      1.579     4.11     845.2484     54.92987     329.9846        19     1.386     0.808 -55.55   0
       272      8.5907    626.7748 307.9141167  +6.4180371     723.7456     759.3677      742.749     77.74469     155.6756     311.5061      1.226     4.86     848.1408     54.92987     105.5305        10     1.019     0.785 -55.32   0
       273    459.6439    623.7897 307.7269145  +6.4342877     988.5601       1281.2     1597.369      77.6204     155.7376     311.3511      1.369     4.50     847.4909     54.92987     188.3432        11     1.270     0.731 -32.97   0
       274    734.0703    619.2581 307.6131027  +6.4452625     5722.499      8042.79     7850.794     78.23988     155.8615     311.6301      1.493     3.73      849.903     54.92987     809.9089        26     1.362     0.871 -47.56   0
       275    787.6522    614.5463 307.5910078  +6.4489824     15070.79     20935.75     21071.62     78.36319     155.7995      311.661      1.524     3.88     849.7588     54.92987     2342.261        34     1.449     0.910 -46.00   0
       276   1004.8436    614.8469 307.5007999  +6.4560416     1050.904     1608.125     1400.317     78.11638     155.7995     311.5991      1.620     5.04     845.7581     54.92987     148.0389        13     1.381     0.698 -53.06   0
       277    530.0464    614.6544 307.6979832  +6.4403972     1287.928     1939.094     1875.756     78.11638     155.8615      311.661      1.691     3.97     848.2347     54.92987     246.4271        14     1.299     0.761 -39.13   0
       278     32.4105    614.4573 307.9046388  +6.4239171      710.681     907.7078     581.5361      77.4959     155.8615     311.3511      1.434     5.20     847.6185     54.92987     115.0728         9     1.464     0.521 -39.80   0
       279    611.5359    612.7966 307.6642044  +6.4438683     3215.742     4452.022     4215.037      77.4959     155.6756     311.4131      1.468     3.47     848.5505     54.92987     521.1187        18     1.268     0.775 -50.39   0
       280    928.7095    608.5723 307.5326265  +6.4561160      1189.29     1922.496     2079.943     78.23988     155.6135     311.5061      1.660     4.51      848.447     54.92987     160.0737        12     1.282     0.644 -40.38   0
       281    369.8766    606.3230 307.7647757  +6.4385154     963.4225     1535.518     1417.703     78.36319     156.1091      311.723      1.636     4.05     845.0306     54.92987     146.5453         9     1.059     0.611 -44.32   0
       282    223.9940    606.2938 307.8253567  +6.4336732     1342.732     1661.256     1964.673     77.74469     155.5515     311.4441      1.339     4.42      845.049     54.92987     199.6973        14     1.323     0.691 -38.59   0
       283    863.7281    597.7360 307.5599733  +6.4584408     2951.674     4110.636     4770.148     78.11638     155.8615      311.661      1.502     3.51     848.2161     54.92987     414.0396        20     1.352     0.815 -42.30   0
       284    159.0679    598.0370 307.8525944  +6.4349192     765.1151     991.0118     1308.822     77.99268     155.8615      311.754      1.344     4.08     845.4794     54.92987     170.4998         7     1.177     0.696 -26.25   0
       285    822.4843    595.1674 307.5771872  +6.4581364     2794.431     4059.663     4254.299     78.11638     155.6756     311.5681      1.606     4.35      848.877     54.92987      381.871        21     1.385     0.856 -38.91   0
       286    793.3971    591.2719 307.5893966  +6.4587818     2705.044     4005.725     4223.565      77.6204     155.4894     311.4751      1.652     3.91      849.142     54.92987     356.5461        21     1.414     0.864 -46.38   1
       287    250.3939    590.4930 307.8149225  +6.4410755     8587.272     11923.72     12615.03     77.74469     155.5515     311.4751      1.491     3.78     844.6422     54.92987     1413.903        29     1.467     0.852 -43.72   0
       288    736.0627    591.3778 307.6132037  +6.4568392     629.6022     1076.666     1417.788     77.74469     155.8615     311.5371      1.625     4.35     849.1152     54.92987     156.1576         7     1.210     0.446 -52.13   0
       289    803.0114    586.4434 307.5855645  +6.4610937     167958.1     240624.8     250285.8     77.62039     155.6756     311.3511      1.530     3.87     848.9692     54.92987     24261.81       116     1.598     1.129 -47.30   0
       290    854.6487    588.4102 307.5640542  +6.4619906     575.5799     706.1625      1106.49      77.6204     155.6756     311.3201      1.408     4.14     848.0705     54.92987     98.10486         6     1.030     0.475 -54.28   0
       291    184.5854    585.0594 307.8424325  +6.4411272      63052.3     91218.57     95846.87      77.4959     155.8615     311.3821      1.514     3.76     845.1174     54.92987     9857.153        72     1.614     1.022 -41.82   0
       292    733.0120    586.8226 307.6146224  +6.4586189      612.475     713.5029     948.6201     77.74469     155.6756     311.5371      1.265     4.00     848.9608     54.92987     94.56757         6     0.996     0.461 -37.24   0
       293    108.5636    581.2311 307.8741298  +6.4401742     6661.126     9568.425     9908.166     77.74469     155.6135     311.3821      1.521     3.76     845.6004     54.92987     1131.797        29     1.487     0.848 -41.81   0
       294    974.2413    578.1194 307.5147291  +6.4701941     1420.941     2151.365     2103.338     78.11638     155.8615     311.5681      1.635     4.70      845.648     54.92987     163.6734        18     1.349     0.920 -36.38   0
       295    995.1876    576.7663 307.5060749  +6.4714449     875.1006     1320.783     1289.409     77.62039     155.6135     311.5061      1.620     5.53     844.9078     54.92987     104.2272        13     1.227     0.886 -46.50   0
       296    223.1836    576.3382 307.8266959  +6.4460134     858.6168     1293.621     1421.902     77.62039     155.7995     311.4441      1.773     4.58     844.5688     54.92987      138.335        12     1.394     0.672 -58.43   0
       297    839.6368    573.6975 307.5707780  +6.4675683      4752.17     6591.046     7111.574     78.11638     155.7376     311.7849      1.512     3.81     847.9294     54.92987      756.348        22     1.376     0.831 -41.85   0
       298    448.0250    572.5643 307.7334503  +6.4550504      950.154     1450.239     1794.195     77.74469     155.6756     311.3821      1.587     5.69     845.4788     54.92987     130.3235        12     1.387     0.729 -42.68   0
       299    357.9786    572.0680 307.7708617  +6.4522621      18719.4     26651.48     27482.66     77.74469     155.7995     311.5681      1.467     3.69     844.2618     54.92987     3024.322        38     1.481     0.896 -42.40   0
       300    159.8412    571.1465 307.8531739  +6.4460467     1919.641     2985.591     3597.273     77.99268     155.9234      311.692      1.662     4.74     845.2734     54.92987     336.0252        19     1.697     0.676 -42.32   2
       301    235.2484    568.6283 307.8219438  +6.4495981     1022.659     1668.589     2444.261     77.74469     155.9234     311.5681      1.790     5.00     844.3859     54.92987     162.5184         9     1.393     0.508 -41.01   0
       302    524.3862    566.8700 307.7019285  +6.4599375     6978.516     9952.578     9947.103     77.62039     155.7376     311.5061      1.468     3.68     846.3206     54.92987     1198.151        26     1.430     0.814 -47.61   0
       303     97.1975    568.4171 307.8792792  +6.4450855      1026.69     1340.374     1064.454     77.74469     155.4273     311.4441      1.354     4.56     845.4784     54.92987     150.3025         9     1.120     0.527 -61.62   0
       304    793.5341    567.0238 307.5901468  +6.4687975     6059.062     8502.047     9042.935     77.74469     155.8615     311.5681      1.492     3.84      848.479     54.92987     910.3223        23     1.371     0.811 -42.10   0
       305    382.8239    563.4673 307.7608313  +6.4566391     1574.529     2428.244     2644.202     77.74469     155.7995     311.5681      1.660     4.37      844.421     54.92987     268.9933        15     1.483     0.676 -51.17   0
       306    171.3374    560.2402 307.8487652  +6.4509324     7458.172     10659.42     10622.31     78.11638     155.7995      311.661      1.517     3.85     845.0474     54.92987     1136.063        32     1.498     0.909 -41.43   0
       307    569.1632    559.9664 307.6835632  +6.4642740     2483.302     4044.853     4436.366     77.86878     155.6135     311.3821      1.779     4.95     846.4733     54.92987     385.2473        19     1.645     0.693 -37.05   0
       308     42.8685    558.9114 307.9021588  +6.4471978     5410.951     7879.221     7923.057     78.23988     156.1091     311.5991      1.503     3.57     845.7603     54.92987     839.0615        25     1.399     0.917 -47.33   0
       309    810.1155    559.3979 307.5835142  +6.4724949     1340.295     1916.617     2519.678      77.4959     155.4894     311.3201      1.596     3.59     848.0826     54.92987     202.0787        13     1.203     0.667 -40.14   0
       310    266.5702    556.6224 307.8093384  +6.4555976     95032.59       134441     139152.7      77.4959     155.6135     311.4441      1.506     3.72     844.0741     54.92987     16699.36        71     1.540     0.997 -43.44   0
       311    555.9974    554.1495 307.6892250  +6.4662386     929.5078     1349.796      1702.12      77.4959     155.4894      311.227      1.409     4.34     846.1706     54.92987     143.9716         8     1.077     0.498 -54.62   0
       312    250.4671    551.5945 307.8161939  +6.4571372     1603.482     2041.195     1876.147      77.6204     155.5515     311.4441      1.401     3.43      844.061     54.92987     279.7253        14     1.303     0.690 -44.73   0
       313    966.2264    550.0665 307.5189898  +6.4815113     1534.873      2142.36     2232.172     77.74469     155.7376     311.5371      1.475     5.12     845.0056     54.92987     209.7667        14     1.331     0.712 -46.54   0
       314    789.7547    548.8514 307.5923212  +6.4761751     17065.41        24064     24311.91     78.23988     155.7995     311.6301      1.488     3.77     847.9785     54.92987     2545.001        37     1.473     0.898 -44.24   0
       315    493.3697    547.3590 307.7154607  +6.4669629     43050.13     67115.91     70222.67      77.6204     155.6756     311.4751      1.707     4.16      845.152     54.92987     6915.328        73     1.658     1.189 -31.85   0
       316    643.9255    545.6259 307.6529926  +6.4726747      1000.95     1325.751     1334.005     77.74469     155.7376     311.5991      1.459     5.42     846.6956     54.92987     178.4734        11     1.252     0.662 -38.11   0
       317    844.9960    544.0764 307.5695378  +6.4799751     355.8606     294.6262     562.6035     77.74469     155.3651     311.4751      1.199     4.48     846.9269     54.92987     89.50244         6     1.250     0.456 -56.42   0
       318    205.8468    543.6932 307.8349883  +6.4589134     2131.858     3085.253     3533.232     77.99268     155.7995      311.754      1.500     3.94     844.3073     54.92987     323.4926        19     1.497     0.702 -41.57   0
       319     41.3217    544.0118 307.9033008  +6.4532974     1342.971     1815.338     1644.205     77.74469     155.4894     311.4751      1.459     4.42     845.3123     54.92987     194.7101        15     1.369     0.702 -37.03   0
       320    653.2609    542.3802 307.6492238  +6.4743243     3235.696     4551.438     4772.412     77.74469     155.7995     311.5371      1.498     3.65     846.6266     54.92987     558.4962        19     1.422     0.743 -40.02   0
       321    253.7514    543.9509 307.8150858  +6.4604023     471.7485    -696.6263    -1173.019     78.11638     155.7376     311.5991     -8.032     4.65     843.8945     54.92987     99.19678         5     1.055     0.581 -20.42   0
       322     91.7789    544.2687 307.8823388  +6.4548743     626.9083     867.5082     428.7894     77.74469     155.7995     311.5371      1.452     4.23     845.1577     54.92987     112.8799         7     1.144     0.445 -33.00   0
       323    715.6293    541.3311 307.6233567  +6.4768247     1446.689     2257.167     2763.254     77.86878     155.8615     311.5681      1.808     4.83     847.3363     54.92987     211.4086        17     1.320     1.065 -39.67   0
       324    663.5664    542.1802 307.6449505  +6.4747485     1480.224     1912.233     2213.025      77.6204     155.6756     311.4441      1.457     4.65     846.7881     54.92987     215.2203        15     1.312     0.726 -50.69   0
       325     72.2213    540.2889 307.8905940  +6.4558651     763.3467     1259.941      1608.32     78.11638     155.6756     311.5371      1.951     5.11     845.1572     54.92987     124.5647         8     0.997     0.741 -72.94   0
       326    391.0269    538.1248 307.7582717  +6.4673746     1915.643     2852.354     3159.331     77.99268     155.7995     311.5991      1.519     4.26     843.8831     54.92987     329.6569        17     1.417     0.763 -44.89   0
       327    322.5109    536.3000 307.7867868  +6.4658493     4330.677     6008.482     5876.762     78.11638     156.2328     311.5991      1.476     3.94     843.4235     54.92987     753.7789        23     1.409     0.790 -41.66   0
       328    137.6558    535.0529 307.8635961  +6.4602085     27984.72     39714.82     41008.75     78.23988     155.8615     311.5991      1.504     3.73     844.8509     54.92987     4457.698        47     1.512     0.937 -41.57   0
       329    502.4207    535.7581 307.7120891  +6.4720530     2370.976     3511.108     3979.561     77.74469     155.6756     311.4751      1.546     3.94      844.811     54.92987      432.849        17     1.419     0.688 -47.48   0
       330    865.6959    534.6584 307.5612541  +6.4845485     1604.607     2188.904     2288.944     77.99268     155.8615      311.754      1.454     4.02     846.2356     54.92987     229.2046        16     1.290     0.793 -49.97   0
       331    102.9241    533.2938 307.8780784  +6.4597769     2796.653     4234.824     4328.596     77.86878     156.0472     311.6301      1.507     4.02     844.9557     54.92987     518.7939        18     1.384     0.801 -47.38   0
       332    339.4787    531.4980 307.7799008  +6.4683963     1192.831     1697.625     2041.083     77.86878     156.1091      311.661      1.718     4.89     843.2802     54.92987     199.8067        16     1.426     0.821 -41.59   0
       333    963.2994    529.2827 307.5208961  +6.4899956     5188.741     7701.515     8239.895     78.11638     156.3563      311.723      1.580     3.90     844.6881     54.92987     662.5008        28     1.427     0.960 -38.56   0
       334     37.0015    526.8939 307.9056690  +6.4602203     512.4929     656.0911     654.2847     77.62039     155.5515     311.2891      1.286     3.73     845.0473     54.92987     100.0219         5     1.042     0.384 -32.00   0
       335    536.4646    521.8931 307.6984134  +6.4789076     1612.163     2207.425     2811.423     78.11638     156.0472      311.661      1.496     4.91     844.4877     54.92987     249.6949        11     1.180     0.618 -45.62   0
       336      2.2517    519.2887 307.9203548  +6.4622004     26376.42        33434     34138.07     77.12122       136.58     249.1274      1.365     3.62     844.9974     54.92987     4131.023        32     1.276     0.898 -58.15  24
       337    434.6887    516.0504 307.7408765  +6.4779394     46665.41     65115.04     66880.99     78.11638     155.6756      311.754      1.465     3.81     843.5538     54.92987     7715.181        54     1.502     0.932 -43.84   0
       338    976.1430    514.5990 307.5160497  +6.4964824     1079.357     1921.888     2012.644      77.4959     155.5515     311.3201      2.040     7.59     844.2748     54.92987     149.1427        17     2.349     0.685 -59.50   0
       339    411.5309    518.6555 307.7504070  +6.4760942     483.0916      627.809     299.8604     78.11638     155.7376     311.5991      1.601     4.24      843.493     54.92987       79.896         6     1.104     0.464 -34.03   0
       340    642.7418    515.6046 307.6544850  +6.4850301     13089.38     18315.38     18561.21      77.4959     155.7376     311.4131      1.475     3.81     844.9888     54.92987     2278.782        33     1.480     0.826 -47.49   0
       341    282.7549    516.0642 307.8039741  +6.4728808     1014.378     1592.661     1536.158     78.11638     155.7995     311.6301      1.706     3.12     842.2216     54.92987     200.7918         8     1.013     0.504 -37.13   0
       342    199.7974    513.7370 307.8385036  +6.4710793      20127.9     30499.33     31667.59      77.4959     155.6756     311.3821      1.619     3.61     843.3424     54.92987     2801.658        47     1.501     1.112 -38.24   0
       343    165.4123    514.8478 307.8527462  +6.4694752     1638.226     2251.052     1836.426      77.4959     155.7376     311.3201      1.392     4.08     844.0453     54.92987      297.418        14     1.311     0.614 -41.87   0
       344    905.2977    513.4167 307.5455130  +6.4946284     786.0885      846.879     858.6774     78.11638     155.6756     311.4441      1.407     4.88     845.2027     54.92987     119.3315        10     1.134     0.658 -54.47   0
       345    816.9116    513.4913 307.5822194  +6.4916731     1069.464     1715.734     1457.261     78.11638     156.3563      311.723      1.676     3.88     846.0797     54.92987     223.7468        12     1.269     0.629 -37.70   0
       346    564.5022    512.4420 307.6870845  +6.4837402     3068.757     4050.528      3998.45     78.11638     155.7376     311.8469      1.469     4.17     844.1028     54.92987     546.1011        19     1.369     0.732 -43.37   0
       347    938.4269    509.3763 307.5318878  +6.4973920      4933.09     7355.089     7308.153      77.6204     155.7376     311.5061      1.584     3.76     844.7436     54.92987     707.8239        27     1.465     0.889 -43.60   0
       348    611.4988    507.9431 307.6677162  +6.4871570     7182.315     10037.94     9946.393     77.86878     155.8615     311.8159      1.475     3.70     844.0223     54.92987     1158.831        25     1.392     0.789 -42.87   0
       349     99.0126    508.7026 307.8805270  +6.4697988     1304.719      1819.12     2103.416     77.86878     155.6135     311.3821      1.432     4.54     844.6115     54.92987     191.4761        12     1.222     0.638 -43.42   0
       350    512.0571    507.7977 307.7090205  +6.4839166     537.7328     815.9649     1135.396      77.4959     155.5515     311.3821      1.757     3.94     843.6653     54.92987     114.1266         5     0.976     0.456 -49.16   0
       351    961.0156    501.7104 307.5227609  +6.5013038      3412.43     4878.797     4971.235     77.86878     155.6756     311.4751      1.517     4.01      844.316     54.92987     453.6136        22     1.466     0.825 -48.04   0
       352    523.6425    499.2839 307.7044931  +6.4878163     8016.565     11233.37     11689.87     78.11638     155.7995     311.5681      1.499     4.05     843.3048     54.92987     1430.767        27     1.418     0.838 -44.06   0
       353    399.7519    500.8375 307.7558943  +6.4830589     756.8856     1244.477     1466.661     77.99268     155.8615     311.5371      1.560     4.70     842.8406     54.92987     130.0212         9     1.134     0.610 -49.25   0
       354    369.6442    499.5775 307.7684403  +6.4825780     2926.375      4002.66     4027.297      77.6204     155.7376     311.4441      1.463     3.77     842.4807     54.92987     515.3528        17     1.363     0.720 -40.12   0
       355     92.9309    498.7410 307.8833865  +6.4737086     568.8853     860.2972     821.2706     78.23988     155.7995     311.5991      1.325     2.77     844.4948     54.92987     119.1259         7     0.833     0.591 -27.35   0
       356    880.0961    494.9649 307.5565936  +6.5014129     3301.109     4687.298     5200.362     78.23988     155.7376     311.7849      1.479     3.68     844.9108     54.92987     468.8381        20     1.410     0.771 -41.90   0
       357    532.9432    496.0853 307.7007372  +6.4894457     733.8691     1097.787     1541.825     78.11638     155.8615     311.7849      1.422     4.42       843.19     54.92987     119.8989         7     1.145     0.485 -39.80   0
       358    228.1246    494.6159 307.8273797  +6.4799169     596.5218     586.2872     298.5888     77.62039     155.6135     311.5061      1.248     4.74       842.09     54.92987     129.4884         6     1.353     0.472 -37.16   0
       359    887.4955    489.3961 307.5537055  +6.5039569     2150.114     2970.241     2682.397     77.86878     155.5515     311.3511      1.393     4.01     844.6777     54.92987     348.7782        14     1.313     0.668 -50.75   0
       360    926.8049    488.7197 307.5374015  +6.5055362     1226.452     1811.932     1942.372     77.74469     155.4273     311.4131      1.635     3.60     844.3528     54.92987     200.5405        15     1.245     0.782 -40.87   0
       361    106.6305    488.8073 307.8780302  +6.4782665     914.2458     1220.601       1123.7     77.62039     155.6756     311.4131      1.460     5.34     844.1782     54.92987       117.91        10     1.039     0.774 -44.25   0
       362    711.4396    485.4617 307.6269580  +6.4997522     3351.233     4852.904     4943.764     78.11638     155.8615      311.692      1.607     4.35     843.8614     54.92987     547.1132        22     1.420     0.811 -44.33   0
       363     73.3609    484.6324 307.8919868  +6.4788806     2028.869     2956.993     3089.728     77.74469     155.6756     311.4441      1.517     3.79     844.3157     54.92987     317.9745        18     1.403     0.747 -38.52   0
       364    382.4004    483.7375 307.7636721  +6.4895418     4114.471     5478.563     5745.209     77.37122     155.6135     311.3201      1.412     3.60     842.1067     54.92987     696.0676        21     1.324     0.797 -42.44   0
       365    610.1422    480.2340 307.6692037  +6.4985519      11122.1     15322.91     16111.61     77.99268     155.8615     311.5991      1.451     3.66     842.4013     54.92987     1746.078        33     1.439     0.859 -45.83   0
       366    772.8726    476.7110 307.6017344  +6.5054003     17330.48     24405.35     25812.47     78.11638     156.1091      311.661      1.495     3.72      844.022     54.92987     2652.787        41     1.580     0.878 -45.70   2
       367    777.0437    471.6991 307.6001689  +6.5076076     1576.176     1997.077     2134.442     78.11638     155.7376     311.8469      1.298     4.47     843.8266     54.92987     250.0524         9     1.095     0.520 -42.25   3
       368    292.6240    477.2230 307.8011750  +6.4892449     2982.364     4211.905     3998.896      77.6204     155.7376     311.5991      1.420     3.65     840.0803     54.92987     519.5205        19     1.402     0.684 -38.06   0
       369    416.3398    476.5178 307.7498179  +6.4936508     802.7094     1004.248     1051.507     78.23988     155.8615      311.661      1.344     3.49     842.2322     54.92987     140.3828         8     1.094     0.650 -47.65   0
       370    422.7603    483.9371 307.7469034  +6.4908011     1187.158      1457.84     1523.107     78.11638     155.7995      311.661      1.313     4.73     842.5438     54.92987     188.5203         9     1.086     0.583 -36.68   0
       371    802.0269    473.5167 307.5897320  +6.5076845      1344.86     1781.642     2029.346     77.99268     155.6135     311.5681      1.442     3.24     844.2293     54.92987     192.0327        12     1.082     0.693 -40.50   0
       372    375.8564    473.6732 307.7667263  +6.4934793     1780.719     2452.937     3009.591     77.99268     155.7995     311.5991      1.417     3.78      841.623     54.92987     318.4309        12     1.179     0.634 -46.47   0
       373    958.2916    471.5800 307.5248936  +6.5136536     1836.698     2486.512     2516.034     77.99268     155.6135     311.5061      1.551     4.84     843.5611     54.92987     211.2053        17     1.272     0.926 -33.11   0
       374    110.1774    468.8744 307.8772253  +6.4866140     4945.514     7347.248     7676.942     77.74469     155.7376     311.5681      1.532     3.78     843.5331     54.92987     769.3701        28     1.481     0.909 -40.31   0
       375    364.4159    469.7832 307.7716078  +6.4947049     596.0258      741.844     1079.766     77.86878     155.5515     311.5681      1.505     4.66     841.3182     54.92987     106.2008         6     1.163     0.531 -43.86   0
       376    748.5386    467.4606 307.6121492  +6.5084134     2483.952     3454.033     3850.734     78.11638     155.8615      311.661      1.527     3.92     843.2676     54.92987     427.9386        16     1.352     0.738 -47.28   0
       377   1012.1618    466.2191 307.5026970  +6.5176471     3931.327     6902.196     6863.329     77.74469     155.6756     311.3821      1.842     4.12      843.097     54.92987      477.186        34     1.511     1.270 -31.38   0
       378    268.1287    465.8341 307.8117292  +6.4931314     1614.631     2138.691     2862.434     77.99268     155.7995     311.6301      1.424     3.99     840.1674     54.92987     279.9215        13     1.419     0.566 -44.72   0
       379    346.2666    463.4540 307.7793571  +6.4967142     3534.357     4880.719     4735.847     78.11638     155.7995     311.5991      1.448     3.70     840.7707     54.92987     626.4494        19     1.304     0.753 -46.34   0
       380    702.2484    461.3449 307.6315789  +6.5094046     1846.123     2521.922     2680.996     78.11638     155.8615      311.723      1.472     4.06     842.7694     54.92987     245.8047        14     1.224     0.730 -42.03   0
       381    976.3705    459.3958 307.5177895  +6.5192816     750.7621     998.9311     1449.823      77.6204     155.6756     311.4441      1.510     4.86     842.8704     54.92987     115.4118         9     1.034     0.646 -31.88   0
       382    405.3479    459.7220 307.7549443  +6.5002197     575.8241     979.7155      902.992     78.11638     155.8615     311.6301      1.700     3.77     841.2442     54.92987     113.5846         5     0.951     0.429 -43.96   0
       383    234.6181    458.7473 307.8258837  +6.4949415     820.0903     1387.631     1380.357      77.6204     155.9234     311.4131      1.777     3.40     840.8252     54.92987     147.6719         7     0.917     0.563 -51.74   2
       384    657.1989    456.4462 307.6504528  +6.5099337     523.0642     512.5174     388.8312      77.4959     155.5515      311.196      1.196     3.66     842.2923     54.92987     77.99597         5     0.996     0.387 -83.91   0
       385    444.7733    455.0439 307.7387263  +6.5034614     533.6158     497.1142     90.90894     77.74469     155.9234     311.5371      1.274     3.99     841.0823     54.92987     112.9794         6     1.183     0.385 -56.47   0
       386    692.1555    453.1480 307.6360440  +6.5124542     599.3334     1003.871     1034.747     78.11638     155.7995     311.6301      1.674     4.25     842.4084     54.92987     99.13153         7     1.587     0.325 -44.66   0
       387    543.6478    453.9268 307.6976983  +6.5072065     1126.778     1732.268     1861.653     78.11638     155.9234     311.6301      1.685     3.50     841.4103     54.92987     186.4856        10     1.002     0.654 -32.71   0
       388    465.9518    452.1834 307.7300259  +6.5053460     1576.352     2098.054     2153.149     77.62039     155.8615     311.4131      1.402     3.22     840.9239     54.92987     276.2067        14     1.123     0.768 -51.83   0
       389    828.3195    451.2259 307.5795535  +6.5177579     1578.247     2151.858     2349.307     77.99268     155.6756     311.6301      1.484     4.55     842.9632     54.92987     262.0682        13     1.372     0.680 -35.90   0
       390    814.0719    450.2170 307.5855047  +6.5177029     2101.626     2856.781     2745.591     77.62039     155.7995     311.5371      1.472     3.61     842.9081     54.92987     308.4531        16     1.302     0.719 -44.11   0
       391    613.7340    450.2589 307.6687116  +6.5110466     806.9709     968.3312      1093.12     78.23988     155.7995     311.6301      1.397     3.76     841.6656     54.92987     152.4147         9     1.156     0.506 -43.14   0
       392    711.3540    448.4372 307.6282271  +6.5150354     16119.66     22054.64     23511.88     77.86878     155.7995     311.5061      1.467     3.74     842.2693     54.92987     2832.034        35     1.447     0.846 -41.83   0
       393    632.5222    444.4444 307.6611021  +6.5140704     2950.672     3956.017     4638.022     77.99268     155.8615     311.6301      1.386     3.65     841.6569     54.92987     548.6436        18     1.310     0.774 -33.64   0
       394   1001.6268    445.1965 307.5077710  +6.5259786     421.6908     567.8518     826.2254      77.6204     155.6135     311.4751      1.283     3.47     842.1481     54.92987     67.38916         5     0.786     0.443 -72.70   0
       395    607.6212    441.4801 307.6715433  +6.5144682     5703.468     8054.751     8635.415     77.74469     155.5515     311.6301      1.476     3.91     841.3813     54.92987      999.297        23     1.417     0.749 -40.09   3
       396    603.8115    438.9535 307.6732099  +6.5153850     16038.54     22451.27     23989.76     77.62039     155.6756     311.3201      1.460     3.82     841.2987     54.92987     2588.979        35     1.428     0.888 -43.58   3
       397    936.5197    438.2056 307.5350458  +6.5267130     3891.447     5954.754     6236.601     77.74469     155.4273     311.4131      1.633     4.03     841.9078     54.92987      577.053        26     1.507     0.872 -45.89   0
       398    375.7104    434.4573 307.7680979  +6.5096649     32152.86     44618.45     46136.13     77.99268     155.7995      311.754      1.490     3.93     839.8353     54.92987     5673.676        49     1.476     0.944 -44.40   0
       399    412.8509    435.9008 307.7526242  +6.5103037     658.5621     866.5471     667.1094     78.11638     155.8615     311.8159      1.333     4.93     840.0638     54.92987     121.6268         8     1.119     0.615 -39.01   0
       400    121.6645    434.0322 307.8736224  +6.5013814     2529.708      3911.87     3781.175     77.86878     155.9234     311.5991      1.619     3.92      842.083     54.92987     372.4906        24     1.467     0.902 -44.02   0
       401    892.2596    433.9292 307.5535715  +6.5270148     1584.234     2377.583     2871.906     78.23988     155.8615      311.692      1.640     4.05     841.8949     54.92987     222.5448        15     1.284     0.736 -45.50   0
       402    888.0837    430.5245 307.5554192  +6.5282824     604.3863     1428.057     1574.133     78.23988     156.1709      311.723      2.154     5.79     841.7534     54.92987     73.31921         9     0.994     0.949  -4.04   0
       403    586.6498    430.3449 307.6806249  +6.5183697     703.0636     809.2491     1159.826     78.11638     155.8615      311.661      1.487     4.74     840.8964     54.92987     121.0759         7     1.334     0.477 -50.36   0
       404     54.8715    429.6989 307.9015075  +6.5009428     1444.045     2401.153     2512.659     77.86878     156.0472     311.6301      1.644     4.81     843.5414     54.92987     229.2974        17     1.576     0.742 -31.73   0
       405    905.3903    428.6736 307.5482924  +6.5296190     5157.847     7446.692     7566.768     77.74469     155.4894     311.5061      1.563     3.88     841.5676     54.92987     786.2803        25     1.429     0.835 -44.17   0
       406    961.1063    426.7065 307.5252158  +6.5322734     649.4732     824.1158     1312.099     78.11638     156.3563     311.5991      1.584     4.29      841.334     54.92987     88.75061         6     1.241     0.422 -33.14   0
       407    233.1910    425.0851 307.8276033  +6.5087914     15041.44      21477.6     21910.47     77.74469     155.5515     311.4751      1.480     3.83     840.0219     54.92987     2245.971        35     1.471     0.882 -43.31   0
       408    730.6125    424.7773 307.6210164  +6.5254419     571.4889     689.4717     1568.975     77.86878     155.6756     311.5371      1.297     4.48      841.398     54.92987     97.82068         5     0.842     0.678 -43.80   0
       409     68.7817    419.1154 307.8960854  +6.5057762     884.3608     1452.456     1769.946     77.74469     155.6135     311.5681      1.632     4.36      842.845     54.92987     129.8574         8     1.230     0.441 -60.15   0
       410    728.1293    418.5753 307.6222544  +6.5279201     834.7681     1132.511     1526.804     77.74469     155.7376     311.5681      1.705     4.35     841.1427     54.92987     140.3041         7     1.097     0.491 -46.96   0
       411    696.2114    417.8772 307.6355348  +6.5271506     676.7237     992.7983     1012.239     77.74469     155.4894     311.4751      1.677     4.52     840.9932     54.92987     150.8353         8     1.474     0.394 -47.25   0
       412    956.5595    416.8781 307.5274311  +6.5361809     1119.359     1528.787     1612.084     77.99268     155.8615      311.661      1.546     4.97     840.8415     54.92987     165.4485        10     1.082     0.647 -29.40   0
       413    346.2043    414.7120 307.7810129  +6.5168354     1417.768     1784.138     1688.018     77.62039     155.5515     311.3201      1.283     3.85     838.8582     54.92987     277.9446        12     1.349     0.536 -45.79   0
       414    178.8205    415.1989 307.8505157  +6.5110617     754.3287     1133.016     1030.033     77.74469     155.5515     311.3511      1.534     4.81     840.8131     54.92987      122.657         9     1.195     0.549 -45.07   0
       415    133.4968    413.7491 307.8693881  +6.5101497     5565.385     7760.258     7935.494     77.99268     155.7995     311.8159      1.498     3.79     841.3629     54.92987     904.2784        25     1.425     0.819 -42.19   0
       416    238.3827    412.7048 307.8258616  +6.5140755     1567.506      2202.78     1910.453     77.99268     155.6756     311.4751      1.474     3.86     839.5434     54.92987     252.5504        16     1.348     0.839 -38.82   0
       417    431.2655    411.8656 307.7457792  +6.5208389     872.2709     919.9934      754.545     78.11638     155.8615      311.661      1.143     3.63     838.8143     54.92987     153.7159         6     0.769     0.540 -51.59   0
       418    819.5319    409.9177 307.5845782  +6.5345217     749.5086     977.2961     704.1546     78.23988     156.1091      311.661      1.434     5.33     840.9295     54.92987     105.3475        10     1.331     0.602 -48.51   0
       419    627.1395    411.6203 307.6644323  +6.5274436     430.3019     419.2728     410.5849     77.74469     155.7995     311.5681      1.129     3.48     840.5375     54.92987     75.98474         5     0.800     0.438 -18.16   0
       420    155.6605    409.4254 307.8603279  +6.5126735     2748.075     4423.014      4623.57     77.74469     155.8615     311.5061      1.669     4.18     841.1348     54.92987     433.8561        22     1.586     0.778 -55.06   0
       421    551.3388    408.1737 307.6960309  +6.5263513     1051.538     1533.052     1649.419     77.74469     155.8615     311.5371      1.503     3.34     839.5054     54.92987     182.3399         9     1.110     0.501 -49.40   0
       422    378.9744    404.0851 307.7677577  +6.5223126     2220.598      3223.93     3175.691     78.23988     155.6135     311.5061      1.469     3.73     838.3423     54.92987     373.1909        18     1.355     0.759 -42.83   0
       423    267.2439    404.5008 307.8141493  +6.5184235     903.8965     1181.212     959.5259     78.11638     155.7376     311.8469      1.508     3.50     838.4977     54.92987     136.6971         7     0.986     0.503 -48.78   0
       424    967.1733    403.4033 307.5234704  +6.5420950     876.0621     1231.353     1596.366     77.62039     155.6135     311.4751      1.497     4.41     840.3708     54.92987     135.1061        13     1.262     0.722 -40.11   0
       425    313.5007    402.0426 307.7950196  +6.5209779     670.9805     1129.978     1567.727     78.11638     155.7376     311.8469      1.769     5.02      837.981     54.92987     108.7484         8     1.088     0.697 -60.88   0
       426    586.1915    400.4909 307.6818113  +6.5306800     500.1999     368.2778     318.9281     77.74469     155.5515     311.3821      1.095     3.48     839.4716     54.92987     99.16412         5     1.242     0.281 -53.13   0
       427    432.7713    397.8405 307.7456224  +6.5266792     8134.157     11459.46      11681.1     77.74469     155.6135     311.4751      1.485     3.70     838.0859     54.92987     1312.799        30     1.440     0.842 -47.95   0
       428     29.1147    398.7323 307.9132433  +6.5128676     3355.738     5001.766     5320.711     78.23988     156.1091      311.661      1.578     4.06     843.5408     54.92987     546.5657        23     1.652     0.738 -48.12   0
       429    765.5272    396.4908 307.6074566  +6.5382769     2291.324     3056.584     3311.154     78.11638     156.1091      311.661      1.427     3.79     840.5468     54.92987     406.6514        14     1.208     0.717 -46.70   0
       430    773.4736    395.0195 307.6042050  +6.5391476     14055.88     19415.19     19980.92     77.74469     155.7995     311.5681      1.465     3.72     840.5331     54.92987     2220.906        38     1.482     0.878 -43.32   0
       431    193.1433    397.0264 307.8451758  +6.5190414     696.5101      850.339     632.2913     77.74469     155.9234     311.5061      1.325     4.57     840.2028     54.92987     114.7358         8     0.909     0.652 -44.71   0
       432    336.9989    393.4133 307.7855486  +6.5253224     1335.329     2018.355     2074.918     77.74469     155.5515     311.4131      1.526     3.60     837.6797     54.92987     238.6775        14     1.280     0.698 -37.31   0
       433    287.9681    393.8043 307.8058998  +6.5235294     500.6821     711.8109     717.8292      77.4959     155.7376     311.4131      1.462     4.32     837.7438     54.92987     76.59052         5     1.073     0.496 -39.07   0
       434   1017.3702    390.1777 307.5030596  +6.5492142     3566.021     5267.192     5573.138      77.4959     155.6135     308.1717      1.578     3.63     839.9338     54.92987     459.4318        26     1.489     0.901 -51.71  16
       435    181.7215    386.2440 307.8502807  +6.5231123     979.3636     1597.374     1327.812     77.99268     155.8615      311.661      1.722     4.14     840.3124     54.92987     168.3079        10     1.374     0.567 -42.96   0
       436    948.3808    386.3513 307.5318429  +6.5485140     537.5923     677.7115     684.3753      77.6204     155.9234     311.4441      1.082     3.34     839.7993     54.92987     104.9786         5     1.007     0.321 -21.72   0
       437    521.2620    383.2017 307.7093569  +6.5356626     596.4846     718.5906     1062.915      77.4959     155.6756     311.3511      1.368     4.19     837.7009     54.92987     106.2009         5     0.996     0.503 -38.69   0
       438    480.9936    381.4442 307.7261411  +6.5350508     3305.675     4863.271     4923.654     77.62039     155.6135     311.3201      1.544     3.80     837.3356     54.92987     562.7061        21     1.408     0.794 -42.93   0
       439    453.2863    381.9173 307.7376335  +6.5339349      2494.15       3212.6      2917.81     77.86878     156.0472      311.723      1.362     3.49     837.3073     54.92987     403.2264        17     1.241     0.701 -46.69   0
       440    388.1106    383.5525 307.7646495  +6.5310934     540.8489     753.3511     457.3446     78.11638     155.7376     311.7849      1.186     2.97     837.2382     54.92987     138.7206         5     0.823     0.538 -46.07   0
       441    909.7336    380.9355 307.5480759  +6.5494720       927.97     1370.097     1640.421     78.11638     155.8615      311.661      1.659     4.72     839.8173     54.92987      128.742         8     1.175     0.538 -33.08   0
       442    838.8232    377.9066 307.5776307  +6.5483765      35014.8     51826.78     53866.98     78.11638     155.6756     311.4751      1.563     3.86     840.1887     54.92987     5276.969        52     1.546     1.012 -52.85   0
       443    423.7917    376.2152 307.7500746  +6.5353088     496.7763     519.7138     281.6012     77.74469     155.6135     311.4751      1.177     3.51     836.9111     54.92987     114.8345         5     0.862     0.453 -45.21   0
       444     56.3405    374.7118 307.9027417  +6.5236928      826.859     1174.181     1081.143     77.99268     155.8615      311.723      1.513     4.45     842.0192     54.92987     126.3196         8     1.084     0.520 -33.60   0
       445    331.0919    373.4881 307.7886685  +6.5333520     1113.058     1527.452     1448.334     78.11638     156.2945      311.723      1.386     3.25     836.8096     54.92987     174.9008        10     1.070     0.639 -50.41   0
       446    610.6797    370.3767 307.6726446  +6.5439254     2943.091     4237.422     4696.918     77.74469     155.5515     311.5991      1.458     4.19     838.0465     54.92987     529.5118        19     1.389     0.709 -43.44   0
       447     18.6617    371.0426 307.9185137  +6.5239502     1178.913      1627.28     1549.428     78.11638     155.8615      311.723      1.452     3.82     842.3514     54.92987     185.7375        11     1.124     0.672 -53.80   0
       448    695.2509    363.9691 307.6377303  +6.5493753     87544.42       120507     124598.9     77.99268     155.9854     311.5681      1.445     3.77     839.0785     54.92987      14525.4        74     1.500     0.977 -44.37   0
       449    853.3264    365.1764 307.5720302  +6.5541123     1379.681     1924.511     2106.351     77.74469     155.6756     311.5681      1.610     4.59     839.8878     54.92987     216.8798        14     1.237     0.765 -42.38   0
       450     74.4562    363.8148 307.8955831  +6.5287959     1429.677     1788.811     1679.206      77.4959     155.7995     311.3511      1.421     4.81     841.5331     54.92987     237.1707        13     1.334     0.654 -39.00   0
       451    557.6259    360.7231 307.6950032  +6.5461503     3048.505     4202.881     4708.485     77.86878     155.8615     311.5991      1.469     3.57     836.6871     54.92987     534.5082        17     1.320     0.683 -44.83   0
       452    936.8007    360.7584 307.5375039  +6.5586975      907.735     919.9364     564.5275      77.4959     155.5515     311.2891      1.320     4.50     838.9588     54.92987     145.8961        10     1.074     0.750 -41.64   0
       453     94.8526    359.6615 307.8872511  +6.5311909     6705.542     9415.261     9855.479     78.11638     155.7995     311.5991      1.471     3.69     841.3311     54.92987     1035.674        26     1.379     0.843 -44.11   0
       454    541.0196    356.8897 307.7020288  +6.5471817     7820.582     10935.27     11096.52     77.99268     155.6135     311.4751      1.448     3.70     836.2294     54.92987     1237.741        28     1.386     0.854 -45.80   0
       455    269.9950    354.5060 307.8146800  +6.5391554     3063.196     4143.794     2951.117     77.86878     155.5515     311.3821      1.438     3.41     837.3706     54.92987     473.3018        19     1.304     0.765 -43.42   0
       456    403.8517    352.1412 307.7591614  +6.5445850     29065.95     40122.19     40981.12     78.11638     155.8615     311.6301      1.467     3.89      835.558     54.92987     4812.981        46     1.481     0.900 -42.36   0
       457    582.7145    351.0638 307.6849046  +6.5509709     621.9556     932.7609     946.6038     78.23988     155.9854     311.6301      1.571     4.38     836.4945     54.92987      115.788         7     1.241     0.440 -44.97   0
       458    511.5261    350.9008 307.7144792  +6.5486750     1471.514     2057.242     1939.559     77.62039     155.9854     311.5991      1.447     4.07     835.8876     54.92987     310.6672        15     1.401     0.629 -48.15   0
       459    383.9892    350.1573 307.7674777  +6.5447436     1383.615     1936.757      2484.82     77.62039     155.6756     311.3511      1.428     3.84     835.4071     54.92987     262.9329        13     1.352     0.613 -44.68   0
       460    670.6307    350.1227 307.6484183  +6.5542757     700.8538     822.1942     787.1011     77.99268     155.9234     311.6301      1.332     4.65     838.1635     54.92987     109.3328         8     0.927     0.662 -32.93   0
       461    483.1886    347.2679 307.7263709  +6.5492336     1322.613     1877.434     1983.927     77.62039     155.6756     311.5061      1.425     4.26     835.6982     54.92987     183.0068        12     1.242     0.640 -37.53   0
       462    798.7028    344.3344 307.5954132  +6.5609090     874.5483     1384.051      766.249     78.11638     155.9234      311.661      1.630     5.54     839.0764     54.92987     116.7521        11     1.246     0.694 -26.12   0
       463    634.8964    344.0652 307.6634633  +6.5555916      733.309      779.852       982.69     78.11638     155.9854      311.661      1.256     4.52     837.0747     54.92987     106.1958         7     1.085     0.535 -47.75   0
       464    380.9371    344.4989 307.7689346  +6.5469782     754.9252     1069.669     1315.761     77.86878     155.9234      311.661      1.327     3.39     835.2344     54.92987     131.8362         8     0.968     0.555 -41.55   0
       465    492.9848    342.4726 307.7224620  +6.5515388     9554.646     13214.82     13463.71     77.62039     155.7376     311.5371      1.456     3.64     835.4615     54.92987     1552.653        28     1.394     0.813 -43.91   0
       466    762.0618    341.0172 307.6107436  +6.5610651     3460.789     4947.031     4821.178     77.62039     155.7995     311.4441      1.456     3.68     838.6802     54.92987     559.7416        20     1.375     0.757 -46.21   0
       467    917.5468    340.9464 307.5461603  +6.5662405     922.6993     997.1097      1026.75     78.36319     155.7376     311.6301      1.297     3.96     838.2604     54.92987     156.7796         8     1.021     0.541 -43.51   0
       468    709.7695    340.5683 307.6324796  +6.5595178     874.1456     1042.842     1402.014      77.6204     155.6135     311.3821      1.516     4.55     838.1732     54.92987     123.2737         8     1.337     0.440 -51.03   0
       469    107.9695    340.4218 307.8824482  +6.5395713     545.5867      737.513     766.4535     77.62039     155.6756     311.5061      1.357     4.19     841.1356     54.92987     79.94202         5     1.125     0.445 -64.23   0
       470    319.3627    339.4292 307.7946795  +6.5470229     1220.696     1857.593     1758.553     77.74469     155.6135     311.5061      1.571     4.70     835.9286     54.92987     218.8433        12     1.373     0.589 -42.62   0
       471     78.3271    336.3093 307.8948978  +6.5402804     553.2163     661.1363     565.8928     78.11638     156.1091      311.661      1.314     4.03     841.2805     54.92987      72.8045         6     0.903     0.515 -44.43   0
       472    155.4410    332.9246 307.8629825  +6.5442491     1139.428     1462.302     1304.071     77.99268     155.8615      311.661      1.395     4.15     840.5884     54.92987     178.0394        13     1.364     0.640 -46.09   0
       473    255.3704    332.7347 307.8214831  +6.5476567     727.1041     1134.733       1339.5     77.86878     155.8615     311.5681      1.661     3.79     837.2134     54.92987     133.1853         9     1.114     0.585 -43.66   0
       474    238.7240    327.3668 307.8285770  +6.5493185     2406.315     3524.171     3318.238     77.99268     155.8615     311.5991      1.489     3.79     837.5329     54.92987     441.5028        17     1.342     0.728 -49.10   0
       475    382.7865    326.6801 307.7687622  +6.5543963     8275.711     11612.77     12346.91     77.74469     155.6135     311.4441      1.489     3.76     834.7657     54.92987     1283.773        26     1.390     0.831 -43.41   0
       476    750.7238    322.4280 307.6160723  +6.5683642     60090.36     81941.07     84357.81     77.99268     155.8615     311.5991      1.467     3.78     837.4424     54.92987     10349.49        60     1.484     0.943 -44.62   0
       477    736.4158    326.2170 307.6218894  +6.5663259     950.9525     1453.014      1742.13     77.86878     155.5515     311.5681      1.459     3.88     837.5778     54.92987     195.9791        10     1.134     0.691 -26.61   0
       478    582.4202    322.5968 307.6859767  +6.5627140     392.3536     729.4312      709.848     77.74469     155.4894     311.4131      1.687     5.37     835.0621     54.92987     67.74194         5     1.101     0.741 -67.60   0
       479    422.3376    322.0376 307.7524892  +6.5576279     2731.571     3919.424     3682.234     78.11638     155.9234     311.6301      1.502     3.71     834.3621     54.92987     444.5524        20     1.396     0.757 -41.65   0
       480    985.7589    319.3466 307.5185438  +6.5774134     1723.438     2660.879     2682.263     77.99268     155.9234      311.661      1.564     3.78     837.0887     54.92987     272.7921        13     1.270     0.723 -47.37   0
       481    926.5224    318.7386 307.5431705  +6.5757061     2265.132     3200.996      3747.24     78.36319     155.9234     311.5991      1.512     4.11     837.1059     54.92987     330.9669        19     1.377     0.817 -44.35   0
       482    568.5044    319.2951 307.6918672  +6.5636153     1438.799     1863.636      1627.18     78.11638     156.4798     311.5061      1.321     3.86     834.6885     54.92987     294.3434        12     1.282     0.617 -39.13   0
       483    459.4666    318.3133 307.7371914  +6.5603995     1320.951     1758.048      1848.51     78.11638     156.0472      311.661      1.403     3.56     834.2751     54.92987     241.7852        11     1.174     0.586 -47.34   0
       484    408.8132    317.6563 307.7582533  +6.5589871     2144.585      2900.48     3086.382      77.4959     155.7995     311.3511      1.475     3.80      834.259     54.92987     379.9194        14     1.276     0.670 -46.03   0
       485    288.6180    317.5192 307.8081827  +6.5550453     678.9676     980.5419     946.3664     77.74469     155.5515     311.5371      1.529     4.58     835.9594     54.92987     102.2504         8     1.167     0.510 -40.05   0
       486    658.5847    316.3880 307.6545467  +6.5678040     267.4108     305.6024     181.8766     77.99268     155.5515     311.5681      1.286     4.67     835.9756     54.92987     72.63855         5     1.380     0.448 -45.83   0
       487    459.4483    312.3550 307.7373981  +6.5628588     995.6347     1309.377     1707.282     78.11638     155.7376     311.5991      1.489     4.45     834.0014     54.92987     162.1601         9     1.214     0.493 -39.24   0
       488    830.1993    311.6833 307.5834170  +6.5754322     1177.953     1674.266     1658.792     77.37122     155.3651     311.3201      1.466     4.25     837.2317     54.92987      183.371        11     1.243     0.607 -46.23   0
       489    962.4649    310.0760 307.5285282  +6.5804710     591.6014     797.3424     1060.139     78.23988     155.8615     311.5991      1.271     3.75     836.6649     54.92987     91.80432         6     1.182     0.342 -40.75   0
       490    439.7399    309.0438 307.7456951  +6.5635709      1249.47     1871.358     1702.447     77.99268     155.8615      311.754      1.369     3.83     833.8348     54.92987     234.3684        11     1.354     0.491 -42.23   0
       491    185.4446    308.9641 307.8513232  +6.5551411     2632.316     3517.878     3594.991     77.86878     155.7995     311.5371      1.415     3.46     839.3748     54.92987     418.5808        19     1.300     0.766 -44.93   0
       492    749.1562    307.0439 307.6172360  +6.5746638     6614.298     8990.851      9110.45     78.11638     155.8615     311.5061      1.445     3.80     836.5003     54.92987     1034.307        24     1.418     0.755 -44.24   0
       493    339.5484    307.0634 307.7873779  +6.5610568     680.3353     1053.851      861.157     78.11638     155.7995     311.5991      1.553     5.33     834.8436     54.92987     100.8503        10     1.506     0.532 -31.84   0
       494    220.9002    307.2958 307.8366523  +6.5570111     795.1129      1110.97     1100.108     78.11638     156.3563     311.4751      1.486     3.46     838.0389     54.92987     159.3815         8     0.955     0.697 -65.22   0
       495     81.4527    306.3362 307.8946048  +6.5527589       1180.2     1549.953     1707.377     78.11638     155.7995     311.5991      1.413     4.15     841.2279     54.92987     184.1097        12     1.275     0.636 -52.54   0
       496    765.6099    304.8090 307.6104757  +6.5761316     2953.323      3781.42     3439.956      77.6204     155.6756     311.5371      1.404     3.77     836.5234     54.92987       438.53        17     1.298     0.770 -54.12   0
       497    307.8318    301.2368 307.8007469  +6.5624069     558.9513     756.0525     420.3709     77.74469     155.6135     311.3821      1.347     4.51     835.1578     54.92987      121.564         7     1.171     0.494 -54.31   0
       498     68.7706    300.4320 307.9000703  +6.5547733      1615.82     2465.962      2914.25      77.6204     155.6135     311.3821      1.611     4.22     841.2585     54.92987     214.8282        15     1.378     0.719 -40.90   0
       499    355.1505    299.6976 307.7811436  +6.5646168     1929.115     3272.052     3449.541     78.11638     155.7995     311.7849      1.808     5.26     834.5109     54.92987     258.9005        22     1.668     0.873 -14.39   0
       500   1003.8304    295.7659 307.5118206  +6.5877462     5772.621     8589.383     9217.742     77.62039     155.6135     311.3821      1.548     3.76     836.0056     54.92987     815.7829        29     1.466     0.906 -44.62   0
       501    481.7432    295.8257 307.7286895  +6.5704237     2381.025     3073.781     3075.137     77.74469     155.8615     311.4751      1.334     3.79     833.2834     54.92987     389.8676        14     1.262     0.639 -52.93   0
       502    252.8755    292.7273 307.8238587  +6.5640906     546.0096     710.8808     1175.909     78.36319     156.1091      311.661      1.242     5.90     836.6928     54.92987     97.80396         8     1.440     0.681 -44.77   0
       503    244.3399    291.5551 307.8274434  +6.5642902     6586.675     9268.013     9481.468     77.99268     155.7995      311.723      1.472     3.56     837.0687     54.92987     1154.293        27     1.421     0.843 -43.68   0
       504    808.8069    289.9659 307.5930262  +6.5836902     644.2548     919.8198     902.6995     77.62039     155.6756     311.4131      1.447     4.15     835.9556     54.92987     103.1096         7     1.168     0.421 -33.44   0
       505    912.2870    289.4184 307.5500589  +6.5873406     695.1971     922.9539     702.9328     77.86878     155.6135     311.5061      1.357     3.49     835.7348     54.92987     123.2414         5     0.728     0.483  10.60   0
       506    763.8491    284.7263 307.6118761  +6.5843646     857.7579     1033.821       1102.3     78.11638     155.9234      311.661      1.293     4.11     835.4272     54.92987     147.2875         8     1.054     0.542 -36.02   0
       507    220.7083    284.5448 307.8374940  +6.5663973     718.1835     1075.266      746.249     77.99268     155.7376      311.754      1.477     4.57     837.9766     54.92987     124.2635         8     1.346     0.441 -50.11   0
       508    378.4987    282.4864 307.7720209  +6.5724991     1919.251     2768.498     2586.885     78.11638     156.2945      311.692      1.548     3.88     833.7679     54.92987      304.105        15     1.313     0.800 -54.23   0
       509    965.5720    280.8141 307.5282102  +6.5926548     1087.959     1423.876     2187.205     77.74469     155.6756     311.5371      1.677     4.14     835.2931     54.92987     195.7357        13     1.258     0.702 -47.77   0
       510    784.2838    282.3947 307.6034652  +6.5860040     485.3592      796.584     724.9313      77.6204     155.4894     311.3821      1.628     3.47     835.5215     54.92987     85.95264         5     0.752     0.461  15.74   0
       511    184.7917    279.5869 307.8525786  +6.5672475     458.3516     779.9175     1039.736     77.74469     155.6135     311.5371      1.096     3.39     839.1225     54.92987     88.65125         5     1.131     0.294 -54.32   0
       512    300.8484    278.2729 307.8044160  +6.5716551     1305.485     1663.231     1569.918     78.11638     155.9234      311.661      1.431     4.44     834.8822     54.92987     216.1704        12     1.415     0.555 -35.28   0
       513    148.1950    278.1532 307.8678277  +6.5666197     2097.307     2895.404     2506.809      77.4959     155.6756     311.3201      1.462     3.68     840.1324     54.92987     336.9661        16     1.335     0.709 -47.64   0
       514    557.9485    273.5999 307.6977771  +6.5821304     2441.547     3379.381     3364.039     77.37121     155.3651      311.165      1.424     3.52     832.7455     54.92987     402.8542        17     1.279     0.759 -44.17   0
       515    901.2285    272.5999 307.5552120  +6.5939186     1736.254     2888.148     3127.721     77.37122     155.6756     311.4441      1.905     4.90     835.2094     54.92987     291.4655        18     1.455     1.122  11.30   0
       516    721.5575    271.1323 307.6298969  +6.5885758     5558.106      7816.92     7677.727     78.11638     155.7995      311.692      1.495     3.95     834.6826     54.92987     921.2473        25     1.429     0.790 -41.59   0
       517    662.3786    271.1265 307.6544799  +6.5866164     2298.392     3087.975     3088.009     77.74469     155.6756     311.5681      1.478     4.34     833.9234     54.92987     318.2908        15     1.386     0.688 -44.10   0
       518    959.3041    270.7047 307.5311500  +6.5966215     726.9135     923.3463     1023.067     78.11638     156.4798     311.4751      1.487     4.13     834.8598     54.92987     120.1989         7     1.085     0.450 -57.49   0
       519    377.4771    265.4384 307.7730153  +6.5795034     782.8626     873.3953     692.1506     77.99268     155.9234     311.6301      1.319     4.68     833.6525     54.92987     130.0419         9     1.246     0.498 -40.19   0
       520    917.5521    263.3478 307.5487388  +6.5982783      1101.55     1489.842     1598.523     78.23988     155.7376     311.6301      1.482     6.22     834.8086     54.92987     145.0999        13     1.195     0.979 -34.15   0
       521    221.0417    256.6563 307.8382895  +6.5779221     2380.595     3470.011     3510.346     77.99268     155.7995      311.661      1.444     3.66     837.6244     54.92987     382.1824        18     1.506     0.692 -48.54   0
       522    863.6344    255.4652 307.5713991  +6.5997490     1816.164     2527.063     2935.895     77.99268     155.8615     311.6301      1.454     3.61     834.6736     54.92987     294.6042        14     1.207     0.706 -51.90   0
       523    754.1952    254.8591 307.6168813  +6.5963757      1737.85     2467.823     2357.644      77.4959     155.7376     311.4131      1.437     3.89     834.5764     54.92987     293.1104        16     1.401     0.698 -46.03   0
       524    242.9498    250.2751 307.8294030  +6.5812863     601.5253      752.265     167.7659     78.11638     155.9234     311.6301      1.368     4.81     836.7339     54.92987     121.7604         7     1.157     0.566 -62.00   0
       525    454.9501    246.4402 307.7414689  +6.5899224     25603.06     35719.91     36933.59     78.23988     155.8615     311.5681      1.475     3.73     832.3195     54.92987     4120.482        41     1.480     0.882 -43.30   2
       526    460.6986    240.8641 307.7392673  +6.5924156     1638.599     2352.082     2441.944     78.11638     155.9234      311.661      1.636     3.88     832.1765     54.92987     268.0483        18     1.396     0.807 -43.98   3
       527    315.7272    247.9522 307.7992503  +6.5846682     801.1591     1170.505     1184.974     78.11638     155.9234      311.661      1.546     5.35     834.5862     54.92987     125.4199        10     1.332     0.640 -40.39   0
       528    277.7810    248.4129 307.8149971  +6.5832149     477.4318     849.2747     1206.294     77.86878     155.6135     311.5371      2.018     3.46     835.4269     54.92987     72.11993         5     0.784     0.440 -19.92   0
       529    781.0115    245.4001 307.6060566  +6.6011692     14340.98      20341.1     21609.98     77.74469     155.5515     311.4441      1.517     3.83     834.4062     54.92987     2324.594        43     1.629     0.986 -32.18   0
       530    719.7828    241.1760 307.6316324  +6.6008847     734.4633     953.7424     1004.127     77.86878     155.7376     311.5681      1.483     4.62     833.9076     54.92987     133.6408         8     1.328     0.457 -44.49   0
       531    143.2155    239.8774 307.8711789  +6.5822556     2580.299     3643.194     3831.647     77.74469     155.5515     311.4751      1.438     3.71     839.7503     54.92987     399.4396        19     1.362     0.763 -47.85   0
       532    117.8552    238.8929 307.8817460  +6.5818164     1198.331     1761.353     1940.335     77.99268     155.7995     311.8159      1.500     4.05     840.2443     54.92987     202.1449        10     1.113     0.590 -43.72   0
       533    773.7310    237.9210 307.6093302  +6.6040159     710.7043     1151.295       1428.5     78.23988     156.1091     311.5991      1.681     5.64     834.1863     54.92987      127.518         8     1.270     0.705 -29.82   0
       534    169.9868    237.9220 307.8601242  +6.5839552     605.2156     698.7527     758.1436     77.74469     155.5515     311.4441      1.165     3.71     839.0636     54.92987     162.3803         6     1.124     0.569 -40.81   0
       535    917.4270    235.5719 307.5497146  +6.6097418     1474.328     2322.739     2384.256      77.6204     155.6756     311.4751      1.652     4.27     833.8705     54.92987     226.9741        15     1.317     0.839 -60.41   0
       536    615.2831    234.4021 307.6752684  +6.6002162     480.0031     482.2704     584.7446      77.4959     155.4894     311.3201      1.418     3.91      832.044     54.92987     105.0546         5     1.045     0.642 -63.05   0
       537    299.4946    233.0631 307.8064913  +6.5902748     1259.755     1744.225     1531.814     77.99268     155.9854      311.692      1.560     4.62     834.8379     54.92987      186.803        11     1.228     0.733 -29.23   0
       538    579.1128    232.0616 307.6903718  +6.5999822     5257.732     7100.846     7250.997     78.23988     156.0472      311.692      1.404     3.71     831.8279     54.92987     913.2479        22     1.377     0.719 -41.88   0
       539    541.5999    232.1022 307.7059535  +6.5987202     2315.073      3164.34     2964.831     77.62039     155.4894     311.2581      1.381     3.76     831.7561     54.92987     404.1942        14     1.355     0.603 -48.59   0
       540    383.3842    231.4059 307.7716997  +6.5937502     1623.134     2350.036     2141.631     77.74469     155.6135     311.4751      1.406     3.94     833.2657     54.92987     282.4086        12     1.299     0.554 -40.86   0
       541    939.9095    229.1560 307.5405883  +6.6131341     2719.018     3842.461     4328.951     78.11638     155.7995      311.723      1.516     3.69     833.3647     54.92987      449.051        20     1.466     0.786 -42.42   0
       542    313.6022    229.3633 307.8007550  +6.5922718     879.7228     1484.272     1738.001     77.24632     155.6756     311.4441      1.869     4.27     834.5472     54.92987     174.8412        12     1.355     0.713 -59.53   0
       543    886.0290    228.5778 307.5629907  +6.6115908     11916.96     16784.83     16879.57     77.62039     155.6756     311.5061      1.483     3.82     833.6908     54.92987     1865.756        29     1.423     0.863 -44.99   0
       544    204.9958    229.3070 307.8458707  +6.5886785     749.3308     1096.058     1319.928     77.74469     155.5515     311.3511      1.537     4.34     837.7964     54.92987     111.5494         7     1.142     0.470 -48.81   0
       545    972.7239    226.3747 307.5270489  +6.6153673     10252.68     15053.37     16003.05     77.74469     155.7376     311.5991      1.598     3.89     832.5026     54.92987     1584.216        33     1.523     0.935 -50.81   0
       546    561.2264    228.5425 307.6979194  +6.6008414     1061.578     1302.429     1434.477     77.74469     155.9234     311.4441      1.361     4.68     831.7198     54.92987     152.8068        10     1.121     0.718 -51.17   0
       547    684.1000    226.4192 307.6469473  +6.6057943     3312.654     4706.576     5254.776     78.11638     155.7376     311.4131      1.512     3.65     832.8793     54.92987     543.9842        20     1.338     0.767 -48.09   0
       548     12.1388    225.5872 307.9261042  +6.5837822     27297.43     39637.37     40993.29     77.62039     155.6756     311.3511      1.546     3.82     843.0347     54.92987     4291.032        49     1.526     0.986 -40.54   0
       549    258.6089    226.4887 307.8236949  +6.5916279     1211.541     1654.702     1912.594     77.74469     155.5515     311.4131      1.302     3.90     835.9976     54.92987     203.6023        11     1.193     0.596 -41.79   0
       550    492.7787    221.4442 307.7265900  +6.6014989     2149.648     2896.911     3015.524      77.6204     155.7376     311.4441      1.393     3.85     831.5099     54.92987     382.8235        15     1.289     0.665 -39.71   0
       551    824.7268    218.1062 307.5888054  +6.6138853     2151.259     3100.156     3424.677     77.99268     155.9854      311.661      1.504     3.19     833.4152     54.92987     354.6512        18     1.334     0.728 -46.75   0
       552    504.6692    217.4185 307.7217851  +6.6035560     2999.267     4088.031     3541.601     77.74469     155.7376     311.5681      1.445     3.61     831.3974     54.92987     506.4965        17     1.252     0.751 -43.13   0
       553    877.0945    216.9890 307.5670878  +6.6160797     2041.408     2941.952     2823.256     77.74469     155.5515     311.4131      1.485     4.37     833.2032     54.92987     313.9225        16     1.447     0.661 -41.59   0
       554    736.2354    214.6212 307.6256827  +6.6123932     43864.66     60654.11     62720.58      77.6204     155.6756     311.3821      1.459     3.80      833.383     54.92987     7782.802        46     1.460     0.879 -45.05   0
       555    339.3097    214.2330 307.7905825  +6.5993738     6567.428     12249.21     13157.36     78.23988     155.7376     311.6301      1.988     6.89     834.1107     54.92987     795.1668        39     1.961     0.995 -65.32   0
       556    969.9854    213.1676 307.5286256  +6.6207295     3018.006     4568.575     5183.814     77.74469     155.6135     311.5371      1.629     3.54     832.0441     54.92987     447.5593        21     1.403     0.826 -47.42   0
       557    904.1110    211.6506 307.5560421  +6.6191776     7874.903     11074.51     11265.21     78.11638     155.6756      311.754      1.507     3.84     832.8908     54.92987     1231.152        29     1.455     0.838 -44.82   0
       558   1008.2117    212.0294 307.5127831  +6.6224627     1751.999     2850.054     3490.452     77.62039     155.6756     311.5061      1.753     4.88      831.256     54.92987     223.5554        17     1.396     0.766 -39.77   0
       559    447.6287    210.8897 307.7456982  +6.6043562     5546.858     7845.116      7966.03     78.23988     155.6135     311.5371      1.474     3.87     831.8499     54.92987      877.854        23     1.409     0.751 -44.21   0
       560    222.0217    207.9963 307.8395122  +6.5980438     690.9033     1084.584     1082.551     77.74469     155.5515     311.4131      1.462     4.11     837.3646     54.92987     121.7922         7     0.887     0.545 -49.22   0
       561    104.9114    202.3422 307.8883482  +6.5964743     5160.467     7364.754     7354.437     78.11638     155.7995      311.754      1.506     3.97     840.1683     54.92987     848.2306        23     1.444     0.768 -41.09   0
       562    924.2675    201.5829 307.5480034  +6.6240008     894.6542     1286.272     2137.587      77.6204     155.7995     311.5371      1.565     4.43     832.3307     54.92987     134.8358         8     1.141     0.490 -59.74   0
       563    275.2812    199.0053 307.8176894  +6.6035294     37598.39     53002.85     54792.73     77.74469     155.4273     311.4131      1.466     3.69     836.1158     54.92987     5807.746        50     1.506     0.932 -41.32   0
       564    250.6179    200.0868 307.8278983  +6.6022616     7372.683     10333.87     10698.33     77.86878     155.6135     311.5061      1.498     3.90     836.7106     54.92987     1176.516        26     1.436     0.827 -45.07   0
       565    601.5443    200.2218 307.6821161  +6.6138718     750.4045     1376.181     1548.076     77.74469     155.8615     311.4441      2.256     5.58     831.1378     54.92987     100.7341        10     1.427     0.615 -41.72   0
       566    704.3582    197.9991 307.6394791  +6.6181994      834.559     1016.509     925.6451      77.4959     155.5515     311.3201      1.262     3.87      832.283     54.92987       146.75         7     1.077     0.447 -38.43   0
       567    399.3600    194.4316 307.7662996  +6.6095462     56135.96     78524.37      80953.6     77.74469     155.6756     311.5061      1.507     3.94     832.5828     54.92987      9562.42        56     1.500     0.930 -45.36   0
       568    155.3341    195.7586 307.8676238  +6.6008737     4567.819     6461.659     6737.614     78.11638     155.7995      311.723      1.477     3.60     838.8638     54.92987     810.6265        23     1.388     0.800 -41.35   0
       569    416.5941    194.9652 307.7591226  +6.6098990     1578.338     2399.176     2380.286     77.37121     155.6135     311.4131      1.533     3.79     832.1342     54.92987     274.6026        14     1.378     0.647 -48.16   0
       570    303.3665    192.2011 307.8062505  +6.6072735     20191.99     28532.16     29607.94     77.37122     155.6756     311.3821      1.484     3.71     835.4777     54.92987     3212.633        40     1.459     0.917 -43.56   0
       571    536.9648    192.3530 307.7092062  +6.6149769     548.6766     685.1788     433.2762     77.74469     155.7995     311.5061      1.779     5.48     830.5916     54.92987     87.88452         8     1.665     0.508 -70.16   0
       572    738.6617    190.5090 307.6254782  +6.6224286     37089.19     50834.75     52236.77     78.11638     155.9854      311.692      1.482     3.86     832.3904     54.92987     6411.015        50     1.486     0.913 -44.99   0
       573    686.6711    192.2944 307.6470170  +6.6199682     1063.868     1339.223     1187.788     78.11638     155.9234     311.6301      1.454     4.89     831.8903     54.92987     172.7285        10     1.282     0.528 -44.77   0
       574    310.8022    192.2236 307.8031609  +6.6075117     2293.121     3761.552     4455.341     77.74469     155.5515     311.4441      1.985     4.12     835.2043     54.92987     387.7773        20     1.446     0.812 -47.38   2
       575    787.2432    190.8683 307.6052841  +6.6238896     1249.249     1949.985     2058.405     78.11638     155.7995      311.692      1.482     3.97     832.2877     54.92987       195.79        11     1.221     0.598 -40.61   0
       576     55.4643    188.0358 307.9093678  +6.6007309     9932.661      14323.4     15259.21     77.99268     155.7995      311.661      1.533     3.82     841.8981     54.92987      1469.85        32     1.488     0.908 -41.35   0
       577    562.1172    188.9484 307.6988711  +6.6172175     722.1128     938.2139     1633.837     78.11638     155.8615      311.692      1.573     5.03     830.5921     54.92987     123.3239         7     1.140     0.627 -69.60   0
       578     89.3711    186.1289 307.8953472  +6.6026495     1652.887     2264.791     2050.818     77.99268     155.8615     311.5991      1.446     3.57     840.5574     54.92987     260.7874        12     1.142     0.621 -45.41   0
       579    997.4394    184.7215 307.5181658  +6.6333812     1085.349     1732.913     2231.508     77.99268     155.9234     311.6301      1.726     5.20     830.5837     54.92987     169.9014        12     1.383     0.614 -47.52   0
       580    723.1817    178.5226 307.6323085  +6.6268643     631.8738      866.993     754.3967      77.6204     155.6135     311.5991      1.582     5.42       831.78     54.92987     102.8365         9     1.587     0.522 -50.77   0
       581    572.6725    175.0717 307.6949494  +6.6232970     915.0735      1264.89     1294.017     78.36319     155.9854     311.6301      1.495     3.63     830.3037     54.92987     198.8401         9     1.271     0.475 -53.64   0
       582    998.0682    171.0192 307.5183600  +6.6390591     2207.822     3651.482     4434.161     77.74469     155.7376     311.5681      1.787     4.31     830.1135     54.92987     306.6677        22     1.465     0.948 -47.22   0
       583    274.1071    165.2872 307.8193060  +6.6174107     33968.58     47877.26     50020.06     78.11638     156.2945      311.723      1.512     3.77     836.9712     54.92987     5071.061        59     1.734     0.960 -36.92   0
       584    581.1584    168.7190 307.6916361  +6.6262014     1080.141     1687.432     1972.369     78.11638     155.8615     311.5681      1.568     4.05     830.2355     54.92987     194.2402        11     1.225     0.601 -45.99   0
       585    589.4647    166.7764 307.6882503  +6.6272791     2237.753     3050.058      3066.47     77.74469     155.8615     311.5371      1.400     3.71     830.2801     54.92987     350.0119        16     1.272     0.719 -51.74   0
       586    333.5379    167.1127 307.7945566  +6.6186352      1197.56     1590.552     1510.496     77.99268     156.0472      311.661      1.331     3.25     834.6282     54.92987     224.6603         9     1.146     0.515 -55.43   0
       587    838.5464    167.1510 307.5847607  +6.6353802      973.147     1124.096     1123.275     78.23988     155.8615      311.692      0.823     1.09      831.076     54.92987       380.87         5     0.558     0.490  70.33   0
       588     19.4915    163.8088 307.9251236  +6.6095320     4829.063      6963.75     7207.491     77.74469     155.5515     311.3821      1.516     3.71     843.6004     54.92987      741.297        24     1.405     0.848 -40.16   0
       589    183.3444    163.0045 307.8570861  +6.6153296     989.2883     1299.749     1259.308      77.4959     155.6756     311.3511      1.456     4.67     838.0524     54.92987     146.6521         9     1.214     0.536 -54.30   0
       590    705.8377    161.6559 307.6400760  +6.6332529     8909.554     12287.76     12334.78     78.11638     155.9234      311.661      1.459     3.71     831.0493     54.92987     1398.251        28     1.379     0.849 -47.08   0
       591    259.9914    160.1164 307.8253430  +6.6190754     923.9656     1281.725     1072.011     77.74469     155.5515     311.4751      1.511     4.83     837.2886     54.92987     133.3269        12     1.458     0.640 -43.74   0
       592    116.5864    159.0685 307.8849495  +6.6147288     5192.512     7610.588     8035.095     77.62039     155.7376     311.5061      1.551     3.95     839.3994     54.92987     767.0163        26     1.413     0.870 -40.62   0
       593    578.2103    156.8638 307.6932566  +6.6309980     873.0912     1200.985     1057.481     77.62039     155.6756     311.4751      1.382     4.40     829.8871     54.92987      180.149         9     1.326     0.513 -39.30   0
       594    455.4804    156.1375 307.7442663  +6.6272216     1574.278     2140.893      1908.72     78.23988     155.9234     311.6301      1.409     4.82     830.6722     54.92987     256.6304        13     1.274     0.635 -47.29   0
       595    387.2998    154.9717 307.7726291  +6.6254362      4242.36     6837.471     6725.831     78.11638     155.6135     311.5681      1.702     3.77     832.6626     54.92987     645.5872        29     1.474     1.055 -56.92   0
       596    644.3405    156.1613 307.6658074  +6.6334822     767.6186      1129.85      1476.87     78.11638     155.9234      311.692      1.758     4.07     830.4699     54.92987     137.3587         6     0.988     0.479 -49.00   0
       597    563.9124    153.6755 307.6993028  +6.6318397      714.874      1238.87     1262.201     78.11638     156.1709      311.723      1.947     4.95     829.6494     54.92987     121.2512         9     1.578     0.440 -58.72   0
       598    351.6043    153.8628 307.7874948  +6.6247066     3595.651     5115.411     5324.643      77.4959     155.6135     311.3821      1.502     3.77     834.0179     54.92987     563.4269        20     1.394     0.761 -42.64   0
       599    106.0961    153.8493 307.8894823  +6.6165336      1871.61     2597.374     2721.303     77.99268     155.7995     311.7849      1.474     3.93     839.5513     54.92987     288.7821        15     1.308     0.716 -50.36   0
       600    742.0680    151.3921 307.6253667  +6.6386911     754.0389      1257.24     1693.869     77.62039     155.6135     311.5371      1.540     3.37     830.6614     54.92987     169.0172         7     1.091     0.544 -37.84   0
       601    667.6082    151.6660 307.6562911  +6.6361098     877.7277     1287.199     1092.144      77.6204     155.6135     311.4751      1.595     4.99      830.475     54.92987     133.5061        10     1.293     0.546 -54.13   0
       602    900.5284    151.1623 307.5595428  +6.6440323     562.5035     492.8046    -297.6485     77.99268     155.7995      311.692      1.254     3.51     830.1512     54.92987     105.5947         5     0.992     0.359   5.16   0
       603    998.8304    147.6091 307.5188214  +6.6487494     1388.125     2122.923     2161.456     77.62039     155.6756     311.4441      1.560     4.29     829.5328     54.92987     229.7484        14     1.383     0.702 -42.45   0
       604    724.7892    147.7635 307.6326659  +6.6396166     643.3111     1006.524     554.2727     77.62039     155.6756     311.3201      1.458     3.97     830.5025     54.92987     111.1371         6     1.099     0.410 -30.20   0
       605    203.6109    142.8303 307.8493431  +6.6243337     6249.063     8895.841     9234.673     77.62039     155.6756     311.4751      1.443     3.76     837.8618     54.92987     1007.082        25     1.418     0.807 -44.66   0
       606     86.2124    142.8138 307.8981122  +6.6204263     2474.099     3354.494     3617.499     77.99268     155.5515     311.5681      1.466     3.56     840.0016     54.92987     399.0582        18     1.309     0.768 -45.10   0
       607    665.3923    141.4492 307.6575523  +6.6402544     6815.403     9304.623     9332.664      77.6204     155.6135     311.2891      1.474     4.27     830.0078     54.92987     1143.672        24     1.356     0.804 -47.17   0
       608    813.6129    141.0499 307.5959883  +6.6453308     1269.031     1819.224     1762.149      77.4959     155.7995     311.3511      1.416     3.50     830.0333     54.92987     229.3651        12     1.191     0.649 -55.89   0
       609    617.5829    138.7536 307.6775042  +6.6397814     10546.99     14645.65     15908.88      77.6204     155.7376     311.3821      1.504     3.89      829.679     54.92987     1799.189        30     1.485     0.810 -46.95   3
       610    621.0917    130.2729 307.6763295  +6.6433991     59604.36      82497.8     85806.22     77.99268     155.9854      311.661      1.466     3.72     829.3701     54.92987      9092.13        62     1.492     0.956 -45.99   2
       611    252.0876    139.4810 307.8293173  +6.6273313     887.4273     1230.207     873.7593     77.86878     156.1091      311.723      1.339     4.75     837.4152     54.92987       154.77         9     1.071     0.597 -54.99   0
       612    555.5079    138.3230 307.7033069  +6.6378990     742.0497      1013.15     724.8832     77.86878     156.0472     311.6301      1.477     4.70     829.2192     54.92987     127.3229         9     1.293     0.485 -41.42   0
       613     16.2292    138.1646 307.9273395  +6.6200100     944.4574     1372.016     698.1173     77.74469     155.6135     311.4441      1.482     4.58     844.0024     54.92987     166.9444        12     1.501     0.564 -43.44   0
       614    344.5827    134.6625 307.7910541  +6.6323997     4090.692     6016.925     6488.418      77.6204     155.7995     311.4751      1.613     4.02     834.8281     54.92987     684.1823        27     1.662     0.758 -48.52   0
       615    526.4559    133.9068 307.7155236  +6.6387575     1892.547     2789.698     2994.169     77.99268     155.8615     311.8159      1.528     3.76     829.3022     54.92987     293.3193        13     1.293     0.603 -48.46   0
       616    990.8275    133.1664 307.5226264  +6.6544478     851.6114     1047.628     1056.621     77.62039     155.6135     311.4131      1.277     3.43      829.278     54.92987     194.5876         9     1.142     0.584 -70.38   0
       617    300.1466    124.0490 307.8098692  +6.6353026     4031.862     5877.911     6066.141     78.23988     155.8615      311.661      1.528     3.85     836.6095     54.92987      616.736        23     1.439     0.816 -51.57   0
       618    495.8215    120.8542 307.7286863  +6.6431288     723.2186     872.8415     689.4096     77.62039     155.8615     311.4441      1.229     3.19     829.5201     54.92987     111.5587         8     0.838     0.640 -41.00   0
       619    700.0604    118.6071 307.6439113  +6.6508343     1034.576     1340.423     1339.732      77.4959     155.6756     311.3821      1.461     4.33     829.1653     54.92987     163.7067        13     1.380     0.634 -52.39   0
       620    671.5897    117.4999 307.6557764  +6.6503475      1491.46     1813.163     1611.187     77.86878     155.4894     311.4131      1.341     3.72     829.0527     54.92987     253.4397        11     1.228     0.561 -49.10   0
       621      2.3910    106.2379 307.9341597  +6.6327284     30245.68     57050.95     74628.82     77.12122     138.1964     250.8269      2.495     6.30       845.41     54.92987     7994.423       200     4.278     1.845 -86.53  24
       622    685.4617    114.1614 307.6501246  +6.6521858     3580.638     4935.375     5241.997     78.11638     155.8615      311.661      1.518     3.82     828.9387     54.92987     562.5082        21     1.340     0.785 -45.14   0
       623    563.1360    114.5965 307.7009300  +6.6479477     519.4982     676.8638     973.8509      77.4959     155.6756     311.4131      1.423     5.31     828.7383     54.92987     85.58423         6     1.296     0.615 -37.57   0
       624     66.1554    108.2392 307.9076040  +6.6340307     455.2538     457.0301     252.2405     77.86878     155.8615     311.5371      1.213     3.47     840.4593     54.92987     87.26782         5     1.008     0.345 -46.03   0
       625    427.0871    105.4331 307.7577566  +6.6472111     4729.193     6377.631     5908.436     78.11638     155.7376     311.6301      1.453     3.87      830.686     54.92987     766.3082        20     1.416     0.743 -43.07   0
       626    881.8227    101.3483 307.5689718  +6.6639796     2413.109     3436.553     3380.908     77.62039     155.8615     311.5061      1.530     3.84     828.4522     54.92987     381.5099        18     1.277     0.816 -49.40   0
       627    899.7774    100.4767 307.5615413  +6.6649334     4190.635      5941.71     6263.743     77.74469     155.7376     311.5371      1.541     3.73     828.5026     54.92987     689.8706        21     1.415     0.775 -49.31   0
       628    580.0482    100.6827 307.6943684  +6.6542535     864.6724     1083.401     1226.954     78.11638     155.8615      311.661      1.406     4.79     828.3757     54.92987     120.0425         9     1.079     0.603 -53.01   0
       629    611.6183     99.0310 307.6813077  +6.6559831     564.8954     799.8584     443.7609     77.74469     155.6756     311.5061      1.515     4.57     828.2418     54.92987     96.42065         6     1.225     0.600 -50.91   0
       630    591.7521     99.2256 307.6895546  +6.6552435     1983.559       2795.9     3164.978     77.74469     155.9234     311.5371      1.535     4.50     828.2868     54.92987     312.9257        17     1.387     0.668 -42.40   0
       631    237.6557     98.5352 307.8366840  +6.6437548     991.4899     1484.046     1502.593     78.23988     155.7995     311.6301      1.449     4.79     837.5519     54.92987     147.3169         9     1.272     0.510 -47.50   0
       632    390.4608     97.1569 307.7732495  +6.6494100     2051.156       3083.7     2298.589     78.11638     155.8615      311.754      1.521     4.61     832.8342     54.92987     365.7778        15     1.370     0.663 -47.23   0
       633    138.4928     94.1942 307.8780246  +6.6422420     3715.415     5238.992     5296.225     77.74469     155.5515     311.4441      1.503     3.84     837.5969     54.92987     586.2244        20     1.332     0.811 -45.47   0
       634     20.3517     92.0800 307.9271739  +6.6391729     13568.66     19477.74     20981.51     78.11638     155.9234     311.5991      1.526     3.67     843.4741     54.92987     2018.157        36     1.452     0.950 -39.88   0
       635    286.7785     92.5945 307.8164757  +6.6478433     1495.574     2238.546     2569.805     77.74469     155.6135     311.4441      1.483     3.92     837.0939     54.92987     226.5618        13     1.241     0.642 -41.16   0
       636    560.1478     91.2914 307.7029495  +6.6574701     812.9436      1081.62     959.9171     77.99268     155.6756     311.8159      1.275     4.13     828.2412     54.92987      166.223         7     1.118     0.435 -53.97   0
       637    755.7415     90.5994 307.6217118  +6.6642428     847.1264     1348.803     1985.762     77.37122     155.5515     311.3201      1.753     4.23      828.089     54.92987     151.0175         9     1.260     0.545 -39.72   0
       638    547.8525     91.0372 307.7080661  +6.6571668     877.0698     1217.154     1386.966     77.99268     155.8615      311.661      1.262     3.96     828.2837     54.92987     139.5561         7     0.878     0.525 -44.67   0
       639    888.7166     87.5059 307.5665683  +6.6699226     687.4716     1099.885     1502.228     77.86878     156.2328      311.754      1.760     5.32     828.0779     54.92987      104.252         8     1.355     0.589 -39.53   0
       640    822.0799     86.2873 307.5942942  +6.6682202     6788.669     9661.658     10499.55     77.86878     156.1091      311.754      1.494     3.75     828.0122     54.92987     1084.983        29     1.409     0.908 -46.03   0
       641    412.4608     87.2172 307.7644421  +6.6542451     1251.685     1439.984     1007.373     77.74469     155.7995     311.4441      1.347     3.55     831.3759     54.92987     197.5676        12     1.152     0.661 -44.08   0
       642     91.8063     87.2118 307.8976535  +6.6435674     565.3398     790.0826      788.605     77.74469     155.6756     311.5371      1.297     4.36     837.7808     54.92987     86.57111         6     1.135     0.477 -62.92   0
       643    912.7355     86.8586 307.5566107  +6.6709844      894.893     1092.301     1254.084     78.23988     155.7995      311.661      1.579     2.48     828.0712     54.92987     392.4615         6     1.406     0.357 -58.56   0
       644    754.4791     86.0923 307.6223865  +6.6660617     775.2692     1419.401      2091.81     77.86878     156.1091      311.692      2.495     4.93     827.9969     54.92987     107.3005         8     0.973     0.780 -61.00   0
       645     45.2116     84.8482 307.9170893  +6.6429884     1048.244     1375.848     1083.675      77.4959     155.7376     311.3201      1.344     5.16     840.9271     54.92987     169.2246        12     1.303     0.664 -37.67   0
       646    767.2719     86.5882 307.6170550  +6.6662808     3578.683     5071.735     5114.388      77.6204     155.4894     311.4441      1.520     3.68     828.0204     54.92987     596.6493        20     1.414     0.742 -47.69   0
       647    649.5283     84.4015 307.6660458  +6.6632806     551.9938      770.185     565.2155      77.6204     155.4273     311.4751      1.540     5.40     827.9727     54.92987     89.19043         7     1.171     0.704 -52.13   0
       648    529.6617     84.7383 307.7158339  +6.6591632      1279.97      1593.95     1186.374     78.11638     155.8615      311.661      1.360     4.80     828.4411     54.92987     206.4624         9     1.127     0.581 -45.43   0
       649     60.5433     83.9263 307.9107511  +6.6438806     3396.882     4847.882     5009.369     77.99268     155.7995     311.5991      1.537     3.78     839.7662     54.92987     520.6796        21     1.421     0.792 -40.67   0
       650    421.9821     83.2446 307.7606193  +6.6562018     1066.434     1524.981     1403.958     77.74469     155.7376     311.3821      1.422     3.67     830.9288     54.92987     191.4393         8     1.140     0.510 -45.89   0
       651      2.7268     79.4774 307.9349187  +6.6437872     3209.826     4951.791     6313.069     78.36319     142.5978     256.0085      1.823     4.37     842.9451     54.92987     468.1774        30     1.730     1.118 -65.95  24
       652    584.4921     80.3490 307.6932009  +6.6627958     1497.071     1796.254     1582.889     77.99268     155.7376     311.8159      1.308     4.14     827.9797     54.92987     251.6697        11     1.219     0.586 -45.46   0
       653    255.6931     80.6740 307.8297889  +6.6517295     630.9468     743.1706     628.5902     77.99268     155.9854     311.5991      1.446     3.57     837.2365     54.92987     102.1614         6     0.869     0.486 -46.36   0
       654    711.8207     76.5867 307.6404263  +6.6685725     398.9288     480.1671     212.3356     77.86878     155.5515     311.5371      1.268     4.10     827.8397     54.92987      71.9458         5     1.478     0.325 -40.15   0
       655     75.5451     75.2807 307.9048091  +6.6479505     909.2228      1282.19     1457.322     78.11638     155.8615      311.661      1.527     5.35     838.3077     54.92987     127.6501        11     1.298     0.622 -49.30   0
       656    761.8493     74.2141 307.6197202  +6.6712099     2122.859     2812.552     2907.641      77.4959     155.7995     311.3511      1.430     4.02     827.7794     54.92987     342.1545        15     1.323     0.641 -49.00   0
       657    402.4182     74.4801 307.7690402  +6.6591697      1163.63     1593.814     1534.047     77.74469     155.5515     311.5371      1.425     4.75     832.4104     54.92987     185.5715        11     1.284     0.647 -42.37   0
       658    164.3672     74.5320 307.8679347  +6.6512220     550.0718     567.3704     485.0424     77.99268     155.8615     311.6301      1.299     3.95     837.1431     54.92987     104.5259         6     0.928     0.482  88.63   0
       659    653.1224     74.2665 307.6648907  +6.6675841     532.4698     686.1085     432.2596     78.23988     155.9234     311.5991      1.295     3.40     827.7946     54.92987     93.93524         5     0.978     0.343 -42.67   0
       660     99.6910     73.2138 307.8948475  +6.6496094     954.3591     1228.873     440.3777     77.86878     155.6135     311.4441      1.371     4.08     837.0879     54.92987     135.8934         9     1.034     0.663 -45.33   0
       661    683.6281     72.4803 307.6522763  +6.6693332     494.5616     843.1011     520.2769     77.99268     155.6756     311.5991      1.784     3.83     827.7593     54.92987     79.66779         5     1.051     0.401 -73.90   0
       662     88.4171     68.1246 307.8997017  +6.6513343     10266.19     14958.39     15226.68     77.62039     155.6135     311.5371      1.544     3.86     837.3903     54.92987     1622.404        32     1.429     0.927 -45.27   0
       663    417.5041     67.7640 307.7629973  +6.6624440     2830.314       3733.3     3735.757     78.23988     155.7376      311.754      1.386     3.55     831.3479     54.92987     503.1667        17     1.352     0.690 -40.21   0
       664    238.5334     67.5623 307.8373569  +6.6565710     806.2303     837.1329     1047.729     77.99268     155.7995      311.723      1.207     5.41      837.138     54.92987     131.9829         8     1.172     0.705 -39.86   0
       665    255.2095     62.0929 307.8306121  +6.6593844     1739.314     2243.412     3038.562     77.74469     155.4894     311.4441      1.493     4.20     837.0621     54.92987     276.5621        15     1.310     0.695 -40.55   0
       666    631.2111     59.9733 307.6744709  +6.6727582     20429.27     28692.14     29728.33     77.74469     155.6756     311.5061      1.455     3.70     827.5445     54.92987     3286.047        40     1.468     0.893 -46.35   0
       667    661.3043     60.9085 307.6619370  +6.6733703     568.3904     707.0685     867.6371     78.11638     156.3563     311.5991      1.298     4.31     827.5605     54.92987     76.77454         7     0.864     0.611  61.89   0
       668    940.7627     59.6740 307.5458705  +6.6831347     489.7866     497.2244     666.7559     77.99268     155.9234      311.661      1.302     4.37     826.7331     54.92987     89.40393         5     0.987     0.551 -50.92   0
       669    530.9719     56.0950 307.7162462  +6.6710321     5744.061     7816.716     7833.862     78.23988     155.6135     311.5681      1.403     3.62     827.9379     54.92987     988.5647        22     1.338     0.803 -44.91   0
       670    249.2119     56.4711 307.8332921  +6.6615056     2122.432     3006.016     4282.262      77.6204     155.5515     311.4441      1.634     3.73     836.9928     54.92987     327.9477        18     1.388     0.772 -49.63   0
       671    687.4158     54.5543 307.6513004  +6.6768596     625.4674      928.512     1423.285      77.6204     155.7376     311.4131      1.494     4.60     827.4461     54.92987      119.131         7     1.251     0.481 -41.11   0
       672    618.8813     53.7222 307.6798021  +6.6749299     1038.355     1612.024     1744.689     78.36319     156.1091     311.7849      1.647     5.06     827.4428     54.92987     156.8708        10     1.175     0.616 -45.74   0
       673    436.5166     51.7374 307.7556343  +6.6696926     25719.77     35636.44     36453.83     78.23988     155.9234     311.5991      1.487     3.80     830.6898     54.92987     4404.502        41     1.444     0.898 -43.55   0
       674    257.0804     52.2119 307.8301658  +6.6635260     10144.83     14763.05     15333.91     77.74469     155.5515     311.4751      1.510     3.80     836.9743     54.92987     1551.856        29     1.461     0.862 -42.87   0
       675     22.5386     51.8873 307.9276146  +6.6558389     2623.557     3775.441     3699.664     78.23988     156.0472      311.661      1.538     3.69     838.5867     54.92987        358.4        20     1.393     0.834 -49.52   0
       676    914.4568     51.4970 307.5570721  +6.6856407     2012.688     2828.739     2640.528     77.99268     155.7995     311.8469      1.498     3.74     826.5988     54.92987     316.0777        18     1.402     0.764 -45.77   0
       677    317.1070     52.3431 307.8052234  +6.6654705     1041.828      1704.25     2395.525     77.99268     155.8615     311.7849      1.743     4.86     836.8905     54.92987     141.5386        12     1.319     0.614 -38.62   0
       678    549.7091     51.1641 307.7086263  +6.6736901     790.7086     981.4995     844.1567     78.23988     155.7995      311.661      1.363     4.01     827.6765     54.92987     185.2625        10     1.323     0.806 -44.91   0
       679    521.6418     51.8485 307.7202644  +6.6724754     811.6132     945.7653     1000.185     78.11638     155.7995     311.5681      1.335     5.10     827.9706     54.92987     123.8844        10     1.119     0.657 -48.66   0
       680    617.3566     49.7603 307.6805678  +6.6765150     3505.132     4877.045     5354.684     77.86878     155.8615     311.5061      1.420     3.54     827.3751     54.92987     679.5482        18     1.373     0.686 -44.17   0
       681    244.9792     48.8670 307.8353052  +6.6645038     3276.067     4680.358     4696.374     77.74469     155.8615     311.5681      1.462     3.96     836.8989     54.92987     496.5216        20     1.388     0.761 -44.85   0
       682    298.2007     47.0141 307.8132564  +6.6670412     1087.391     1792.379     2195.972     77.74469     155.5515     311.4131      1.545     4.51     837.0333     54.92987     189.9297         9     1.178     0.525 -42.48   0
       683     61.0313     43.1401 307.9119170  +6.6607349     406.6043     438.6864     307.8541     77.86878     155.9234     311.5991      1.201     3.77      836.934     54.92987     77.20996         5     1.233     0.330 -64.33   0
       684    934.7206     41.8154 307.5489749  +6.6903080      1085.73     1803.445     1912.108     77.74469     155.6135     311.4441      1.741     4.75     825.8928     54.92987     154.3336        13     1.251     0.818 -44.44   0
       685    686.2049     41.0237 307.6522547  +6.6824056     2088.239     2713.519      2770.02     77.62039     155.6135     311.4751      1.408     3.99     827.1891     54.92987     311.2885        17     1.190     1.032 -46.50   0
       686     91.2355     42.1698 307.8994016  +6.6621434      533.502     724.8545     602.9617     77.74469     155.6135     311.4751      1.297     3.49     836.4246     54.92987     100.3079         5     1.014     0.347 -45.09   0
       687    251.8838     36.3149 307.8328571  +6.6699159     954.0222     1506.179     1932.338     77.86878     155.9854      311.723      1.636     5.17      836.794     54.92987     137.8143        10     1.197     0.631 -35.91   0
       688    197.8241     36.8069 307.8552998  +6.6679116     907.2621     976.6289     630.9152     77.62039     155.6756     311.4751      1.316     3.26     836.4405     54.92987     165.1768         8     0.846     0.632 -47.88   0
       689    174.5723     34.3325 307.8650426  +6.6681582      11797.5     16592.77      16864.7     77.74469     155.7995     311.5371      1.509     4.00     836.2321     54.92987     1941.814        33     1.427     0.907 -45.25   0
       690    518.8546     32.2459 307.7220772  +6.6804757     3234.419      4641.28     4469.856     78.11638     155.8615      311.661      1.475     3.96     827.6342     54.92987     535.5143        20     1.418     0.754 -45.46   0
       691    920.3669     31.6123 307.5552781  +6.6940457     4426.864     6362.437     6285.569      77.6204     155.6135     311.5371      1.522     3.62     825.6791     54.92987     673.5677        24     1.359     0.891 -42.94   0
       692    721.1215     30.3926 307.6381021  +6.6879522     2297.273     3275.175     3445.416     77.74469     155.3651     311.4131      1.482     3.99      826.988     54.92987     393.8321        18     1.394     0.738 -52.51   0
       693    457.1008     30.5829 307.7477895  +6.6791104     2057.525     3010.686     3003.897     78.11638     155.6756     311.4441      1.544     4.28      829.511     54.92987     284.9973        16     1.306     0.746 -38.78   0
       694    985.0030     27.8542 307.5285475  +6.6977344     2087.256     3262.159      3143.29      77.4959     155.6756     311.2581      1.588     3.86     824.6926     54.92987     291.6065        20     1.369     0.860 -52.77   0
       695    704.4001     24.5224 307.6452452  +6.6898214     8116.418     11312.16     11525.17     77.37122     155.2408     311.3511      1.472     3.86     826.8965     54.92987     1433.461        27     1.410     0.815 -47.16   0
       696    624.6066     23.8243 307.6784211  +6.6874633     4100.922     5556.509     5913.341     77.62039     155.6756     311.4751      1.429     3.88      826.924     54.92987      713.946        19     1.325     0.743 -50.08   0
       697    326.5765     23.3578 307.8022593  +6.6777520     996.3823      1416.61       1740.7     77.74469     155.7376     311.4131      1.523     4.59     837.2113     54.92987     178.7637        11     1.243     0.596 -49.38   0
       698    380.2553     22.2863 307.7799936  +6.6799805     791.2663     926.1344     336.8923     78.11638     155.7995     311.7849      1.297     3.28     835.2215     54.92987      155.137         9     0.949     0.651 -61.92   0
       699    697.5190   1022.0308 307.6148683  +6.2777614     512.3466     713.2112     414.4202     77.99268     144.9483     259.3434      1.658     3.98     858.3478     54.92987      79.1684         5     1.350     0.336 -40.49  16
       700    424.7452     20.1291 307.7615817  +6.6823506     6970.526     9847.086     10101.08     77.99268     155.7995     311.5991      1.484     4.03     831.7903     54.92987     1195.889        24     1.395     0.803 -42.84   0
       701    671.6580     18.7316 307.6590421  +6.6911265     1055.242     1447.121     1167.086     78.23988     155.7995     311.5991      1.438     4.29     826.7843     54.92987     180.1334        10     1.201     0.577 -44.00   0
       702    500.5764     17.2981 307.7301706  +6.6860397     1187.353     1679.977     1527.827     78.23988     155.6135     311.4751      1.489     5.22     827.4686     54.92987     178.1865        12     1.248     0.673 -46.32   0
       703    610.4357   1019.9924 307.6510885  +6.2757165     498.9752     686.2613     492.5413     77.62039     155.6756     285.2294      1.631     4.45      860.196     54.92987     76.07678         5     1.008     0.558 -14.55  16
       704    292.1700   1014.9733 307.7833800  +6.2672183     14656.57     23407.42     25818.02     77.62039     155.6756     311.4751      1.743     4.04     859.2999     54.92987     1791.953        60     2.014     1.114 -39.38  16
       705    416.2341     15.8486 307.7652609  +6.6838348     758.4896     969.7404     1371.627     77.86878     155.8615     311.5681      1.551     4.39     832.5405     54.92987     165.1759         8     1.172     0.469 -38.18   0
       706    541.8387   1016.1556 307.6796940  +6.2750250     4002.674      6696.06     7519.784     77.86878     155.7995     311.5371      1.770     3.79     860.1161     54.92987     492.5917        33     1.578     1.092 -48.94  16
       707    746.3802   1015.5110 307.5948006  +6.2820716      7246.79     12387.53     13103.38     77.99268     155.6135     311.5061      1.849     4.13     858.1141     54.92987     765.9121        43     1.658     1.225 -42.57  16
       708    512.0833   1017.2719 307.6920095  +6.2735767     1056.535      1707.21     1906.057     78.36319     156.1709     308.8915      1.821     4.56     859.6995     54.92987     138.8999        14     1.278     0.746 -28.07  16
       709    456.1988     13.1296 307.7487476  +6.6862860     548.1259     922.1079     1026.884      77.4959     155.4273     311.4751      1.963     3.33     829.4611     54.92987     114.1552         5     0.968     0.332 -46.18   0
       710    416.7107   1015.0999 307.7316749  +6.2713062     926.2919     1400.172     1695.056     78.11638     156.2328     311.5991      1.540     4.72     859.0713     54.92987     125.3047        12     1.199     0.717 -66.72   0
       711    807.9690   1014.2883 307.5692725  +6.2846154     971.6577     1591.808     1892.845     78.23988     155.6756     311.5681      2.006     5.74     857.3774     54.92987     135.7172        12     1.366     0.678 -38.52   0
       712    263.6079   1012.2775 307.7953271  +6.2673810     979.1715     1580.839     1192.152     77.74469     155.3651     311.4441      1.829     5.89     858.4353     54.92987     113.0387        13     1.321     0.738 -34.84   0
       713    907.7522   1008.9390 307.5280245  +6.2901247     6963.868     13417.35     14525.97     78.11638     155.7995      311.692      2.043     4.63      856.051     54.92987     772.4677        50     1.728     1.410 -55.63   0
       714    539.0131   1008.3853 307.6811262  +6.2781394     8108.891     13205.78     14725.17     77.99268     155.5515     311.5681      1.796     4.08     859.9495     54.92987     901.5275        37     1.592     1.082 -41.35   0
       715    881.3946   1005.0816 307.5390953  +6.2908457     10141.36     19239.27     21164.97     77.74469     155.4273     311.4131      2.032     4.48     856.1442     54.92987     1081.103        58     1.792     1.442 -35.56   0
       716   1003.0351   1004.4750 307.4886149  +6.2951165     3509.205     7182.599     7569.026     77.99268     155.9234     311.6301      2.066     4.92     852.0465     54.92987     406.7875        40     1.693     1.389 -44.90   0
       717    594.1707   1005.2618 307.6583318  +6.2812587     1289.168      2092.09     1895.396     77.86878     155.8615     311.5991      1.722     5.44     859.9776     54.92987     208.6506        16     1.329     0.885 -43.29   0
       718    525.5217   1004.1793 307.6868673  +6.2794281     4196.267     6772.074      7675.93     77.74469     155.5515     311.5991      1.813     3.94     859.7278     54.92987     474.8075        29     1.534     1.072 -28.94   0
       719    634.9777   1003.4578 307.6414508  +6.2833567     1263.423     1996.529     2431.855     77.74469     155.8615     311.4441      1.843     5.00     859.2772     54.92987     176.5884        16     1.365     0.874 -51.36   0
       720     59.6813   1003.9394 307.8802608  +6.2640311     669.4089     1337.613     1652.936     78.23988     155.8615     311.5991      2.125     5.46     854.7266     54.92987     88.52728         8     1.088     0.773 -48.01   2
       721    478.6781   1000.7526 307.7064285  +6.2792878     2216.142     3576.275     3742.593     78.11638     155.9234     311.5681      1.774     4.32     859.1515     54.92987     301.8521        21     1.360     0.973 -40.76   0
