#   1 NUMBER                 Running object number                                     
#   2 X_IMAGE                Object position along x                                    [pixel]
#   3 Y_IMAGE                Object position along y                                    [pixel]
#   4 ALPHA_J2000            Right ascension of barycenter (J2000)                      [deg]
#   5 DELTA_J2000            Declination of barycenter (J2000)                          [deg]
#   6 FLUX_APER              Flux vector within fixed circular aperture(s)              [count]
#   9 FLUXERR_APER           RMS error vector for aperture flux(es)                     [count]
#  12 FLUX_RADIUS            Fraction-of-light radii                                    [pixel]
#  13 FWHM_IMAGE             FWHM assuming a gaussian core                              [pixel]
#  14 BACKGROUND             Background at centroid position                            [count]
#  15 THRESHOLD              Detection threshold above background                       [count]
#  16 FLUX_MAX               Peak flux above background                                 [count]
#  17 ISOAREA_IMAGE          Isophotal area above Analysis threshold                    [pixel**2]
#  18 A_IMAGE                Profile RMS along major axis                               [pixel]
#  19 B_IMAGE                Profile RMS along minor axis                               [pixel]
#  20 THETA_IMAGE            Position angle (CCW/x)                                     [deg]
#  21 FLAGS                  Extraction flags                                          
         1      1.6643     35.5298 307.9345551  +6.6325458       177941     210774.1     228014.2      74.2622       133.03     247.7161      1.150    10.47     912.1714     56.70357     56720.77       180     2.303     1.326 -85.98  28
         2     20.5845     21.0695 307.9271870  +6.6391517      11308.8     18833.72     20248.53     80.12678     160.7664     321.5967      1.769     4.13     910.7556     56.70357     1536.242        43     1.732     1.032 -31.92   0
         3    822.3663     15.7741 307.5942257  +6.6682379     5934.116     9243.181     9388.053     80.12678     160.7024     321.4687      1.640     3.98     884.1288     56.70357     999.8593        27     1.610     0.852 -22.45   0
         4    767.5095     16.0997 307.6170089  +6.6662701     3034.801      4913.62     5190.689     80.63878     161.2776     321.6607      1.685     4.27     884.7614     56.70357     554.8304        24     1.630     0.820 -22.53   0
         5    529.5134     13.8656 307.7159758  +6.6592260     1123.837     1907.509     2470.143     80.63878      161.086     321.7247      1.853     5.54     887.4677     56.70357      190.125        15     1.501     0.869 -20.64   0
         6     45.2601     13.9081 307.9171788  +6.6429388     890.9594     1438.775     787.9285     80.51109     160.8304     321.7886      1.678     5.11     908.0981     56.70357     130.0645         8     1.153     0.640 -41.62   0
         7     60.8875     12.8651 307.9107215  +6.6438956     2969.689      5030.77      4632.83     80.63878      161.086     321.7247      1.757     4.60     906.1551     56.70357     368.0711        26     1.591     0.936 -22.44   0
         8    584.8806      9.6068 307.6931144  +6.6628389     1236.632     1734.575     1373.716     80.25509     160.4461     321.5007      1.533     4.52     887.3071     56.70357     203.7582        14     1.344     0.729 -27.24   0
         9      3.2728      8.4409 307.9348098  +6.6437808     2356.461     3618.416     3894.521     80.51109     152.8937     272.3283      1.649     4.86     913.5305     56.70357     325.3549        19     1.517     0.795 -22.83  24
        10    711.2138      6.2033 307.6407358  +6.6684725     428.5344     747.6437     811.5383     80.25508     160.5743     307.1303      1.700     3.48     885.6837     56.70357     75.08557         5     1.004     0.348 -43.34  16
        11    762.1843      3.4800 307.6196485  +6.6713011     1922.438     2988.775     3289.333     80.25509        154.7     274.9229      1.625     4.09     884.4287     56.70357     296.4528        20     1.514     0.793 -30.19  24
        12    402.5346      3.8325 307.7690768  +6.6591089     869.4516     1387.575     1167.169     80.51109     157.7949     280.0399      1.591     4.92     894.6036     56.70357     119.6228         9     1.320     0.519 -27.24  16
        13     99.4987      2.2937 307.8950392  +6.6495589     905.7262     1510.151     1778.547     79.86955     142.0806     257.6514      1.885     6.10     901.5096     56.70357     117.9243        12     1.436     0.729 -26.56  24
        14    229.7238    998.2108 307.8071024  +6.2428619     1269.951     2029.111     1774.915     80.25509     160.5102     321.5007      1.664     5.69     920.1149     56.70357     173.2324        16     1.572     0.726 -39.19   0
        15    597.2249   1022.5612 307.6537012  +6.2451307      1908.44      2811.33     2752.592     80.25509       143.45     259.7989      1.595     4.64     920.6666     56.70357     273.1769        19     1.502     0.812 -16.78  24
        16    794.9520    989.9720 307.5727082  +6.2651931     12893.52     21617.45     22488.98     80.25509     160.8943     321.6287      1.779     4.44     914.6072     56.70357     1718.461        46     1.746     1.069 -26.84   0
        17     65.5298    990.2415 307.8755400  +6.2406328     7290.374     12036.73     12984.79     80.51109     160.8943     321.7567      1.777     4.47     919.5391     56.70357     1052.656        34     1.719     0.955 -29.60   0
        18    578.3550    980.8493 307.6629465  +6.2617168       151200     244379.6     259284.6     80.63878     160.7664     321.6927      1.738     4.29     919.3823     56.70357     22370.31       101     1.849     1.126 -26.06   3
        19    580.1030    973.6653 307.6624638  +6.2647407     69750.52     114994.5       122568     80.63878     160.9583     321.7247      1.740     4.33     919.1009     56.70357     9559.371        80     1.871     1.109 -26.77   3
        20    212.3508    983.6484 307.8148094  +6.2482893     3591.518     5703.712      5738.49     80.63878     160.7664     321.6927      1.726     4.62     920.0591     56.70357     474.9121        25     1.653     0.882 -26.32   0
        21    395.6998    983.6016 307.7386892  +6.2544617     710.9391      927.065     686.0751     80.12678     160.6383     321.4047      1.347     3.98     919.6634     56.70357     117.2011         6     0.917     0.493 -40.76   0
        22    754.4305    982.6888 307.5897786  +6.2668458      883.346     1464.917     1411.469     80.76627     160.7024     321.6287      1.769     4.74     915.3575     56.70357     160.4539         8     1.326     0.587 -13.99   0
        23    789.3028    977.7817 307.5754652  +6.2700363     6382.749     10814.81     11080.54     80.51109     160.7664     321.4367      1.790     4.51     914.4512     56.70357     816.9836        39     1.713     1.115 -26.30   0
        24    887.3226    974.6521 307.5348724  +6.2746006     1396.392     2343.698     2997.852     80.76627     160.9583     321.6927      1.810     6.61     912.0038     56.70357     196.8292        21     1.752     0.864 -24.55   0
        25    209.8597    973.0470 307.8162036  +6.2525815     2183.494     3408.083     3568.063     80.63878     160.8943     321.7886      1.654     4.61     919.9868     56.70357     328.8323        18     1.524     0.737 -29.43   0
        26    713.1417    970.1982 307.6073435  +6.2706218     6829.769     11439.19     12250.28     79.99827     160.6383     321.4047      1.748     4.52     915.8776     56.70357     1067.166        36     1.706     0.982 -24.71   0
        27    569.2717    969.2424 307.6671105  +6.2662038     3948.529     6674.344     7834.993     80.51109     160.8943     321.7247      1.869     4.46     919.1772     56.70357     573.8446        30     1.681     1.012 -32.38   0
        28    428.0110    970.3124 307.7257244  +6.2610303     3778.393     6214.715     6778.146     80.25508     160.6383     321.5647      1.680     4.33     919.6489     56.70357     603.3815        25     1.661     0.831 -30.41   0
        29    705.3041    969.2024 307.6106314  +6.2707708     1131.027     1783.361     2592.678     80.25509     160.5743     321.3727      1.945     6.15     916.0257     56.70357      147.673        17     1.628     0.761 -30.27   0
        30    745.2010    965.4309 307.5941934  +6.2736611      1280.16      2026.59      2251.19     79.99827     160.7024     321.5007      1.664     4.64     915.0347     56.70357     172.7326        14     1.269     0.753 -32.41   0
        31    952.6661    959.7795 307.5082425  +6.2829196     6141.352      10739.8      10802.5     80.25509     160.8943     321.5647      1.853     4.28     909.4341     56.70357     755.6956        37     1.695     1.111 -27.91   0
        32    712.3024    957.8733 307.6081084  +6.2756812     2564.556     4482.972     6140.083     80.25509     161.0222     321.6927      2.297     8.45     915.5571     56.70357     375.4088        26     2.330     0.857 -32.92   2
        33    237.1427    959.7608 307.8053273  +6.2589819     1398.074     2131.642     2068.772     80.63878     160.9583     321.6927      1.553     4.33      919.885     56.70357     187.3226        17     1.400     0.779 -28.01   0
        34    728.0989    956.9026 307.6015824  +6.2766099     971.0216     1747.278     2095.278     80.63878     161.3413     321.5327      2.173     6.16     915.1641     56.70357     141.4689        14     1.376     0.943  -7.72   0
        35    435.6962    958.4439 307.7229356  +6.2661869     928.8567     1561.044     1654.806     80.63878     160.8304     321.8526      1.759     5.13     919.5625     56.70357      163.048         9     1.142     0.652 -11.73   0
        36    358.9865    955.3309 307.7548902  +6.2648998     1769.503     2835.135     2875.702     80.12678     160.7664     321.5647      1.630     4.70     919.5832     56.70357     283.1007        20     1.578     0.856 -27.29   0
        37    969.5647    952.2863 307.5014784  +6.2865762     586.7039     1130.671     1155.458     80.63878     160.7664     321.6927      1.969     5.97     908.6596     56.70357     98.37006         7     1.532     0.654 -33.91   0
        38    745.9767    944.8697 307.5945658  +6.2821743     7230.869     12125.09     12873.98     80.25509     160.7664     321.6607      1.763     4.31     914.4337     56.70357     1050.296        35     1.713     0.987 -23.58   0
        39    541.4242    945.3904 307.6794798  +6.2751170     4009.829     6633.365      7073.85     80.25509     160.7024     321.5647      1.786     4.35     919.1273     56.70357     527.3172        29     1.655     0.976 -26.32   0
        40    511.6996    946.6428 307.6917790  +6.2736047     1006.268     1510.713     1439.809     80.63878     160.7664     321.9165      1.505     4.93     919.2192     56.70357     158.6199        11     1.293     0.741 -27.01   0
        41    291.6791    944.0435 307.7832181  +6.2673004     14045.41      23421.6     25766.11     80.63878     160.8943     321.6927      1.810     4.57     919.7258     56.70357     2161.071        51     1.989     0.971 -30.38   0
        42    807.2291    944.1006 307.5691589  +6.2845380     975.5263     1679.057      1654.09     80.63878     160.6383     321.7247      1.748     5.63     913.2008     56.70357     158.4202        12     1.499     0.595 -30.16   0
        43    415.6826    944.6193 307.7317135  +6.2712225     1051.647     1520.477         1331     80.25509     160.5743     321.6287      1.608     4.31     919.5414     56.70357     167.5427        11     1.156     0.759 -18.58   0
        44    262.6434    941.7758 307.7953503  +6.2672618     1030.255     1728.989     1985.986     80.12678     160.7664     321.5007      1.812     3.88     919.7659     56.70357     179.2631         9     1.252     0.519 -53.74   0
        45    907.2924    938.2624 307.5278079  +6.2902880     8019.533      13528.8     14551.22     80.63878     160.9583     321.7567      1.810     4.46     910.2693     56.70357     1109.056        40     1.759     1.067 -23.06   0
        46    538.6039    937.6496 307.6809127  +6.2782178     7784.281     12755.25     13820.51     79.99827     160.7024     321.3087      1.743     4.38     918.9565     56.70357     1164.991        34     1.688     0.936 -26.18   0
        47    880.8383    934.4938 307.5389192  +6.2909609      11564.4     19924.32     21056.52     80.76627     160.7664     321.7886      1.868     4.49      910.562     56.70357     1506.686        50     1.802     1.143 -23.65   0
        48   1002.5355    933.9563 307.4884058  +6.2952417     4618.883     7797.156     8557.693     80.63878     160.8304     321.6927      1.828     4.30     906.6288     56.70357     564.7773        32     1.687     1.045 -25.63   0
        49    593.6150    934.8361 307.6581670  +6.2812207     1478.985      2465.12     2476.193     80.25509     160.7024     321.5007      1.715     4.39     917.3003     56.70357     229.6617        14     1.424     0.632 -23.52   0
        50    525.3195    933.4644 307.6865701  +6.2795005     3965.323     6707.681     7625.289     80.89356     160.9583     321.6607      1.914     4.78     918.8589     56.70357     571.0464        35     1.888     1.127 -11.39   0
        51    634.8984    932.8596 307.6410926  +6.2834179      1367.46     2071.079     2229.974     80.38319     160.8304     321.8206      1.662     4.57     916.3484     56.70357     232.0436        16     1.469     0.786 -25.64   0
        52     59.9205    931.8773 307.8798530  +6.2645344     786.2159     1472.342     1908.999     80.89356     161.1499     321.8526      1.904     4.94     918.7181     56.70357     156.8412         9     1.299     0.532 -22.97   0
        53    478.1625    929.8889 307.7062709  +6.2793968     1913.021     2858.885     2783.268     80.63878     160.8304     321.7247      1.643     4.69     918.9026     56.70357      302.441        17     1.523     0.722 -27.68   0
        54    912.6112    922.0302 307.5261467  +6.2971659     40469.68     68629.02     73374.32     80.12678     160.6383     321.5327      1.801     4.38     909.8557     56.70357     5587.867        74     1.847     1.182 -26.15   0
        55    318.2723    923.0613 307.7728886  +6.2768537     567.5354     866.1469     677.3242     80.76627     160.8943     321.7567      1.376     4.74     919.5969     56.70357     94.16089         7     0.954     0.667  89.84   0
        56    219.9405    920.3082 307.8138086  +6.2746888     1786.463     3246.461     3701.651     80.51109     160.8304     321.8526      1.940     5.28      919.644     56.70357     289.2563        19     1.756     0.702 -30.92   0
        57    618.7701    918.4606 307.6482761  +6.2888219     869.4244     1209.887     1197.304     80.38319     160.8943     321.6607      1.508     5.87     916.0023     56.70357     137.1447        11     1.497     0.649 -37.53   0
        58    107.9026    919.4860 307.8603531  +6.2712629     578.3768     862.0595     416.8644     80.63878     161.2776     321.7567      1.527     4.82     918.8131     56.70357     109.6622         6     1.178     0.574 -28.05   0
        59    758.7977    913.7240 307.5902941  +6.2954590     6036.051     10107.41     11329.26     80.12678     160.3819     321.5967      1.809     4.19     913.3847     56.70357     893.7169        40     1.812     1.117 -40.55   0
        60    810.5211    915.8039 307.5687471  +6.2963283     2358.203     3982.562     4547.875     80.25509     160.3819     321.4687      1.752     4.32     912.2234     56.70357     329.9203        23     1.550     0.853 -30.35   0
        61    228.1409    912.6550 307.8106637  +6.2781232     1234.233     2102.562     1797.847     80.76627     160.8943     321.6927      1.834     4.61     919.5955     56.70357     201.1079        18     1.566     0.805 -28.86   0
        62    545.5676    912.7761 307.6788631  +6.2887182     940.7765     1361.923     1339.409     79.99827     160.7664     321.5007      1.495     5.65     918.0895     56.70357     166.2685        11     1.261     0.713 -29.60   0
        63    192.4517    912.2239 307.8254962  +6.2771022     794.5542     1306.344     1324.566     80.12678     160.8943     321.5967      1.621     4.47     919.5268     56.70357     121.6998         6     1.048     0.541 -21.08   0
        64     53.0585    910.6196 307.8834248  +6.2730779     2580.334     4078.524     3964.208     80.25508     160.7664     321.5007      1.675     4.42     918.6706     56.70357      336.186        23     1.431     1.005 -30.51   0
        65    946.9744    908.8154 307.5123236  +6.3037670     6159.709     10671.11     10930.24     80.38319     160.7664     321.6287      1.847     4.58     908.5557     56.70357     768.6201        37     1.748     1.054 -24.44   0
        66    629.2359    903.0078 307.6444531  +6.2955506     773.5297     1454.468     1280.657     79.99827     160.7024     321.4367      1.889     4.67     915.2797     56.70357      128.808         9     1.261     0.615 -34.46   0
        67    920.8019    900.4348 307.5234738  +6.3063534     1951.801     3186.294     3363.578     79.74062     160.7024     321.5007      1.693     4.49     909.3755     56.70357     270.6846        20     1.482     0.832 -21.07   0
        68    780.4846    897.1619 307.5818484  +6.3030201     1194.272     1924.531     2141.932     80.63878     160.8304     321.6287      1.752     5.23     912.4053     56.70357     190.9317        17     1.513     0.902 -20.81   0
        69    641.4896    896.3977 307.6395886  +6.2986891     4486.527     7153.287      7900.87     79.99827     160.5743     321.4367      1.726     4.38     914.8314     56.70357     620.0635        28     1.629     0.899 -26.75   0
        70    253.5215    896.5143 307.8006736  +6.2856379      4250.68     6845.889     7330.759     80.63878     161.2137     321.7886      1.751     4.45     919.5276     56.70357     583.4791        28     1.630     0.911 -23.98   0
        71    463.6944    894.9117 307.7134627  +6.2933496     1009.946     1794.958     1246.182     80.63878     161.3413     321.7567      1.710     5.29     918.2353     56.70357     179.3099        12     1.487     0.685 -23.55   0
        72     22.3401    894.1487 307.8967387  +6.2788427      2073.29     3368.096     3786.261     80.63878     160.8304     321.6927      1.748     4.45      918.683     56.70357     292.5309        18     1.514     0.816 -25.87   0
        73    873.2744    892.8183 307.5434657  +6.3079115     1055.931     1410.885     1714.093     80.12678     160.7024     321.5967      1.514     4.11     910.0592     56.70357      180.722        12     1.261     0.698 -34.50   0
        74    944.5312    890.2925 307.5139625  +6.3113315     645.3531     1182.967     943.1668     80.63878     161.0222     321.6927      1.923     6.16     908.2819     56.70357     93.89819         9     1.200     0.928  12.49   0
        75    566.0078    888.8923 307.6711841  +6.2992611     1520.623     2439.118     2806.013     80.25509     160.5742     321.5007      1.777     5.65     916.5084     56.70357     216.9594        19     1.525     0.828 -27.24   0
        76    289.0450    890.1835 307.7861390  +6.2894437     848.1752     1210.412     2088.703     80.12678     160.7664     321.4687      1.468     3.01     919.5987     56.70357     138.1755         8     0.818     0.655 -43.69   0
        77    997.5441    887.6290 307.4920391  +6.3141986     832.0104     1558.765     1856.894     80.38319     160.9583     321.5967      3.900     7.76     905.6311     56.70357     126.7815        16     2.059     0.817 -57.37   0
        78    605.5201    885.2488 307.6549010  +6.3020876     1260.127     2175.689     2043.148     80.63878     160.9583     321.6927      1.699     6.01     914.9867     56.70357      180.188        16     1.521     0.717 -24.24   0
        79     54.9746    885.8247 307.8834724  +6.2833767     702.5896     1321.781     1618.484     80.12678     160.7024     321.5647      1.736     4.45     918.6547     56.70357     104.8677         8     1.315     0.428 -29.69   0
        80    285.5018    882.8228 307.7878599  +6.2923630     1362.174      2192.23     2370.906     80.63878     160.6383     321.5007      1.645     4.45     919.5626     56.70357     255.8578        14     1.509     0.629 -22.67   0
        81    553.3020    881.1529 307.6767218  +6.3020304     779.9886      990.442     1148.266     80.63878     160.7664     321.8846      1.548     4.66     916.6538     56.70357      107.823         8     1.098     0.562 -31.25   0
        82    751.6493    879.6031 307.5944147  +6.3093046     1017.183     1392.374     1414.988     79.99827     160.5743     321.2766      1.514     4.03     912.7794     56.70357     143.7303        10     1.175     0.577 -53.90   0
        83    889.7404    875.7120 307.5372054  +6.3155222     6534.979     10979.83     11064.68     80.63878     160.8943     321.7886      1.753     4.40     909.5514     56.70357     949.5647        34     1.736     0.963 -21.47   0
        84    127.7950    877.0464 307.8535363  +6.2894491     645.9031     962.4915     667.2876     79.99827     160.7024     321.3727      1.281     4.34     918.9137     56.70357     114.0308         6     1.301     0.413 -19.16   0
        85    425.6382    872.8334 307.7300122  +6.3011874     1918.235     2940.528     3043.916     80.38319     160.7024     321.4687      1.646     4.51     918.3297     56.70357     278.6314        20     1.619     0.746 -29.78   0
        86    593.7614    872.6538 307.6602095  +6.3068930     532.3403     403.1742    -4958.958     80.63878     160.9583     321.6927      1.385     4.19     914.9423     56.70357      90.8382         5     0.905     0.553 -52.63   0
        87    327.2386    871.1555 307.7709261  +6.2985797     9218.393     14670.97     15898.97     80.38319     160.8304     321.5967      1.674     4.32     919.2012     56.70357     1490.421        37     1.707     0.923 -26.64   0
        88    247.3574    870.0468 307.8041313  +6.2963558     6589.073     10759.76     11433.08     80.63878     160.8943     321.6287      1.747     4.62     919.3179     56.70357     1044.451        38     1.752     1.000 -29.62   0
        89    759.6218    864.6339 307.5916097  +6.3157500     672.8275     942.9963     805.4289     80.12678     160.7024     321.4367      1.695     5.14     912.1504     56.70357     106.8181         9     1.540     0.485 -34.87   0
        90    575.1448    864.5590 307.6682135  +6.3096112     1003.199     1398.482     1299.057     80.51109     160.8943     321.7247      1.456     4.78     915.2947     56.70357     154.2057        11     1.336     0.591 -22.24   0
        91    905.6050    860.5134 307.5311303  +6.3223253     1010.256     1749.314     2267.706     80.12679     160.5743     321.3727      2.042     4.85     908.9667     56.70357     124.4655         9     1.025     0.651 -28.93   0
        92    861.6777    860.4316 307.5493737  +6.3208931     684.0629     1214.218     1259.039     80.51109     160.8943     321.6607      1.746     5.79     909.8636     56.70357     93.28479         8     1.154     0.818 -49.37   0
        93    404.2076    858.7714 307.7393871  +6.3062733     589.0054     913.5403     1099.866     80.25508     160.7024     321.5007      1.575     3.30      918.356     56.70357     134.7231         5     1.206     0.289 -31.72   0
        94    972.5737    856.3021 307.5034636  +6.3262974     776.6115     1155.749     1544.702     80.76627     160.6383     321.6287      1.622     4.98     906.0114     56.70357     117.6304         9     1.186     0.623 -36.28   0
        95    834.9796    855.0150 307.5606428  +6.3222376     477.5741     744.4487     865.6369     80.38319     160.6383     321.5967      1.425     3.82     910.1006     56.70357     90.79724         5     1.573     0.266 -22.63   0
        96    741.7797    853.8466 307.5993829  +6.3196066     1518.976     2273.623      2229.64     80.25508     160.8943     321.5327      1.487     3.78     912.3986     56.70357     260.0375        16     1.340     0.769 -40.82   0
        97    565.4528    854.2620 307.6725864  +6.3135371     644.4493     1046.673      1200.08     80.63878     160.8304     321.6607      1.697     5.49     915.1978     56.70357     122.4183         9     1.351     0.629 -24.46   0
        98    333.4587    852.2725 307.7689839  +6.3065828     507.0252     778.3867     472.0735     80.76627     160.8943     321.6607      1.382     3.45     918.9993     56.70357      88.2973         5     0.785     0.438  68.55   0
        99    232.7685    852.0388 307.8108000  +6.3032990     552.3596     1514.617     2223.059     80.25508     160.6383     321.5327      2.697     3.89     919.1974     56.70357     94.14868         5     0.850     0.510 -27.95   0
       100    606.1706    850.4200 307.6558089  +6.3164859     834.4584     1174.505     1064.083     80.12678     160.7024     321.5647      1.565     5.79      913.699     56.70357     139.5361        12     1.706     0.582 -23.48   0
       101    973.0086    849.2200 307.5035217  +6.3292353     1172.219     1895.537     2345.507     80.25509     160.6383     321.4687      1.640     4.74     905.7375     56.70357     157.4572        13     1.088     0.904 -14.50   0
       102    526.7634    849.3647 307.6888172  +6.3142631     1181.422     1538.349     1654.732     80.38319     160.7024     321.4367      1.460     4.57     915.9911     56.70357      154.072        14     1.237     0.783 -28.35   0
       103    660.2849    847.0721 307.6334518  +6.3196783     2570.939     4049.759     4586.548     80.76627     161.2137     321.7247      1.686     3.96     912.9055     56.70357     476.8147        23     1.621     0.785 -24.99   0
       104    233.8913    840.2435 307.8107343  +6.3082054     1027.904     2817.104     4677.812     80.63878     160.8304     321.7886      4.827    12.15     919.1926     56.70357     174.3615        32     2.964     1.386 -89.25   0
       105    950.4292    845.0427 307.5130387  +6.3302067     709.9064     1146.608      1573.34     80.25508     160.8304     321.5647      1.927     5.23     906.7967     56.70357      98.8075         7     1.040     0.742   0.71   0
       106    821.1854    843.6058 307.5667558  +6.3264865     894.7318     1116.246     884.5308     80.25509     160.6383     321.5327      1.427     4.47     910.1098     56.70357     146.3215         9     1.237     0.625 -21.42   0
       107    200.2734    842.3911 307.8246200  +6.3061896     2149.545     3325.802      3051.05     80.25509     160.4461     321.5327      1.629     3.93     919.1627     56.70357     353.6213        21     1.523     0.852 -25.85   0
       108     56.9627    842.9033 307.8841065  +6.3011598     2623.399     4448.609     4877.573     80.63878     160.7664     321.8526      1.804     4.67      918.368     56.70357     414.1714        29     1.678     1.099 -43.29   0
       109    557.2535    843.3112 307.6763616  +6.3177829     503.8579     730.2632     571.0818     80.63878     160.7664     321.8206      1.552     4.23     915.0094     56.70357     95.25189         5     0.915     0.558 -52.57   0
       110     74.5863    842.4307 307.8768052  +6.3019478     1945.844     3097.323     3310.523     80.25509     160.6383     321.6287      1.729     4.62     918.3505     56.70357     289.7048        17     1.435     0.729 -23.15   0
       111    938.5195    842.4755 307.5180708  +6.3308691     771.7072     1122.595     958.5256     80.89356     161.1499     321.7886      1.594     4.73     907.2693     56.70357     127.2961         8     1.277     0.497  -2.23   0
       112    654.9596    836.2570 307.6360287  +6.3239644     6653.866     10741.44     11604.91     80.63878     160.9583     321.7247      1.687     4.26     912.6966     56.70357     1136.435        35     1.716     0.920 -26.85   0
       113    339.2599    838.2117 307.7670520  +6.3125813      810.694     1338.223     1986.468     79.99827     160.7664     321.4047      1.620     5.28     918.8212     56.70357      133.948        11     1.245     0.633 -38.36   0
       114    792.2389    837.1248 307.5789946  +6.3281950     714.2538     1129.837     834.8991     80.51109     160.8943     321.7247      1.445     4.01     910.4968     56.70357     100.2997         9     0.940     0.661 -18.66   0
       115    892.6681    832.5554 307.5374453  +6.3334342     2625.936     4213.865      4545.49     80.63878     160.8304     321.7247      1.728     4.69     908.5423     56.70357     391.5544        24     1.685     0.878 -26.39   0
       116     14.8983    834.4396 307.9018597  +6.3032377      1162.86     2103.688     2237.156     80.63878     160.7664     321.9165      1.880     6.30     918.2544     56.70357     185.8865        15     1.697     0.678 -17.58   0
       117    444.2393    833.5944 307.7236180  +6.3180077     543.5049     699.6989     864.6525     79.86955     160.5743     321.4047      1.317     4.70     917.2602     56.70357     99.59167         6     0.922     0.679 -83.73   0
       118     28.0586    832.9684 307.8964455  +6.3042879     1121.824     1807.894         2204     80.38319     160.9583     321.6287      1.638     6.00     918.2416     56.70357     177.9473        15     1.460     0.710 -22.28   0
       119    337.9843    829.4122 307.7678800  +6.3161706     15715.49     25662.13     27327.42     80.51109     160.5743     321.6287      1.731     4.41     918.7568     56.70357     2407.654        53     1.795     1.036 -27.48   0
       120     72.5474    830.2494 307.8780660  +6.3069071     1191.326     1840.574     1931.401     80.76627     160.7664     321.6607      1.673     4.88     918.2114     56.70357     157.0059        15     1.422     0.745 -36.86   0
       121    388.3513    828.5643 307.7469949  +6.3182102     680.4666      938.696     734.4171     80.38319     160.8943     321.6287      1.489     3.99     918.1155     56.70357     107.9161         6     1.181     0.386 -30.80   0
       122    208.5460    828.9314 307.8216422  +6.3120232     1279.338      1794.06     1704.255     80.63878     160.8304     321.6287      1.488     4.51     919.1627     56.70357     177.4374        12     1.203     0.682 -20.55   0
       123    415.8931    820.2419 307.7358407  +6.3225690     1044.252     1688.333     1349.736     80.76627     160.8304     321.7886      1.674     4.86     917.5901     56.70357     165.3065        13     1.393     0.718 -26.52   0
       124    101.3819    819.9015 307.8664453  +6.3121482     1649.735     2619.469     2841.246     80.63878     160.7664     321.4367      1.667     4.18      918.177     56.70357     254.3662        18     1.413     0.910 -29.23   0
       125    668.3704    816.9080 307.6311141  +6.3323998     773.3356     1254.936     1862.782     80.76627     160.6383     321.5967      1.829     4.63     912.1722     56.70357     155.7109         8     1.337     0.454 -32.22   0
       126    882.9601    814.1738 307.5420967  +6.3406979      1941.97      3218.24     3234.524     80.25509     160.7024     321.5007      1.696     4.72     908.4141     56.70357     323.0383        19     1.531     0.823 -34.60   0
       127    853.6650    813.7346 307.5542766  +6.3399013     1973.462      3201.53     3054.716     80.63878     160.8943     321.6607      1.701     4.61     909.2018     56.70357     278.6456        20     1.513     0.906 -20.14   0
       128    817.0853    813.2661 307.5694825  +6.3388733     2918.127     4774.522     4784.104     80.76627     161.1499     321.7567      1.727     4.30     909.7242     56.70357     458.7557        23     1.557     0.878 -33.78   0
       129     84.7953    813.4980 307.8735500  +6.3142334     2320.736     3716.171     4266.946     80.38319     160.5743     321.3727      1.743     4.45     918.0255     56.70357      358.507        21     1.548     0.808 -17.55   0
       130    553.0659    804.6487 307.6794089  +6.3336016     316994.5     509688.2       537279     80.51109     160.7664     321.7247      1.699     4.33     913.5501     56.70357     45130.65       159     1.856     1.175 -28.38   0
       131    332.2058    811.6030 307.7708835  +6.3233278     678.5997     925.4995      792.586     79.99827     160.5743     321.5327      1.581     3.47     918.6891     56.70357     122.0409         5     0.820     0.424 -20.34   0
       132    397.2896    807.2492 307.7440059  +6.3273082     7318.598     11569.63     12552.99     80.63878     160.7024     321.8526      1.695     4.12     917.6785     56.70357     1190.188        35     1.668     0.950 -27.61   0
       133    340.4588    805.6527 307.7676583  +6.3260608     12060.37     19197.93     20351.37     80.63878     160.8943     321.6927      1.702     4.38     918.5391     56.70357     1767.577        42     1.829     0.916 -30.28   0
       134    640.7873    807.7643 307.6428771  +6.3352515     1059.535     1751.584     1597.693     80.12678     160.7024     321.4367      1.633     4.93     912.0567     56.70357     175.5911        10     1.369     0.525 -21.79   0
       135    658.8851    801.8976 307.6355603  +6.3382785     3391.892      5402.56     5843.697     80.63878     161.2776     321.7567      1.634     4.23     911.8654     56.70357     549.7416        23     1.534     0.855 -27.40   0
       136    237.4167    802.8761 307.8105390  +6.3237478     645.4006     1272.577      1663.07     80.12678     160.6383     321.5647      2.330     6.85     919.1647     56.70357     99.34833         7     1.343     0.979 -21.36   0
       137    891.4353    800.7866 307.5390289  +6.3465068     4889.547     8000.365     9278.541     80.12678     160.7024     321.5327      1.780     4.42     907.8159     56.70357     735.6521        29     1.632     0.916 -24.56   2
       138    730.5663    798.5582 307.6059070  +6.3420538      708.097      1287.02     1069.203     80.38319     160.8943     321.5327      1.675     4.76     910.5208     56.70357     117.2691         7     1.278     0.503 -22.68   0
       139    633.6336    796.0884 307.6462426  +6.3398317     3129.827     5108.699      5236.75     80.76627     160.8304     321.6927      1.715     4.81     911.8244     56.70357     479.1248        25     1.583     0.885 -28.70   0
       140   1023.4288    795.4290 307.4843966  +6.3531203     2818.856     3471.573     3616.193     72.58057     131.2391      245.798      1.252     3.22     900.8767     56.70357     542.9072        13     1.125     0.656 -79.10  24
       141    822.3462    794.9196 307.5679172  +6.3466221     1511.764     2558.182     2696.483     80.63878     160.8943     321.7567      1.763     5.02     909.3115     56.70357     268.2391        18     1.611     0.730 -27.66   0
       142    623.6790    794.7007 307.6504232  +6.3400715     936.3851     1667.399     1404.399     80.38319     161.2137     321.7247      1.874     5.84     911.8453     56.70357     156.8411        10     1.256     0.765 -44.73   3
       143    626.3655    790.6340 307.6494451  +6.3418400     2132.822     3408.527     3517.069     80.38319     160.6383     321.4367      1.653     4.57     911.8095     56.70357     350.1857        22     1.616     0.819 -32.33   2
       144    948.4296    794.0649 307.5155876  +6.3511828     636.7919     701.4024     1219.708     80.38319     160.9583     321.6287      1.243     3.41     905.1025     56.70357     120.6396         5     0.769     0.437  68.50   0
       145    910.2183    788.6887 307.5316369  +6.3521274     2947.729     4888.622     5107.979     80.38319     160.6383     321.5967      1.711     4.42     906.7411     56.70357     424.0609        22     1.546     0.839 -25.93   0
       146    320.7022    789.1301 307.7764224  +6.3322179     949.3729     1705.135     1720.397     80.51109      161.086     321.6927      1.749     6.12     918.5505     56.70357     162.0986        13     1.495     0.706 -22.60   0
       147    368.4840    784.4987 307.7567385  +6.3357329     2634.392     4138.199     4370.211     80.63878     161.3413     321.7567      1.771     4.39     917.6348     56.70357     354.1022        21     1.516     0.842 -26.85   0
       148    336.0180    776.9173 307.7704770  +6.3377730     553.4248     673.0662     670.9827     80.25509     160.5742     321.6607      1.503     4.49     918.1546     56.70357     87.46851         6     1.016     0.564 -46.87   0
       149    504.8040    774.2548 307.7004787  +6.3445311     2856.485     4770.595     4935.753     79.99827     160.7024     321.3407      1.772     4.61     914.0914     56.70357     410.9745        26     1.694     0.848 -29.82   0
       150    849.4813    773.2201 307.5573811  +6.3564854     1021.134     1589.905     2013.125     80.38319     160.5743     321.6287      1.585     4.35     908.0955     56.70357     187.7299        12     1.340     0.651 -22.87   0
       151    569.5289    771.9647 307.6736787  +6.3476440     779.5058     1139.738     1414.247     80.51109     160.8943     321.6927      1.721     3.44     912.4198     56.70357     137.9523         7     1.042     0.559 -27.80   0
       152    551.4772    770.4578 307.6812258  +6.3476616     5810.227     9209.595     9946.487     80.76627     160.8943     321.6287      1.708     4.27     912.6523     56.70357     823.0261        28     1.633     0.880 -28.24   2
       153    558.6107    769.9414 307.6782810  +6.3481136     1251.944     1883.478     2164.746     79.99827     160.7664     321.4047      1.716     5.07     912.5394     56.70357     179.1672        13     1.472     0.670 -27.10   3
       154    469.3992    769.3450 307.7153470  +6.3453714     1346.416     2024.679     1809.586     79.99827     160.6383     321.3087      1.605     4.80     914.8226     56.70357      240.556        14     1.491     0.622 -25.49   0
       155    262.2821    770.3000 307.8013198  +6.3380292      753.594     1188.694      1085.85     80.63878     161.4051     321.7886      1.578     3.79     918.7977     56.70357     113.4031         7     0.832     0.622 -34.13   0
       156    887.4698    768.3809 307.5417688  +6.3597510     1292.012     2069.684     1733.128     80.25509     160.7664     321.6287      1.663     4.82     906.8607     56.70357     186.0984        13     1.400     0.630 -20.95   0
       157    110.8882    768.5663 307.8642431  +6.3336571      1297.15     2036.568     2018.393     80.76627     160.8304     321.6927      1.661     4.53     918.0095     56.70357     219.9647        15     1.490     0.720 -27.33   0
       158    687.0218    767.3950 307.6250426  +6.3534615     761.3014     1045.207     1274.503     80.25508     160.6383     321.5007      1.440     3.40     910.7592     56.70357     146.3309         8     1.060     0.489   0.09   0
       159    522.1747    764.3418 307.6936010  +6.3492048     18449.16     29433.62     31019.53     80.25509     160.8943     321.5327      1.676     4.37     913.2697     56.70357     2939.407        42     1.715     0.946 -27.02   0
       160    935.7548    762.5964 307.5219121  +6.3637498     3570.874     5891.781     6256.477     79.99827     160.5743     321.3407      1.784     4.58     905.0324     56.70357     527.5287        26     1.673     0.863 -30.19   0
       161    169.2356    763.4030 307.8401907  +6.3377500     637.4249     903.3368     922.5934     79.74062     160.7024     321.4687      1.436     4.06     918.4816     56.70357     106.4133         6     0.877     0.537 -39.37   0
       162    883.9932    757.7681 307.5435706  +6.3640157     1774.824     1636.605     1169.291     79.99827     160.7664     321.4687      0.600     1.48      906.611     56.70357     907.3077         5     0.567     0.306 -89.60   0
       163     32.9881    754.7477 307.8970596  +6.3367401     1366.842     2429.542     2614.458     79.99827     160.8304     321.4047      1.882     5.89     917.7974     56.70357     198.2529        17     1.717     0.769 -27.86   0
       164    314.6759    752.9086 307.7801536  +6.3469668     3068.161     4826.417     5130.901     80.63878     161.1499     321.6927      1.602     4.12     918.0504     56.70357      480.093        25     1.528     1.068 -20.86   0
       165     14.8311    751.0247 307.9047256  +6.3376656      2151.53     3573.992     3887.278     80.12678     160.7664     321.5007      1.734     4.45      917.785     56.70357      299.178        24     1.553     0.985 -36.72   0
       166    780.3354    748.9209 307.5869161  +6.3642063     53441.84     83433.73      87226.4     80.89356     160.9583     321.6607      1.647     4.31      908.787     56.70357     8752.083        65     1.739     1.021 -26.07   0
       167    423.7271    747.5591 307.7350509  +6.3528331     958.0933     1418.365     1337.488     80.51109     160.9583     321.7247      1.635     6.02     914.2433     56.70357     159.6087        10     1.488     0.685 -12.16   0
       168    237.6245    746.6678 307.8123610  +6.3469556     5014.653     8380.511     10628.53     80.25509     160.7664     321.5967      1.862     4.19     918.7148     56.70357     756.5256        29     1.692     0.882 -28.37   0
       169    708.5458    743.5074 307.6169116  +6.3640416     20415.12     32694.27     35617.03     80.51109     160.8304     321.8526      1.736     4.23     909.6952     56.70357     2858.136        52     1.842     0.999 -26.34   3
       170    702.2675    739.9846 307.6196380  +6.3652858      83842.3     133234.9       140428     80.12678     160.7664     321.5967      1.663     4.35     909.7764     56.70357     13865.71        81     1.780     1.066 -25.45   3
       171    905.5840    744.1486 307.5350637  +6.3703582     8171.592      13226.1     13457.37     80.12678     160.9583     321.4047      1.698     4.35     905.5658     56.70357     1251.564        36     1.713     0.948 -27.18   0
       172    524.8219    744.3501 307.6931786  +6.3575455     421.6584     508.9317     707.0709     80.12678     160.9583     321.5647      1.169     3.45     912.5967     56.70357     78.44916         5     0.777     0.442 -16.20   0
       173    347.1783    740.8591 307.7670656  +6.3530311     19285.64     31560.08     33049.95     80.25508     160.8304     321.5327      1.704     4.25     917.4092     56.70357     3035.315        48     1.744     1.003 -28.40   0
       174    635.9882    740.5615 307.6471426  +6.3628308      808.254     1079.885     1877.329     80.12678     160.7024     321.4047      1.857     6.02     911.2445     56.70357     109.8263        11     1.367     0.747 -41.62   0
       175    409.0536    738.7108 307.7414441  +6.3559934     20887.53     33569.21     35356.35     80.63878     160.7024     321.8206      1.686     4.32     914.2072     56.70357     3074.036        47     1.750     0.977 -27.17   0
       176    396.3490    740.9078 307.7466454  +6.3546605     1355.579     2222.122     2259.054     80.51109     160.7664     321.8846      1.713     4.28     915.0098     56.70357     254.4388        16     1.421     0.781 -27.39   0
       177    946.0603    737.6598 307.5184732  +6.3743870     2035.439      3266.01     3618.995     80.63878     160.8943     321.7247      1.676     3.78      903.851     56.70357     307.3668        19     1.420     0.772 -27.41   0
       178    237.2109    725.2064 307.8132615  +6.3558003     734481.2      1736803      1944932     80.25508     160.7024     321.5967      2.338    11.16     918.1818     56.70357     62917.75       525     2.494     1.942 -35.30   4
       179    875.3707    736.5282 307.5478679  +6.3724954     708.3309     1184.395     767.5111     80.51109     160.8943     321.6607      1.804     5.01     906.1072     56.70357     118.1385         7     1.475     0.499 -21.38   0
       180    643.1285    734.5659 307.6443802  +6.3655446     6197.882     9660.139     10093.22     80.51109     160.8304     321.6927      1.641     4.07     910.9988     56.70357     922.9114        31     1.674     0.855 -24.73   0
       181    431.7365    732.4734 307.7322361  +6.3593286     1679.949     2681.389     2446.483     80.76627     160.8943     321.6927      1.750     4.43     913.5574     56.70357     260.1873        16     1.427     0.698 -27.24   0
       182    157.1680    731.6080 307.8462820  +6.3504682     896.7459     1252.511     1203.235     80.12678     160.7664     321.5007      1.561     3.26     917.8184     56.70357     146.5533        10     1.034     0.642 -37.84   0
       183    596.4247    726.5157 307.6640476  +6.3673046     829.0201     1133.762     644.6218     80.51109     160.6383     321.6287      1.528     4.77     911.5251     56.70357     168.8693         9     1.232     0.685 -16.41   0
       184    678.1153    724.7496 307.6301828  +6.3707668     2355.059     3951.478     4490.955     80.63878     160.8304     321.7886      1.825     4.69      909.926     56.70357     356.2366        23     1.649     0.814 -27.02   0
       185    122.5146    725.2403 307.8608881  +6.3519314     1028.443     1834.234      1331.88     80.63878     160.8304     321.6607      1.750     5.76     917.6554     56.70357     169.2932        14     1.702     0.679 -24.47   0
       186    412.0067    721.3627 307.7408058  +6.3632533     50283.96     81355.95     86157.62     79.86955     160.6383     321.4367      1.690     4.34     913.6813     56.70357     7992.171        72     1.805     1.056 -27.88   0
       187    147.5975    725.1619 307.8504752  +6.3528072     934.8668     1264.069     1430.059     79.74062     160.6383     321.4687      1.414     5.03     917.6869     56.70357     145.8036        12     1.466     0.530 -20.48   0
       188    954.0804    723.5018 307.5156199  +6.3804987     703.8943      774.243     705.2106     80.51109     161.2776     321.7567      1.269     4.52      903.047     56.70357     120.5747         7     1.094     0.581 -57.52   0
       189    902.5811    735.5515 307.5366008  +6.3738067     6448.429     10629.07      10921.7     80.12679     160.9583     321.4687      1.740     4.46     905.4041     56.70357     861.1309        34     1.663     0.956 -25.96   0
       190    529.7390    720.4282 307.6919466  +6.3675846     6785.714     10927.09     11272.85     80.25509     160.8943     321.6287      1.674     4.29     911.8817     56.70357     995.8371        32     1.608     0.892 -27.16   0
       191    446.4672    719.0565 307.7265736  +6.3653606     4230.227     6944.335     8028.475     80.76627     160.8304     321.6607      1.750     4.56     913.2025     56.70357     698.0389        30     1.691     0.901 -26.19   0
       192    774.8983    717.0305 307.5902511  +6.3771884      10892.7     17407.89     18375.91     80.63878     160.6383     321.7247      1.665     4.30     907.9084     56.70357     1737.534        39     1.701     0.963 -26.51   0
       193    669.7637    716.5763 307.6339275  +6.3738613     495.5363     790.1055     749.2983     80.25509     160.6383     321.4687      1.715     3.47      909.855     56.70357     72.35938         5     0.776     0.449  18.95   0
       194    443.0334    712.3338 307.7282274  +6.3680204     2145.368     3512.854     3794.832     80.51109     160.9583     321.6607      1.770     4.37      913.061     56.70357     341.0842        20     1.481     0.828 -31.22   0
       195      4.5244    713.1410 307.9102945  +6.3529554     952.7587     1461.411     1343.994     80.76627     160.9583     288.7943      1.825     4.13     917.4114     56.70357     167.7648        10     1.197     0.604 -13.24  16
       196    796.7958    711.1523 307.5813558  +6.3803464     1228.797     1912.219     1825.146     79.99827     160.6383     321.3727      1.553     4.78      907.516     56.70357     206.3381        15     1.369     0.763 -18.63   0
       197    124.8522    706.2332 307.8605635  +6.3598555     2736.823     4535.403      5857.44     80.51109     160.8943     321.5967      1.839     4.75     917.3444     56.70357     388.7209        22     1.480     0.907 -23.25   2
       198    140.9070    709.1467 307.8537977  +6.3591927     2847.998     4831.368     5667.075     80.51109     160.8304     321.8846      1.855     4.97     917.4087     56.70357     401.1176        26     1.710     0.845 -28.44   2
       199    132.6567    708.9350 307.8572308  +6.3590027      10699.1     17260.38     18982.56     80.76627     160.8304     321.6927      1.730     4.34     917.4013     56.70357     1636.785        42     1.818     0.970 -21.40   3
       200    964.7648    710.3275 307.5116269  +6.3862932     575.9983     934.7466     926.6408     80.51109     160.8943     321.6927      1.821     2.90     902.2267     56.70357     115.9612         5     0.712     0.661  89.73   0
       201    920.4786    705.6424 307.5301769  +6.3867499     6089.702     9797.819      10233.4     80.51109     160.8943     321.7247      1.745     4.32      903.951     56.70357     871.7926        30     1.707     0.876 -24.42   0
       202    969.5806    705.4492 307.5097913  +6.3884675     1506.023     2172.498     2656.842     80.12679     160.9583     321.5327      1.563     4.22     901.9294     56.70357     217.3657        15     1.418     0.692 -21.24   0
       203    675.7363    703.3738 307.6318935  +6.3795108     1601.939     2590.277       2950.4     80.25509     160.8943     321.6287      1.745     5.25     909.2605     56.70357     229.7247        16     1.579     0.765 -22.88   0
       204    562.9784    702.3495 307.6787549  +6.3761602     2136.771      3527.77     3638.273     80.12678     160.9583     321.5647      1.642     4.80     911.1346     56.70357     332.6786        17     1.609     0.621 -21.46   0
       205    410.4305    702.0719 307.7421143  +6.3711631      1111.36     1857.941     2257.318     80.51109     160.8943     321.6607      1.905     5.99      913.444     56.70357     162.1513        14     1.521     0.725 -35.24   0
       206    125.0042    699.8099 307.8607187  +6.3625118      1910.41     3016.696     3381.206     80.12678     160.5742     321.5647      1.664     4.71     917.2454     56.70357      271.552        16     1.502     0.691 -29.60   0
       207    914.5735    697.6641 307.5328983  +6.3898462     2837.039     4463.866     4742.777     80.25509     160.8304     321.5967      1.687     4.15     903.8615     56.70357     439.3503        23     1.726     0.776 -28.38   0
       208    975.1421    696.9178 307.5077692  +6.3921746     1717.447     2662.306     3249.824     80.76627     160.8943     321.7567      1.680     4.29     901.6182     56.70357     271.3823        18     1.509     0.767 -24.40   0
       209    944.1912    697.0824 307.5206177  +6.3910744     2974.942      4754.07     4860.881     80.25508     160.5102     321.5327      1.672     4.66     902.7513     56.70357     482.7144        22     1.537     0.826 -21.53   0
       210    667.2133    696.6828 307.6356593  +6.3819876     1419.304     2195.316     2530.208     80.25509     160.6383     321.5327      1.627     4.22     909.2799     56.70357      236.246        16     1.467     0.710 -23.06   0
       211    814.1086    695.0234 307.5747105  +6.3875824     1107.029     1495.503      1414.36     80.63878     160.7024     321.5327      1.409     3.51     906.6877     56.70357     219.3298        10     1.205     0.517 -27.46   0
       212    889.5533    692.9008 307.5434500  +6.3909775     703.2985     880.7876     842.7336     80.63878     160.7664     321.9165      1.435     4.44     904.6763     56.70357     109.6454         8     1.183     0.474 -29.19   0
       213    239.5077    691.8368 307.8134407  +6.3696513     1794.665     2951.126     3324.861     80.76627     160.7664     321.7247      1.812     4.53       916.91     56.70357     252.6643        21     1.604     0.812 -30.61   0
       214    677.3457    688.6450 307.6317231  +6.3856444     747.1809     1338.514      2104.42     80.63878     160.8943     321.7247      2.208     5.72     908.7832     56.70357     113.1762        10     1.642     0.562 -23.59   0
       215    932.7042    687.2074 307.5257213  +6.3947675     1093.453     1693.082     1899.784     80.38319     160.5102     321.4687      1.679     5.72     902.7977     56.70357      163.408        13     1.414     0.697 -34.14   0
       216    906.0959    686.1302 307.5368082  +6.3943244     1179.869     1913.007     1995.409     80.51109     160.9583     321.6927      1.786     4.29     903.8411     56.70357     189.4017        13     1.248     0.728 -23.70   0
       217    260.4553    687.0264 307.8049052  +6.3723405     611.5535     840.2201     910.9183     80.25508     160.9583     321.5327      1.297     3.20     916.6802     56.70357      125.755         5     0.737     0.632  -4.80   0
       218    155.4162    686.7983 307.8485321  +6.3689051     683.6329     969.3042     441.8889     80.25509     160.5102     321.4687      1.643     4.75     917.0447     56.70357     100.8664         8     1.190     0.537 -20.25   0
       219    959.1115    684.8699 307.5148330  +6.3966132     2426.975     3959.859     4179.766     80.63878     161.1499     321.6927      1.662     4.67     901.9407     56.70357     340.2788        24     1.626     0.879 -17.93   0
       220    678.5933    683.8928 307.6313656  +6.3876477      885.696     1657.224     2587.945     80.25509     160.5743     321.5007      2.091     5.65     908.5766     56.70357      157.858        14     1.703     0.653 -26.03   0
       221   1000.8138    678.2684 307.4977362  +6.4007288     1557.195     2746.536     2917.095     80.12678     160.7664     321.5967      1.849     5.83     900.6736     56.70357     222.6865        21     1.736     0.866 -22.88   0
       222    469.6173    679.6532 307.7182949  +6.3824012     565.7173     888.0979     516.6074     80.12678     160.9583     321.4047      1.925     4.74     911.6453     56.70357     89.41583         6     1.158     0.551 -28.32   0
       223    399.0549    679.3655 307.7476080  +6.3801542      592.502      942.224      1027.03     80.51109     160.8943     321.6927      1.743     5.77     913.2277     56.70357     84.63232         6     1.313     0.714  -7.47   0
       224    626.9933    677.4738 307.6530120  +6.3885711     661.3196     1266.442     1478.734     80.25508     160.4461     321.5647      2.219     5.75     909.6792     56.70357     105.3376         8     1.202     0.776 -21.64   0
       225    802.1229    676.5906 307.5803106  +6.3947908     1099.231      1720.48     1870.635     80.25509     160.4461     321.5007      1.620     6.10     906.3248     56.70357     157.3094        14     1.509     0.693 -27.56   0
       226    888.3268    674.2565 307.5445884  +6.3986326     1251.621     2047.125     2482.071     80.51109     160.8304     321.6607      1.662     4.62     904.3057     56.70357     200.9967        15     1.549     0.627 -27.60   0
       227    862.0369    669.2947 307.5556742  +6.3998032     870.3402     1289.033     1519.687     80.76627     160.7664     321.8206      1.367     4.10     905.2703     56.70357     154.3116         9     1.142     0.749 -53.84   0
       228    845.1439    665.4916 307.5628184  +6.4008091     1556.772     2523.458     2167.988     80.51109     160.7664     321.8206      1.648     5.03     905.3812     56.70357     216.0945        17     1.526     0.730 -21.88   0
       229     44.4470    664.3115 307.8953780  +6.3744541     2324.737      3774.33     3760.481     80.63878     160.7664     321.7886      1.743     4.38     916.7281     56.70357     326.8716        22     1.645     0.823 -28.86   0
       230    109.5273    664.3717 307.8683504  +6.3766189     633.3884     1176.166     1037.137     80.51109     160.8943     321.6287      1.910     5.71      916.543     56.70357     103.1168         8     1.455     0.632 -44.33   2
       231    108.0275    661.2161 307.8690805  +6.3778710     624.2158      976.876       1195.8     80.25508     160.6383     321.5967      1.643     6.01     916.4616     56.70357     83.06067         9     1.330     0.763 -58.28   2
       232    562.1588    659.3027 307.6805524  +6.3939015     588.1926     1002.913     783.6376     80.63878     160.7664     321.9165      1.671     3.89     910.1508     56.70357     104.2923         6     1.054     0.412 -12.11   0
       233    700.9406    655.8184 307.6230339  +6.3999835     441.2263      674.726     757.2414     80.25508     160.7664     321.5007      1.562     4.12     907.3309     56.70357     71.78711         6     1.260     0.385  -0.43   0
       234    657.0334    652.8501 307.6413691  +6.3997403     5938.046     9478.095     9670.201     80.51109     160.8943     321.6287      1.655     4.40     907.9773     56.70357     951.5674        31     1.660     0.903 -26.12   0
       235    603.7770    652.3040 307.6635052  +6.3981836     1321.176     2192.221     2132.017     80.63878     160.6383     321.5327      1.617     5.07     908.9503     56.70357     226.0781        16     1.715     0.669 -20.37   0
       236    524.8703    652.8359 307.6962571  +6.3953220     602.1871     703.6336     922.0413     80.51109     160.8943     321.7247      1.161     3.47     910.4803     56.70357     92.33557         6     0.745     0.574  38.01   0
       237    514.9335    652.1982 307.7004054  +6.3952523     728.6304     1138.936     1181.744     79.99827     160.5102     321.4687      1.572     4.95     910.5261     56.70357     119.0587         9     1.351     0.513 -21.42   0
       238    120.1791    648.8002 307.8644564  +6.3834045      3359.76     5559.965     6002.235     80.25508     160.5743     321.3727      1.732     4.48     916.0825     56.70357     483.4614        26     1.601     0.997 -27.99   0
       239    630.9827    648.5887 307.6523323  +6.4006277     2004.941     3180.838     3172.487     80.25508     160.5743     321.5967      1.690     4.56     908.2747     56.70357     297.1453        19     1.514     0.773 -33.97   0
       240    994.1321    648.1042 307.5015278  +6.4129574     2342.966     3479.188     3738.439     80.51109     161.0222     321.6927      1.578     4.38     900.5256     56.70357     347.7647        21     1.610     0.782 -23.30   0
       241    241.5482    648.8538 307.8140529  +6.3874618     718.3032     922.6532      1169.63     80.76627     160.8304     321.7247      1.293     4.35     915.0368     56.70357     112.0084         8     0.896     0.677 -41.00   0
       242    773.9314    645.0645 307.5930835  +6.4068624     19069.79     30472.04     31794.09     80.63878     160.9583     321.7247      1.657     4.35      905.876     56.70357     3125.694        44     1.721     0.967 -28.37   0
       243    307.2054    648.5563 307.7867966  +6.3897894     555.3046     1109.076     523.8201     79.99827     160.5743     321.3727      1.727     3.45     914.4584     56.70357     91.65417         5     0.753     0.456 -19.29   0
       244    455.6341    646.7635 307.7252164  +6.3955085     496.1144     655.5285      1035.56     80.38319     160.6383     321.4367      1.663     3.43     911.2344     56.70357     77.11389         5     1.185     0.288 -35.37   0
       245    904.0149    644.8318 307.5390657  +6.4113022     3398.844     5548.997     5461.424     80.25509     160.6383     321.5967      1.697     4.29     903.1668     56.70357     520.3976        25     1.649     0.869 -23.93   0
       246    501.3948    645.1500 307.7062667  +6.3977080     1002.242     1406.623     526.6801     79.99827     160.7024     321.3087      1.596     4.87      910.491     56.70357     132.5349        10     1.109     0.810 -34.14   0
       247    473.0005    645.5010 307.7180470  +6.3966117     1280.796     2088.486     1749.679     80.12678     160.5102     321.3087      1.751     5.34     910.8311     56.70357     201.9028        15     1.389     0.798 -19.73   0
       248    274.9846    645.0538 307.8002963  +6.3901533      521.904     864.9332      453.608     79.99827     160.8943     321.4047      1.511     3.62     914.7658     56.70357     92.60822         5     1.009     0.374 -32.82   0
       249    654.5235    637.8170 307.6429199  +6.4058617      6643.21     10433.53     10722.34     80.12678     160.6383     321.5647      1.632     4.09     907.4075     56.70357     1073.285        30     1.599     0.907 -27.54   0
       250    247.5190    638.5536 307.8119230  +6.3919139     5909.442     9385.685     9826.658     80.63878     160.8943     321.6927      1.706     4.22     914.5386     56.70357     848.4989        31     1.713     0.890 -26.75   0
       251    636.3096    639.0237 307.6504435  +6.4047542     821.2029     1190.195      785.273     80.63878     160.7024     321.5327      1.470     3.39     907.7116     56.70357     160.2435         6     1.072     0.431 -18.64   0
       252    349.8156    637.6071 307.7694725  +6.3957390     698.8622     982.2605     465.1446     80.25509     160.6383     321.5327      1.346     3.45     913.0959     56.70357     92.42761         5     0.791     0.435  19.62   0
       253    914.2909    630.3475 307.5352864  +6.4176240     1135.163     1484.207     1315.225     80.51109     160.7024     321.8206      1.600     5.82     902.6578     56.70357     167.2581        12     1.373     0.695 -25.30   0
       254    726.2850    626.2490 307.6135075  +6.4130366     3378.461      5857.66     6622.606     80.63878     160.8943     321.7567      1.825     4.57     906.4539     56.70357     500.5231        33     1.728     1.085 -33.63   0
       255    681.4884    626.5075 307.6321035  +6.4114320     979.2958     1460.576     681.0751     80.63878     161.3413     321.7886      1.497     4.88     906.7429     56.70357     182.2787         9     1.314     0.514 -17.83   0
       256    992.4913    622.9060 307.5030587  +6.4233041     8451.212     13510.56     13849.77     80.63878     161.4051     321.6927      1.660     4.19     900.2692     56.70357     1316.806        36     1.698     0.952 -23.89   0
       257    930.9194    623.2057 307.5286211  +6.4211269     2154.032     3482.305     4142.073     80.25508     160.4461     321.4367      1.635     4.70     902.1065     56.70357     379.5822        22     1.675     0.817 -27.94   0
       258     11.9364    622.4855 307.9103018  +6.3906237     1827.923     3282.861     3903.431     80.76627     161.0222     321.6927      2.066     5.22     916.9924     56.70357     257.1466        22     1.590     0.968 -34.76   0
       259    428.8441    620.8575 307.7372202  +6.4053036     562.2377     892.9957     805.6462     80.51109     160.8943     321.7567      1.784     4.01     911.1653     56.70357     85.67365         6     1.315     0.349  -0.79   0
       260     69.8571    617.6064 307.8864147  +6.3945872     23669.77     38955.62     41299.76     80.12678     160.7664     321.4047      1.742     4.28     915.8794     56.70357     3304.095        51     1.754     1.029 -27.65   0
       261    531.0943    618.5638 307.6948328  +6.4096771      2000.24     2855.996     2919.029     80.76627     160.7664     321.7886      1.589     4.61     909.7357     56.70357     307.8362        20     1.555     0.760 -21.85   0
       262    499.5858    615.9870 307.7080058  +6.4096852     1294.994     2104.408     1764.146     80.51109     160.5743     321.6287      1.626     5.13     909.9727     56.70357     207.7274        14     1.556     0.632 -22.11   0
       263    920.5599    615.0320 307.5331994  +6.4241552     944.6425     1620.321     1535.105     80.25508     160.7024     321.5647      1.656     6.52      902.332     56.70357      140.054        14     1.638     0.769 -18.76   0
       264    539.7750    612.5190 307.6914323  +6.4124630     948.0148     1336.992     1769.951     80.38319     160.6383     321.6607      1.635     4.69      909.522     56.70357     129.6037        10     1.135     0.706 -42.88   0
       265    715.9687    609.9744 307.6183421  +6.4194095     3173.512     4826.005     4844.027     80.12678     160.6383     321.5327      1.575     4.32     906.2007     56.70357     524.4633        21     1.511     0.774 -25.84   0
       266    737.8096    608.2090 307.6093308  +6.4208684     3946.296     6226.009     6532.506     80.12678     160.7024     321.5967      1.632     4.25       906.11     56.70357     651.1417        26     1.601     0.867 -26.27   0
       267    569.3811    606.0376 307.6793559  +6.4161299     2948.001     4682.185     4509.205     80.25508     160.7664     321.4367      1.683     4.52     908.1158     56.70357     469.3568        26     1.657     0.902 -30.45   0
       268    405.6145    606.6041 307.7473507  +6.4104080     1224.436     1924.355     1889.243     80.25509     160.5102     321.5327      1.607     5.05     911.2413     56.70357      215.459        15     1.604     0.725 -30.75   0
       269    229.9627    605.5876 307.8203335  +6.4049314     1661.722     2941.986     3728.354     80.12678     160.7024     321.4047      2.078     4.54     913.0496     56.70357     240.0486        18     1.480     0.819 -25.78   0
       270   1010.7700    604.3330 307.4960930  +6.4315802     4826.394     7593.004     7758.799     80.38319     160.8943     321.6607      1.656     4.15     899.3242     56.70357     736.5791        28     1.606     0.867 -23.98   0
       271    313.7198    604.9648 307.7855705  +6.4080013     1417.461     2184.614     1920.388     80.51109     160.9583     321.7247      1.559     5.64     912.5457     56.70357     200.6127        14     1.418     0.691 -30.15   0
       272    976.2263    603.2075 307.5104781  +6.4308931     7498.423     12216.82     12735.69     80.12678     160.7024     321.5007      1.698     4.35     900.3996     56.70357     1191.477        34     1.698     0.920 -27.38   0
       273    529.1630    604.1808 307.6961219  +6.4155494     692.9282     914.4752     1041.517     80.25508     160.7024     321.4687      1.356     3.85     909.2582     56.70357     104.4032         6     0.783     0.544  31.62   0
       274    696.0289    601.9747 307.6268940  +6.4220449     866.7265     1378.433     1386.094     80.12678     160.7024     321.5647      1.525     5.94     905.9357     56.70357     187.7069        10     1.674     0.593 -23.41   0
       275     87.3890    599.9807 307.8797335  +6.4024523      785.799      1270.36     1712.419     80.25508     160.5743     321.5647      1.583     5.21     915.2463     56.70357     140.0519        10     1.238     0.761 -49.92   0
       276    421.4751    597.5835 307.7410695  +6.4146634     2678.055     4510.145     4824.756     80.12679     160.6383     321.5647      1.783     4.62     910.7084     56.70357     381.4075        25     1.670     0.848 -28.34   0
       277    134.6189    596.5452 307.8602363  +6.4054590     22519.69     36653.23     37154.84     80.12679     160.8943     321.5007      1.744     4.22     914.5312     56.70357     3159.059        49     1.761     1.012 -27.27   0
       278    802.3767    597.2869 307.5828833  +6.4275345     1041.671     1589.022     1678.985     80.63878     160.7024     321.5647      1.663     2.66     903.8945     56.70357     205.0089         8     0.891     0.579 -38.17   2
       279    354.0186    591.2991 307.7692979  +6.4149946     639.2715     871.4296     1359.564     80.63878     160.7664     321.4687      1.491     4.14     911.7331     56.70357     93.12836         7     1.120     0.436 -56.27   0
       280    970.9918    586.2498 307.5132239  +6.4377184     6251.282     11164.57     12420.26     80.12678     160.7024     321.3727      1.909     4.45     899.9729     56.70357     900.7025        37     1.691     1.107 -16.97   0
       281     15.9363    585.2645 307.9099075  +6.4061217     997.1866     1795.639     1437.725     80.63878     160.8943     321.7247      1.758     5.49     916.5804     56.70357     160.3436        12     1.526     0.558 -33.73   0
       282   1023.7299    582.1905 307.4914564  +6.4411523     13876.29      17026.1     18058.27     68.94557     126.6916     240.7652      1.041     2.67     898.1926     56.70357     4382.968        26     1.394     0.558  88.25  24
       283    564.6362    581.4376 307.6821593  +6.4261252     44876.91     71739.17     76033.95     80.38319     160.7664     321.4687      1.722     4.27     907.0986     56.70357     6466.638        65     1.770     1.041 -27.82   0
       284    928.9559    582.8411 307.5307981  +6.4377233     594.2708     882.0697     720.6407     80.38319     160.8943     321.5967      1.357     2.33     901.1728     56.70357     129.7159         5     0.753     0.483 -60.77   0
       285    523.7671    581.3693 307.6991354  +6.4247846     797.2717     1313.783     1005.408     80.12678     160.6383     321.4047      1.523     5.33     908.0077     56.70357     119.2341        10     1.298     0.619 -32.71   0
       286    207.5374    582.6794 307.8304248  +6.4136336       623.78     1275.157      1774.43     80.76627     160.9583     321.6927      2.662     3.88     912.5761     56.70357     102.1632         6     0.925     0.465   2.44   0
       287    172.3782    578.0101 307.8451850  +6.4143792     2654.851     4541.664     5569.074     80.25508     160.6383     321.5327      1.967     4.65     913.4667     56.70357     381.0564        23     1.735     0.823 -27.82   0
       288    494.7979    578.2032 307.7112742  +6.4251209     635.6682      987.726     970.1031     79.99827     160.4461     321.4367      1.430     3.41     908.3553     56.70357     112.7723         5     0.885     0.423 -45.03   0
       289     64.7113    572.1481 307.8900981  +6.4131774      1381.65     2128.796     2387.465     80.63878     160.7024     321.7886      1.655     5.13     915.3861     56.70357     175.3666        16     1.442     0.780 -29.33   0
       290    461.9083    565.2117 307.7253742  +6.4293812     57585.98     93275.15      98318.7     80.38319     160.5743     321.5007      1.705     4.35     908.6062     56.70357     9076.269        78     1.810     1.090 -28.54   0
       291      5.7157    566.6884 307.9147842  +6.4134450      1577.27     2799.604     2889.214     80.38319      161.086     302.3358      1.862     5.98      916.501     56.70357     235.3143        18     1.681     0.692 -21.10  16
       292    647.9814    562.1963 307.6481947  +6.4368574     777.8333     1083.456     1274.314     80.25509     160.4461     321.5007      1.586     5.64     905.0271     56.70357      125.136         9     1.432     0.626 -16.80   0
       293    136.1601    560.2359 307.8608306  +6.4204979     1648.521     2477.103     2388.001     80.38319     160.8304     321.5327      1.598     4.57     913.8739     56.70357      244.691        20     1.469     0.898 -20.79   0
       294    931.4935    557.4968 307.5305990  +6.4482697     515.4353      731.714     338.8693     80.63878     161.4688     321.5967      1.645     4.33     900.1824     56.70357     113.2695         5     1.315     0.406 -44.64   0
       295    415.3436    557.8312 307.7449637  +6.4308664     756.6669     1134.705     1307.006     80.51109     160.8943     321.6287      1.571     4.01     909.8878     56.70357     131.0554         7     1.139     0.511 -17.98   0
       296    607.9001    556.7994 307.6650244  +6.4377437     714.7159     1222.726     1136.259     80.12678     160.5102     321.2766      1.809     4.35     905.4965     56.70357     117.6447         7     1.377     0.392 -32.98   0
       297    307.3022    554.2272 307.7899577  +6.4287287     1930.464     3412.342     4104.239     80.76627     160.6383     321.6607      1.877     4.54     910.2287     56.70357     304.9601        23     1.645     0.953 -36.89   0
       298      8.2273    555.7996 307.9141118  +6.4180240     542.1171     526.3046       978.09     80.25508     160.5743     320.9562      1.368     4.38     916.2852     56.70357     92.93567         7     1.198     0.456 -31.45   0
       299    459.0473    552.8924 307.7269799  +6.4343703      640.371     1225.232     1300.042     80.51109     160.8304     321.8206      1.970     5.07     908.2426     56.70357     123.1533         9     1.405     0.630 -12.37   0
       300    733.9543    548.7072 307.6129429  +6.4453007     4980.792      7937.21     7680.354     80.63878     160.8304     321.8206      1.613     4.39     903.7665     56.70357     730.8994        27     1.663     0.844 -28.12   0
       301    787.4684    543.9803 307.5908758  +6.4490403     13092.16     20657.34     21815.78     80.25508     160.7664     321.5967      1.651     4.47     902.8107     56.70357     2217.321        38     1.695     0.914 -26.48   0
       302    529.6570    543.9533 307.6979563  +6.4404263     1247.937     2016.423     2138.897     80.63878     160.8943     321.8206      1.790     4.00     905.7848     56.70357     200.3909        13     1.349     0.605 -35.49   0
       303   1004.2706    544.4643 307.5008103  +6.4560765     1025.163     1434.204     1300.613     80.63878     160.8943     321.6927      1.361     3.08     897.5365     56.70357     186.9695         7     0.915     0.475 -11.31   0
       304     31.8332    543.5044 307.9047268  +6.4238937      545.732     976.5422     1317.715     80.76627     160.7664     321.7886      1.759     4.46     915.6453     56.70357     91.81207         7     1.406     0.403 -34.43   0
       305    611.4576    541.9941 307.6640479  +6.4439741     2581.737     4191.811     4006.945     80.12678     160.7664     321.4047      1.660     4.57     905.1366     56.70357     410.8809        21     1.584     0.762 -27.71   0
       306    928.5168    538.2737 307.5324838  +6.4561053     1161.549     1803.303     2150.418     80.76627     161.2137     321.7567      1.694     4.73     899.6049     56.70357     175.1712        15     1.378     0.919 -32.18   0
       307    223.8616    535.7617 307.8252390  +6.4335481     1199.897     1938.159       1465.1     80.63878     160.9583     321.6927      1.651     4.83     910.3029     56.70357     195.0499        15     1.405     0.852 -27.38   0
       308    369.5055    535.6929 307.7647522  +6.4384668     932.7086     1274.634     871.2558     80.63878     161.4051     321.6607      1.419     3.75     909.2853     56.70357     163.6462         8     1.102     0.491 -48.69   0
       309    187.0755    536.0935 307.8405055  +6.4321749     612.9967     828.0114      336.725     80.51109      161.086     321.6927      1.635     4.35     911.7129     56.70357     104.2955         5     1.111     0.484 -50.72   0
       310    353.8030    535.6295 307.7712760  +6.4379661     484.0897     849.7159      283.812     80.12678     160.7024     321.5007      1.728     3.89     909.3506     56.70357     110.0224         5     1.077     0.402  15.54   0
       311    863.5013    527.3356 307.5598575  +6.4584505     2729.815       4106.8      4411.57     80.63878     160.9583     321.7247      1.587     4.21     901.4963     56.70357     403.4679        23     1.550     0.844 -25.15   0
       312    158.2132    527.1175 307.8527975  +6.4349095     647.7665     854.0331      449.124     80.25508     160.6383     321.5327      1.324     3.39     912.4257     56.70357     103.8328         5     0.998     0.333 -45.25   0
       313    822.3654    524.5735 307.5770368  +6.4582169     2420.137     3950.337     3610.865     79.99827     160.7024     321.4687      1.567     4.43     902.1689     56.70357     428.4713        22     1.547     0.821 -27.54   0
       314    793.1476    520.7315 307.5893023  +6.4588268     2286.584     3683.427     4495.805     80.51109     160.7664     321.6287      1.670     4.61     902.6293     56.70357     368.4001        19     1.662     0.693 -27.68   3
       315    802.8728    515.9402 307.5854247  +6.4611294       146492     235655.7     248132.3     80.76627     160.8943     321.7247      1.683     4.40     902.4838     56.70357     23213.93       111     1.828     1.108 -26.81   2
       316    250.2521    519.6196 307.8148267  +6.4410976      7075.04     11568.81      12159.7     80.12678     160.9583     321.5007      1.743     4.29      909.658     56.70357     1022.693        35     1.739     0.961 -25.65   0
       317    184.5145    514.1590 307.8423145  +6.4411425     54758.54     89489.31      94811.8     80.63878     160.8304     321.6607      1.756     4.30     911.0416     56.70357     8032.473        78     1.831     1.111 -28.55   0
       318    732.3606    516.3732 307.6146978  +6.4585942     674.7915     1220.092     2087.125     80.25509     160.7024     321.5327      1.896     5.38     903.1603     56.70357     92.75159         8     1.335     0.613 -29.20   0
       319    108.4109    510.3930 307.8740499  +6.4401378     5769.976     9611.997     10324.06     80.25509     160.7024     321.5967      1.772     4.52     913.5587     56.70357     813.8477        38     1.780     0.993 -25.25   0
       320    973.7795    507.6312 307.5147170  +6.4702639     1259.313     2033.236     2395.239     80.12678     160.7024     321.5647      1.816     5.23     897.0969     56.70357     196.8455        12     1.449     0.603 -19.60   0
       321    993.7023    506.6714 307.5064741  +6.4713245     620.8685     1082.729     962.4647     80.51109     161.0222     321.6927      1.585     3.67     896.3391     56.70357     125.0948         5     1.093     0.493 -33.86   0
       322    222.6032    505.9328 307.8267749  +6.4458182     672.5807       1047.1     1034.067     79.99827     160.5742     321.5007      1.449     4.67     909.6354     56.70357     107.7769         8     1.058     0.584 -44.22   0
       323    839.5677    503.1461 307.5706152  +6.4676363      4168.13     6645.616     7242.992     80.51109     160.8943     321.6287      1.698     4.36     901.1356     56.70357     664.8422        25     1.605     0.834 -21.81   0
       324    357.9011    501.3019 307.7707385  +6.4522730     15600.89     25751.11     27064.07     80.63878     161.2776     321.5327      1.747     4.35     907.7101     56.70357     2404.355        48     1.751     1.049 -30.30   0
       325    448.1541    501.5119 307.7332456  +6.4552136     731.8762     1185.737     1405.568     80.63878     160.7664     321.7247      1.643     6.08     906.5923     56.70357     96.24335        11     1.461     0.710 -25.21   0
       326    159.9324    499.9829 307.8530058  +6.4461675     1685.272     3154.846     4311.248     80.12678     160.8304     321.5967      2.336     8.28     911.2828     56.70357     249.0493        26     2.274     0.987 -33.69   2
       327     96.3205    497.7096 307.8795026  +6.4449662     829.5904     1508.927     1107.236     80.38319      161.086     321.7567      1.719     6.27     913.7972     56.70357     114.6821        11     1.536     0.812 -23.47   0
       328    793.4255    496.4825 307.5900060  +6.4688456     5467.081     8529.676     8639.163     80.51109     160.6383     321.6927      1.655     4.26     902.5305     56.70357     828.8728        26     1.617     0.831 -26.75   0
       329    524.2587    496.2482 307.7018142  +6.4599369      6038.44     9638.184     10155.98     80.63878     160.8943     321.7886      1.667     4.30     904.9379     56.70357     928.7084        32     1.689     0.901 -26.68   0
       330    234.8324    497.6017 307.8219787  +6.4496678     887.8413      1240.43     1331.153     79.86955     160.7024     321.4367      1.449     4.52     909.2999     56.70357     133.6747         8     0.942     0.616 -53.23   0
       331    382.5853    492.8220 307.7607738  +6.4566015      1305.08     2257.892     2126.546     80.38319     160.7024     321.6287      1.978     5.79     907.1044     56.70357     189.0907        16     1.631     0.744 -23.02   0
       332    569.3619    489.1736 307.6833201  +6.4643678     2313.944     3717.515     4133.046     80.25509     160.7024     321.5327      1.738     4.79     903.9695     56.70357     343.1611        25     1.837     0.783 -25.49   0
       333    171.3448    489.2626 307.8486303  +6.4509761     6295.561     10329.26     10625.84     80.76627     160.8304     321.6927      1.742     4.56     910.5445     56.70357     851.8718        36     1.695     1.034 -29.68   0
       334    852.2125    489.4511 307.5658254  +6.4737116     495.7435     989.5461      542.745     79.99827     160.8304     321.4047      1.756     4.01     900.1403     56.70357      88.6778         6     1.458     0.316 -40.64   0
       335     42.8435    488.0148 307.9020425  +6.4471681     4606.013     7667.688     8072.742     79.99827     160.7024     321.4367      1.708     4.29     914.4169     56.70357     662.3603        31     1.665     0.927 -31.25   0
       336    810.2618    488.6493 307.5832774  +6.4726415      1330.56     2051.351     2013.588     80.63878     160.8304     321.7567      1.735     4.44     902.0599     56.70357     193.7723        13     1.358     0.630 -18.80   0
       337    266.5045    485.7712 307.8092260  +6.4556151     80219.77     131466.9     139148.7     80.76627     160.6383     321.6607      1.769     4.20     908.7379     56.70357     11958.24        85     1.843     1.138 -28.28   0
       338    555.8953    483.0165 307.6891220  +6.4664583     972.2603     1401.341     1672.005     80.51109     160.7024     321.5327      1.788     4.02     904.1004     56.70357     137.7255        10     1.074     0.673 -23.32   0
       339    965.9130    479.6278 307.5189289  +6.4815609     1543.753     2612.406     2803.014     80.76627     160.6383     321.5647      1.742     5.32     896.3914     56.70357      231.244        17     1.637     0.686 -25.84   0
       340    250.5730    480.7058 307.8160150  +6.4571707     1216.443     1888.571     2241.462     80.76627     160.6383     321.5327      1.674     5.44     908.7694     56.70357     198.8706        14     1.486     0.667 -16.96   0
       341    789.6523    478.3123 307.5921871  +6.4762198     15007.83     23750.48     24581.24     80.63878     160.7664     321.8206      1.682     4.30      902.306     56.70357     2270.965        38     1.751     0.875 -26.17   0
       342    493.2617    476.6547 307.7153526  +6.4669860     37435.17     64965.21     70215.25     80.76627     160.8304     321.6607      1.873     4.47     904.8836     56.70357     5028.992        74     1.936     1.201 -22.37   0
       343    642.7070    475.2734 307.6533260  +6.4725607     676.4464     1384.079     1879.787     80.51109     161.0222     321.7247      2.536     4.89     902.4675     56.70357     119.0076         8     1.108     0.679 -37.82   2
       344    205.4295    472.9805 307.8350272  +6.4588425     1649.815     2819.315     3286.243     80.25508     160.7024     321.5647      1.770     4.39     909.2174     56.70357     233.4985        18     1.488     0.793 -29.87   0
       345    653.0790    471.7718 307.6491363  +6.4743532     2709.194     4472.407     5427.909     80.51109     160.8304     321.6927      1.878     4.61     902.3065     56.70357     429.1874        23     1.736     0.742 -29.54   0
       346    253.1668    473.3893 307.8151862  +6.4602779     568.0033     893.9835     997.3459     80.12678     160.6383     321.5327      1.414     3.45     908.4756     56.70357     98.72925         5     0.741     0.465  14.70   0
       347     91.6207    473.1045 307.8822915  +6.4549641     631.1278      1187.25     1266.724     80.51109     160.7024     321.5007      1.952     3.36      913.236     56.70357     97.89441         5     0.753     0.434 -69.35   0
       348     41.4997    473.0406 307.9031102  +6.4533036     1153.798     1854.142     1629.028     80.63878     160.7664     321.9165      1.677     5.14       914.17     56.70357      172.907        11     1.239     0.602 -26.40   0
       349    715.2782    470.6091 307.6233402  +6.4769136     1125.419     1893.384     1520.142     80.25509     160.3819     321.5327      1.708     5.12     902.1667     56.70357     192.7581        14     1.617     0.685 -29.13   0
       350    663.2482    471.6411 307.6449168  +6.4747473     1139.269     1778.342     2149.406     80.63878     160.8304     321.5647      1.895     4.20     902.2785     56.70357     210.6841        12     1.386     0.583 -27.43   0
       351     72.3707    469.1670 307.8904205  +6.4559416     699.9343     1201.385      1098.82     80.12678     160.6383     321.4367      1.386     5.67      913.461     56.70357     112.7093         9     1.405     0.644 -45.01   0
       352    390.7693    467.2402 307.7582422  +6.4674354     1706.442     2603.022     2755.629     80.12678     160.7024     321.5327      1.639     4.71     905.6466     56.70357     254.2703        18     1.551     0.749 -19.01   0
       353    502.5222    465.0206 307.7119004  +6.4720985     1948.538     3319.329     3664.906     80.25508     160.6383     321.6607      1.842     5.52     904.1049     56.70357     298.7801        21     1.673     0.907 -18.73   0
       354    322.4319    465.6067 307.7866816  +6.4658163     3484.723     5825.261     5947.084     79.99827     160.7024     321.4687      1.779     4.66     906.8973     56.70357     539.5175        26     1.616     0.926 -25.98   0
       355    137.5878    464.1487 307.8635045  +6.4602070      23303.2     39287.26     41499.82     79.99827     160.7664     321.4047      1.765     4.40     911.0233     56.70357     3325.574        53     1.766     1.079 -27.88   0
       356    865.5287    464.2357 307.5611455  +6.4845647     1450.233     2255.119     2489.927     80.51109     160.8943     321.7247      1.653     4.85     898.6425     56.70357     229.3056        15     1.580     0.620 -27.15   0
       357    102.7397    462.4424 307.8780361  +6.4597391     2522.718     4216.532     4652.129     80.63878     160.8943     321.7886      1.813     4.30      912.364     56.70357     372.8043        23     1.605     0.860 -27.93   0
       358    339.5067    460.7915 307.7797530  +6.4683770     904.0405     1642.014     1787.482     80.25509     160.5743     321.5007      1.797     6.03     906.0804     56.70357      121.044        10     1.573     0.650 -38.42   0
       359    963.1229    458.8507 307.5207885  +6.4900443     4874.257     7671.042     7900.188     80.63878     160.9583     321.6607      1.619     4.38     895.9803     56.70357      805.451        29     1.624     0.861 -28.63   0
       360    536.4175    451.4005 307.6982829  +6.4788562     1200.198     1961.849     1803.282     80.25509     160.4461     321.3727      1.776     5.84     903.0069     56.70357     191.2606        18     1.605     0.840 -30.20   0
       361      2.4328    448.2653 307.9201791  +6.4622143     22218.84     30574.24     31349.44     80.51109     143.5933     259.8781      1.547     4.42     914.9615     56.70357     3201.621        33     1.401     1.013 -34.48  24
       362    434.5903    445.3279 307.7407840  +6.4779499     38890.23     63894.56     67593.63     80.12678     160.5102     321.5007      1.747     4.31     903.9561     56.70357     5492.908        61     1.806     1.059 -26.74   0
       363    642.5941    445.0883 307.6543941  +6.4850167     10920.45     17832.66     18751.46     80.12678     160.5743     321.4367      1.680     4.39     901.1384     56.70357     1749.751        36     1.745     0.916 -27.75   0
       364    282.2532    446.0127 307.8040349  +6.4725550     987.5021     1404.091     776.6783     79.99827     160.8304     321.4047      1.458     4.51     907.2617     56.70357     176.6125        10     1.251     0.629 -19.74   0
       365    199.7950    442.8745 307.8383904  +6.4710798     17199.42     30097.33     32208.12     80.25508     160.3819     321.5967      1.840     4.33     908.4514     56.70357     2382.161        51     1.787     1.170 -22.78   0
       366    976.0338    443.5524 307.5159415  +6.4967898     1046.101     1772.339     2171.126     80.25508     160.8943     321.6287      1.923     5.73       895.28     56.70357     168.5786        13     1.524     0.765 -22.14   0
       367    816.8324    442.9292 307.5820924  +6.4917334     923.5651     1526.563     1527.539     80.51109     160.8943     321.6607      1.640     5.90     899.6545     56.70357     165.7987        12     1.420     0.689 -23.28   0
       368    165.2214    443.8618 307.8527168  +6.4695100     1431.987     2218.232     2526.847     80.25508     160.8943     321.5967      1.763     4.90     909.5047     56.70357     220.4734        16     1.510     0.665 -21.48   0
       369    905.0178    442.8357 307.5454648  +6.4947164     552.6275      818.396     395.4495     80.12678     160.7024     321.4687      1.514     3.89     897.0308     56.70357     98.89301         6     0.951     0.455 -32.85   0
       370    564.4229    441.7365 307.6869777  +6.4837833     2572.518     3907.209      3846.33     80.25509     160.8943     321.5647      1.588     4.19     902.0245     56.70357     401.9243        21     1.506     0.859 -18.98   0
       371    938.2471    438.9522 307.5317928  +6.4974283     4454.254     6935.594     6976.238     80.63878     160.7664     321.7247      1.632     4.33     896.0401     56.70357     782.3448        25     1.593     0.829 -24.58   0
       372    611.4616    437.3719 307.6675869  +6.4871598      6126.24     9830.163        10660     80.25509     160.8943     321.6607      1.726     4.35     900.6779     56.70357      878.814        34     1.694     0.929 -27.56   0
       373     99.0584    437.7514 307.8804049  +6.4698067     1056.062     1882.006     2031.211     80.63878     160.8943     321.7886      1.893     5.91     911.3669     56.70357     132.6314        14     1.390     0.805 -36.38   0
       374    511.4913    436.4643 307.7091424  +6.4841864     583.4822      1133.46     807.3629     80.63878      161.086     321.7567      1.747     3.68     902.5091     56.70357     105.0176         6     0.984     0.396 -19.64   0
       375    960.8263    431.3339 307.5226706  +6.5013262     3128.656     4966.265     5005.558     80.25509     160.8304     321.5647      1.623     4.13     895.3113     56.70357     507.0911        22     1.567     0.799 -17.25   0
       376    523.5916    428.6430 307.7043813  +6.4878202     6863.043     11044.67     11815.19     80.12678     160.7024     321.4367      1.747     4.27     902.0483     56.70357     978.8258        33     1.695     0.966 -21.50   0
       377    369.6945    428.7915 307.7683000  +6.4825988     2327.734       3875.3     4268.041     80.25509     160.5102     321.4687      1.715     4.79     903.6725     56.70357     357.0562        22     1.654     0.791 -27.03   0
       378    990.7415    426.8936 307.5103938  +6.5041568     445.4703     693.8942     436.1884     80.51109     160.8943     321.8206      1.173     3.45     894.6803     56.70357     83.46149         5     1.012     0.340 -46.10   0
       379    880.0336    424.5497 307.5564601  +6.5014306     2915.736      4710.83     5175.435     80.51109     160.8943     321.6287      1.628     4.51     897.1343     56.70357     436.3919        24     1.642     0.809 -21.53   0
       380    399.5654    429.9280 307.7558542  +6.4831318     605.6859      1118.51     1367.996     80.51109     160.8304     321.6927      2.178     5.42     903.5342     56.70357     131.9783         8     1.301     0.638 -18.52   0
       381    887.5153    418.9507 307.5535413  +6.5039915     2097.501     3337.882     3745.645     80.63878     160.8943     321.7886      1.657     4.56     896.7057     56.70357       353.91        21     1.574     0.802 -22.07   0
       382    926.9191    418.1038 307.5372017  +6.5056562     1231.067     2010.526      1802.32     80.38319     161.2137     321.7886      1.609     5.60     895.4736     56.70357     200.2448        13     1.563     0.565 -27.49   0
       383    105.8976    418.1697 307.8782303  +6.4781193      594.637     901.0556     1349.433     80.76627     160.6383     321.7247      1.432     3.89     910.2467     56.70357     108.4832         6     0.795     0.546 -33.74   0
       384    711.4626    414.8950 307.6268088  +6.4997836      2800.99     4387.786     4807.802     80.51109     160.9583     321.7247      1.607     4.73     899.7508     56.70357     436.7474        22     1.519     0.817 -24.72   0
       385     73.3737    413.6977 307.8918911  +6.4788708     1936.744     3411.231     3611.957     80.76627     160.6383     321.6287      1.830     4.44     911.4808     56.70357     312.6281        24     1.556     1.031 -21.82   0
       386    382.3756    413.0470 307.7635669  +6.4895231     3333.351     5579.967      5727.55     80.25508     160.8943     321.5647      1.725     4.38     902.7235     56.70357     507.6014        26     1.678     0.861 -32.73   0
       387    422.5994    413.0683 307.7468584  +6.4908636      1002.97     1398.045     1641.867     79.99827     160.3819     321.5007      1.602     6.57     902.4352     56.70357     147.1989        15     1.581     0.766 -34.66   0
       388    610.0959    409.5528 307.6690957  +6.4985972     9256.983     14946.99     15780.03     80.51109     160.7664     321.8526      1.713     4.35     899.3166     56.70357     1384.306        37     1.681     0.948 -27.63   0
       389    772.8453    406.1619 307.6016063  +6.5054405     15148.95     24389.64      25875.2     80.38319     160.8304     321.5967      1.687     4.29       898.61     56.70357     2450.316        44     1.747     0.949 -27.80   2
       390    776.2534    401.3118 307.6003545  +6.5075564     1299.536     2213.573      2531.66     80.63878     160.7664     321.8206      1.856     5.77     898.3596     56.70357      227.858        12     1.691     0.553 -14.10   3
       391    292.4141    406.5334 307.8011549  +6.4891919     2384.397     4012.007     3633.948     80.12679     160.7664     321.6287      1.812     4.86     905.4343     56.70357     322.3502        23     1.619     0.836 -27.05   0
       392    801.6715    403.3592 307.5897267  +6.5075606     1239.769     1840.976     1971.228     80.51109     160.8943     321.7567      1.539     5.27     898.1069     56.70357     192.0944        16     1.585     0.705 -26.90   0
       393    375.3722    402.7700 307.7668245  +6.4935301     1467.971     2641.961     2698.306     80.12678     160.6383     321.4687      1.943     4.11     902.2633     56.70357     209.1333        15     1.281     0.910 -39.48   0
       394    958.2874    401.1094 307.5247447  +6.5137177     2031.138     3423.717     3277.006     80.38319     161.3413     321.8206      1.681     4.64     894.4788     56.70357     332.6656        19     1.594     0.744 -18.05   0
       395    846.4003    400.3883 307.5712469  +6.5102810     418.2062     609.5018     793.3598     80.25509     160.5743     321.5007      1.441     3.52      897.181     56.70357     78.41809         5     1.123     0.318 -20.05   0
       396    705.7945    400.3813 307.6296540  +6.5055849     411.9703     553.8343      689.595     80.25509     160.5102     321.5007      1.511     3.45     899.1075     56.70357     73.70502         5     0.762     0.452 -16.91   0
       397    110.1048    397.9964 307.8771690  +6.4865876     3981.786     6761.043     7817.806     80.38319     160.5742     321.4367      1.869     4.56     909.7406     56.70357     599.9983        31     1.767     0.949 -24.64   0
       398    748.4282    397.1313 307.6120542  +6.5083520     2088.765     3343.242     3343.796     80.38319     160.8943     321.6287      1.737     5.15      898.505     56.70357     365.7499        22     1.741     0.840 -26.42   0
       399    364.3422    398.7508 307.7715424  +6.4948190     508.6152     895.4272     1006.649     80.63878     160.8943     321.7567      2.004     5.38     902.1106     56.70357     76.36816         7     1.697     0.481 -18.51   0
       400   1011.9982    395.9013 307.5026087  +6.5176587     3817.683     6737.843     7405.705     80.12678     160.6383     321.3727      1.879     4.62      892.883     56.70357     493.9291        32     1.738     1.045 -14.58   0
       401    268.0801    395.1151 307.8116502  +6.4930877     1440.851     2280.794     2617.566     80.51109     161.2137     321.7886      1.737     4.20     905.4022     56.70357     255.5971        15     1.355     0.736 -23.17   0
       402    346.1690    392.8777 307.7792904  +6.4966333     2936.742     4831.743     4959.505     80.51109     160.9583     321.6607      1.763     4.31     902.1661     56.70357     418.8425        27     1.605     0.976 -23.89   0
       403    702.1003    390.7323 307.6315149  +6.5094443     1352.929     2351.783     2353.818     80.63878     161.0222     321.6607      1.657     4.68     898.7492     56.70357     239.5341        16     1.436     0.751 -19.56   0
       404    976.1006    389.5839 307.5177338  +6.5190694     624.7155     890.6816     962.0784     80.63878     160.6383     321.5007      1.944     5.97     893.5829     56.70357     103.3767         8     1.544     0.648 -19.38   0
       405    233.9887    388.8118 307.8260247  +6.4945441     789.9321     1013.955     733.0587     80.51109     160.7024     321.6607      1.285     2.83      906.147     56.70357     132.7823         8     0.806     0.716 -13.15   0
       406    543.8795    383.1711 307.6974943  +6.5072695     897.1414     1398.447     1473.845     80.51109     160.8943     321.6607      1.694     5.47     898.7101     56.70357     151.8323        12     1.383     0.646 -30.26   0
       407    465.6388    381.5150 307.7300505  +6.5053311      1167.35     1955.435     1951.311     80.63878     160.8304     321.6927      1.789     4.49     899.3776     56.70357     189.9673        12     1.246     0.700  -9.55   0
       408    828.3743    380.6473 307.5794016  +6.5178276     1329.747     1949.606     1742.372     80.25509     160.9583     321.5647      1.469     4.70     896.8766     56.70357     220.1575        13     1.358     0.651 -22.66   0
       409    814.0013    379.8058 307.5854006  +6.5176949     1910.902     3091.078     2927.316     79.99827     160.5742     321.5007      1.659     4.38     897.0831     56.70357     322.8053        21     1.706     0.779 -26.68   0
       410    711.2812    377.8642 307.6281363  +6.5150630     13997.94     22063.69     23417.75     80.76627     160.9583     321.6927      1.640     4.28     898.0352     56.70357     2265.706        39     1.693     0.922 -26.87   0
       411    613.1714    379.9737 307.6688194  +6.5109096     819.7029     1050.509     1086.177     80.12678     160.7024     321.5647      1.438     3.81     897.8314     56.70357     145.1794         9     1.083     0.635 -17.42   0
       412    632.4717    373.8264 307.6610102  +6.5140931     2400.256     3873.775     4453.797     80.25509     160.7664     321.6287      1.723     4.61     897.8232     56.70357     336.0619        24     1.629     0.835 -22.96   0
       413    607.0421    370.9925 307.6716694  +6.5144117     4948.049     8559.379     9408.348     80.12678     160.7024     321.4047      1.863     4.84     897.3287     56.70357     773.4078        28     1.790     0.923 -19.74   3
       414    603.6936    368.3382 307.6731502  +6.5153952     13459.22     21697.25     23029.73     80.51109     160.8943     321.7567      1.702     4.33     897.1912     56.70357     2019.705        40     1.728     0.964 -26.18   3
       415    936.4494    367.7868 307.5349406  +6.5267441     3637.958     5640.787     5624.508     79.99827     160.8304     321.4047      1.601     4.12     894.4086     56.70357     636.1941        25     1.593     0.781 -26.01   0
       416    375.6838    363.7039 307.7680204  +6.5096658     26266.74     43556.29     45769.71     80.63878     161.2776     321.7886      1.786     4.25     900.3267     56.70357     3732.604        56     1.786     1.075 -27.87   0
       417    892.3207    363.5760 307.5534142  +6.5270096     1412.642      2471.64     3137.002     80.25509     160.6383     321.6927      1.919     4.40     895.2711     56.70357     204.9407        17     1.489     0.807 -11.57   0
       418    121.6414    363.1155 307.8735636  +6.5013731     2139.116      3701.64     4176.526     80.63878     160.7664     321.6607      1.905     4.19     908.8451     56.70357     309.0652        23     1.475     0.943 -30.84   0
       419    905.3687    358.2366 307.5481742  +6.5296491     4706.353      7556.06     7370.877     80.25509     160.6383     321.4367      1.652     4.47     894.9387     56.70357     775.9513        26     1.609     0.857 -29.28   0
       420    586.8760    359.6501 307.6804304  +6.5184183      695.692     1056.857     1188.347     80.51109     160.9583     321.6927      1.475     3.51     896.8141     56.70357     121.5701         7     0.870     0.585 -30.87   0
       421     54.8066    358.6134 307.9014776  +6.5009822     1328.379     2269.751     2788.176     80.25509     160.7024     321.5647      1.864     4.08     910.1772     56.70357     189.5397        16     1.331     0.784 -21.50   0
       422    233.2635    354.2073 307.8275016  +6.5088032     12676.29     21300.57     22297.97     79.99827     160.6383     321.5007      1.771     4.33     905.4568     56.70357     1860.875        44     1.751     1.049 -28.58   0
       423    961.5945    355.6664 307.5249038  +6.5325861     621.7478     1054.614     767.3422     80.12678     160.5743     321.5007      1.309     3.39     892.8456     56.70357      120.072         5     1.035     0.321 -20.54   0
       424    727.4022    347.9784 307.6224501  +6.5279382     673.7507     1151.512     1402.427     80.25508     160.5743     321.4367      1.532     2.36      896.366     56.70357     160.6766         5     0.779     0.475 -35.96   0
       425     68.9189    348.0979 307.8959737  +6.5057976     725.9608     1351.722     1892.749     80.51109     161.2137     321.7886      1.862     5.01     909.5868     56.70357     108.5154         7     1.093     0.649 -24.31   0
       426    956.7639    346.5075 307.5272195  +6.5362056     942.8193     1522.604     1857.917     80.76627     160.7664     321.7247      1.881     5.17     892.7797     56.70357      147.954         9     1.130     0.719 -11.36   0
       427    695.4772    347.4136 307.6357311  +6.5271037     661.7618     974.8333     768.5994     80.25509     160.5743     321.5007      1.660     4.18     896.9726     56.70357     115.6464         7     1.102     0.453 -11.12   0
       428    345.9912    344.2087 307.7810159  +6.5167163     1197.211     1915.939     2395.813     79.99827     160.7024     321.5647      1.870     3.89     899.9113     56.70357     245.0518        16     1.432     0.721 -34.03   0
       429    178.9639    344.4635 307.8503876  +6.5109999     704.8932     1308.858      1634.41     80.51109     160.8943     321.7247      1.876     6.05      907.059     56.70357     93.40723        10     1.234     0.834 -44.43   0
       430    133.5215    342.7312 307.8693222  +6.5101866     4647.049     7793.986     8341.081     80.76627     161.1499     321.6607      1.833     4.20     908.2374     56.70357      651.238        33     1.751     0.969 -24.77   0
       431    238.5188    341.5958 307.8257471  +6.5141853     1253.006     1860.572      1725.69     80.12679     160.4461     321.4047      1.655     4.55     904.5587     56.70357     182.5045        12     1.236     0.762 -23.93   0
       432    155.6619    338.5649 307.8602673  +6.5126509     2296.433     4110.081     4777.251     80.51109     160.8943     321.6607      1.955     4.51     907.6591     56.70357     354.5035        24     1.630     0.958 -38.25   0
       433    819.3268    339.3191 307.5845561  +6.5345848     721.3546     1230.907     1411.977     80.89356     161.1499     321.7247      1.817     4.54     895.5019     56.70357     85.33557         8     0.996     0.588 -20.16   0
       434    551.0370    337.8302 307.6960568  +6.5262247      797.503     1357.708     1798.891     80.25509     160.6383     321.5327      1.508     4.66     895.8258     56.70357     132.8281        10     1.356     0.536 -17.59   0
       435    967.6048    332.7053 307.5231815  +6.5422645     770.5898     1498.201     2266.749     80.38319     160.5743     321.4367      2.647     5.61      891.764     56.70357     126.6195        10     1.471     0.604 -34.78   2
       436    379.1250    333.4543 307.7676173  +6.5222673     1926.729      3238.84     2572.654     80.51109     160.8943     321.7247      1.696     4.32     899.0445     56.70357      281.214        19     1.516     0.779 -30.16   0
       437    266.7530    334.1624 307.8142716  +6.5182022     723.5742     1262.333     1185.263     80.51109     160.8304     321.5967      1.877     4.47     902.8097     56.70357     145.6178         7     1.208     0.469 -35.95   0
       438    312.8559    331.7639 307.7952024  +6.5207406     550.7657     1164.693     1009.321     80.51109     160.8943     321.7247      2.084     3.45     900.8403     56.70357     79.66663         5     1.001     0.343 -44.20   0
       439    432.7989    327.0696 307.7455379  +6.5267033     6658.719     11298.52     11971.53     79.99827     160.4461     321.5327      1.740     4.18     897.3987     56.70357     995.7805        42     1.810     1.066 -30.22   0
       440     29.2064    327.9618 307.9131544  +6.5127719     2921.781     5444.853     6202.018     79.74062     160.6383     321.4367      2.056     4.97     909.9583     56.70357     413.8745        29     1.834     0.918 -33.20   0
       441    773.4570    324.4692 307.6041130  +6.5391819      12268.6     19359.59     20429.54     80.76627     160.8304     321.6607      1.726     4.35      895.161     56.70357     1757.832        42     1.747     0.951 -24.25   2
       442    765.6935    325.9333 307.6072886  +6.5383181     1844.832     3066.871     3486.411     80.51109      161.086     321.6927      1.805     4.35     895.2682     56.70357     328.3737        18     1.475     0.780 -23.79   3
       443    193.2233    326.6362 307.8450705  +6.5188377     600.9567     788.5692     703.0272     80.25509     160.6383     321.4687      1.403     3.37     905.7986     56.70357     107.3726         5     0.770     0.427 -20.17   0
       444    337.0669    322.8110 307.7854492  +6.5252489     1044.854     1952.236     2025.228     80.12678     160.7664     321.5327      1.861     5.56     899.8046     56.70357     149.2026        16     1.486     0.999 -17.13   0
       445   1017.2717    319.7011 307.5029871  +6.5492886     3299.941     4961.398     4757.582     80.38319      161.086     318.8011      1.611     4.42     889.5718     56.70357     491.7479        22     1.555     0.823 -23.15  16
       446    948.0732    315.8468 307.5318642  +6.5485718     477.3295     870.6292     1177.899     80.51109     160.9583     321.6927      1.552     3.44      891.884     56.70357     120.9767         5     1.321     0.259  11.13   0
       447    182.4369    314.8818 307.8499505  +6.5233268      612.496     959.3323     1418.431     80.63878     160.9583     321.6607      1.713     5.24     905.7764     56.70357     100.8687         7     1.158     0.670  -8.19   0
       448    453.1931    311.2887 307.7376011  +6.5339011     2024.246     3372.591     3518.937     80.12678     160.5743     321.4367      1.767     4.40     895.7491     56.70357      335.274        21     1.581     0.808 -29.49   0
       449    388.4136    313.2143 307.7644455  +6.5309334     514.5601     936.1813     1316.743     80.51109     160.5743     321.6287      2.022     4.87     898.0364     56.70357     85.68756         5     1.073     0.627 -24.86   0
       450    481.0709    310.6195 307.7260432  +6.5351120     2925.572      5052.62     5292.725     80.25508     160.7664     321.6287      1.805     4.70     894.7567     56.70357     388.4983        26     1.683     0.895 -25.71   0
       451    909.7149    310.4691 307.5479809  +6.5495117     713.9993     1191.623     1552.587     80.76627     161.1499     321.7247      1.715     4.36     892.7556     56.70357     113.4025         7     1.179     0.460 -38.23   0
       452    838.8500    307.3695 307.5775249  +6.5484251      30013.5     50502.23     53631.82     80.25509     161.0222     321.5967      1.792     4.33     894.1001     56.70357     4178.279        63     1.765     1.149 -31.11   0
       453    983.5116    307.5889 307.5174206  +6.5531626     542.0792     581.3711    -0.713932     80.25509     160.6383     321.5327      1.255     4.67     890.4708     56.70357     92.58063         6     0.956     0.690 -22.41   0
       454    330.7323    302.6064 307.7887664  +6.5333761     743.5937      1095.75     890.4262     80.12678     160.6383     321.5007      1.527     4.99     899.5469     56.70357     118.9683         8     1.154     0.636 -17.23   0
       455    610.5515    299.7202 307.6726243  +6.5439485     2595.467     4035.474     4647.951     80.63878     160.9583     321.6927      1.687     4.29     895.3328     56.70357     382.5408        25     1.501     0.954 -34.48   0
       456     19.0669    299.9396 307.9183202  +6.5239967      1027.38     1455.307     1120.872     80.76627     160.8304     321.6927      1.508     4.94     909.4737     56.70357     179.3133        10     1.284     0.646  -8.66   0
       457    695.2943    293.3496 307.6376358  +6.5494139     74872.75       119193     125823.7     80.51109     160.7664     321.9165      1.717     4.18     894.8945     56.70357     11752.01        83     1.802     1.090 -26.21   0
       458    853.4595    294.8173 307.5718796  +6.5540943     1030.214       1661.4      2155.35     80.25509     160.7664     321.4367      1.693     5.06     893.6312     56.70357     187.1906        13     1.605     0.525 -17.82   0
       459     74.3879    292.9379 307.8955791  +6.5287494     1226.899     2187.934       2041.6     80.12678     160.7024     321.4367      1.700     4.59     908.8394     56.70357     180.9694        13     1.371     0.740 -32.26   0
       460    557.8911    289.9185 307.6948324  +6.5462310     2429.865     3992.136     4074.382     80.38319     161.1499     321.7567      1.668     4.19     894.1431     56.70357     363.7865        21     1.606     0.767 -32.89   0
       461     95.0029    288.8197 307.8871560  +6.5311430     5591.415     9614.205     10140.64     80.25509     160.4461     321.4367      1.805     4.39     908.6282     56.70357     858.6397        34     1.678     1.014 -26.08   0
       462    936.9619    290.5669 307.5373332  +6.5586362     816.6439     1386.567     1128.283     80.38319     160.7024     321.4687      1.599     4.67     891.0191     56.70357     139.9287         8     1.422     0.434 -10.14   0
       463    384.0923    290.6198 307.7670072  +6.5401147     588.2556     632.9202     778.7305     80.51109     160.6383     321.5327      1.531     4.18     897.2692     56.70357     88.19244         7     1.288     0.388 -13.75   0
       464    541.1241    286.1847 307.7019242  +6.5472105     6617.128     11110.64     11408.09     80.12678     160.6383     321.5647      1.745     4.61     893.7025     56.70357     988.9526        39     1.782     0.987 -25.90   0
       465    269.8505    283.8864 307.8146926  +6.5390584     2508.091     4115.972     4405.212     80.63878     160.7664     321.7886      1.768     4.58     900.8886     56.70357     345.2799        24     1.691     0.861 -27.50   0
       466    403.9389    281.3835 307.7590760  +6.5445931     23878.89      39620.5     41705.44     80.12678     160.8304     321.5007      1.757     4.36     895.9969     56.70357     3441.912        56     1.759     1.085 -26.55   0
       467    511.4136    280.2481 307.7144677  +6.5486654     1291.435     1982.263     1893.394     79.99827     160.8304     321.4047      1.649     3.58     893.4835     56.70357     213.4663        13     1.166     0.719 -24.97   0
       468    582.4489    280.5016 307.6849495  +6.5509405     579.5817     557.4631     447.3358     80.63878     160.8304     321.8846      1.332     3.79     894.2035     56.70357     80.18585         6     0.991     0.416 -17.97   0
       469    383.7893    279.2407 307.7675191  +6.5448015     992.3674      1474.35     2483.831     79.99827     160.7024     321.4047      1.670     4.63     896.8921     56.70357     146.5295         8     1.198     0.508 -29.99   0
       470    483.3719    276.3216 307.7262499  +6.5493463     1022.881     1864.517     1967.976     80.51109     160.8304     321.6927      2.271     5.84     893.4302     56.70357     184.3983        12     1.463     0.657 -25.67   0
       471    798.8004    273.8970 307.5952937  +6.5609039     744.6401     1328.228     1608.016     80.12678     160.5102     321.2446      1.918     5.02      893.161     56.70357     108.8295         9     1.366     0.522 -27.59   0
       472    634.7224    273.7702 307.6634615  +6.5554691      624.358     1194.303     683.3927     80.51109     160.9583     321.6927      1.951     4.71     894.4675     56.70357     100.8002         6     1.417     0.444 -25.33   0
       473    493.0059    271.7778 307.7224017  +6.5515447     7968.758      13139.5     14093.55     80.25509     160.6383     321.5327      1.731     4.36     893.2482     56.70357     1220.653        35     1.677     0.969 -26.66   0
       474    380.4555    274.2516 307.7690733  +6.5467489     710.0859     1283.427     2215.484     80.63878     160.8943     321.6607      2.241     3.60     896.9336     56.70357     117.3132         6     0.714     0.673 -14.74   0
       475    762.3166    270.4622 307.6105665  +6.5611024     2881.001     4668.687     5189.857     80.76627     160.8943     321.6927      1.679     4.62     893.3686     56.70357     411.9543        23     1.715     0.796 -24.30   0
       476    917.4901    270.5031 307.5460997  +6.5662683     890.1787     1230.029     1230.726     80.63878     161.3413     321.6927      1.497     4.54     891.0306     56.70357     126.5859        11     1.300     0.619 -26.04   0
       477    709.5319    270.4077 307.6324970  +6.5593600     679.7712     1131.807     890.2686     80.12679     160.6383     321.5967      1.656     4.59     893.8854     56.70357     109.9915         8     1.306     0.457 -52.38   0
       478    319.5171    268.4019 307.7945865  +6.5471179     937.0781      1419.54     1543.363     79.99827     160.5102     321.4047      1.721     5.87     899.1801     56.70357     130.4055        12     1.525     0.636 -40.50   0
       479    155.1811    262.1725 307.8630646  +6.5441665     1145.347     1536.816     1359.832     80.25508     160.7024     321.5967      1.477     5.27     905.8983     56.70357      162.538        11     1.200     0.654 -40.41   0
       480    431.8260    262.3036 307.7481384  +6.5534041     585.2695     878.5897     832.0151     80.76627     160.6383     321.5967      1.353     3.38     894.4077     56.70357     107.9226         5     0.774     0.426 -15.47   0
       481    254.3366    262.1325 307.8218761  +6.5475163      644.308     1019.878     1395.514     80.63878     160.8943     321.7247      1.667     4.14     901.3423     56.70357     95.50635         6     0.768     0.636 -18.71   0
       482    382.9406    256.0028 307.7686601  +6.5543648     6714.365     11236.19      11983.4     79.99827     160.6383     321.4047      1.767     4.38     896.2571     56.70357       997.82        36     1.685     1.039 -28.58   0
       483    238.8913    256.3664 307.8284882  +6.5493774     1962.018     3357.055     3816.553     80.76627     160.7664     321.6927      1.863     4.96     901.7831     56.70357     281.8431        21     1.592     0.961 -21.97   0
       484    736.4977    255.7863 307.6217889  +6.5662971       940.61     1263.849      1362.07     80.51109     160.6383     321.4367      1.475     4.14     893.2298     56.70357     196.1438         9     1.270     0.463 -27.65   0
       485    750.7958    251.9103 307.6159799  +6.5683751     49849.45     80567.75     84404.68     80.12678     160.5743     321.4047      1.665     4.36     893.0159     56.70357     7714.858        67     1.763     1.044 -26.64   0
       486    422.4004    251.4598 307.7524218  +6.5575639     2071.167     3316.539     2872.771     79.86955     160.6383     321.3727      1.727     4.41     894.3837     56.70357     273.8615        20     1.507     0.798 -21.84   0
       487    985.6844    248.9749 307.5184949  +6.5774299     1599.461     2805.344     2539.653     80.76627     160.6383     321.5967      1.647     5.12      888.767     56.70357     269.1516        19     1.743     0.741 -21.95   0
       488    926.4995    248.0988 307.5431130  +6.5758171      2291.59     3650.648     3600.174     80.63878     161.2776     321.5327      1.702     5.05     890.1876     56.70357     358.3597        20     1.548     0.793 -21.84   0
       489    568.5941    248.5738 307.6917864  +6.5636553     1108.978     1635.076     1419.233     80.12679     160.7024     321.5007      1.589     4.68      892.389     56.70357     161.9412        11     1.243     0.595 -40.69   0
       490    459.5279    247.5443 307.7371308  +6.5604252     991.4443     1664.638     1895.583     80.51109     160.8304     321.6607      1.677     6.07     893.1686     56.70357     139.1338        14     1.438     0.720 -24.51   0
       491    409.1078    246.8849 307.7580990  +6.5590063     1918.247     3445.764     3631.402     80.38319     161.3413     321.7886      1.834     4.86     894.7885     56.70357     277.2728        25     1.713     0.892 -22.24   0
       492    288.7358    246.4267 307.8081197  +6.5551547     657.4227     1073.838     479.7742     80.25509     160.8304     321.5967      1.592     4.67     900.2488     56.70357     110.9557         7     1.018     0.608 -24.55   0
       493    830.0388    241.4542 307.5834120  +6.5753392       1111.7     1658.734     2042.782     80.63878     160.9583     321.6927      1.534     5.23     891.9472     56.70357     154.5447        13     1.320     0.716 -23.48   0
       494    459.1029    241.6600 307.7375069  +6.5628398     757.5836     1208.798     1060.321     80.38319     160.8943     321.7886      1.495     4.26     893.0146     56.70357     122.8668         7     1.096     0.473 -48.09   0
       495    439.5598    238.4444 307.7457347  +6.5635117     1197.872     1768.466     2180.772     80.38319     160.8943     321.5967      1.643     5.00     893.4681     56.70357     177.5357        13     1.192     0.810 -14.51   0
       496    185.5715    238.1796 307.8512560  +6.5550917     2081.903     3600.938     3881.567     80.12678     160.7024     321.6287      1.849     5.03      904.204     56.70357     307.3903        19     1.706     0.743 -19.72   0
       497    749.2811    236.4188 307.6171329  +6.5747189     5757.243     9129.057     9991.429     80.25509     160.5743     321.6287      1.697     4.20     892.6373     56.70357      876.285        32     1.690     0.879 -25.52   0
       498    339.9285    235.8454 307.7872125  +6.5612414     768.2119     1327.353     1183.679     80.51109     160.8943     321.6927      1.671     6.95     897.6866     56.70357     124.9668        12     1.784     0.759 -36.87   0
       499    220.9768    236.4520 307.8366068  +6.5569951     765.1942     1215.129     1434.139     80.12678     160.8943     321.5647      1.654     5.35      902.327     56.70357     113.1801        11     1.369     0.591 -42.38   0
       500    765.6870    234.4105 307.6103850  +6.5760963     2484.038     3967.845     4246.854     80.25509     160.6383     321.5327      1.710     4.67     892.4686     56.70357     368.6376        19     1.457     0.811 -33.12   0
       501     81.8555    235.4069 307.8944349  +6.5527470     1016.876     1696.538     1536.241     80.12678     160.7024     321.4047      1.749     4.81     907.5585     56.70357     148.2567        15     1.393     0.768 -20.43   0
       502    466.9872    233.3452 307.7345134  +6.5665363     452.5191     656.8057    -198.7033     79.99827     160.8304     321.4047      1.528     4.09      892.494     56.70357     74.22876         6     1.426     0.335 -28.03   0
       503     68.9498    229.5543 307.8999952  +6.5547282     1394.172     2537.911     2595.731     80.63878     160.7664     321.7567      1.902     5.56     907.8807     56.70357     168.8057        19     1.584     0.906 -13.29   0
       504    354.8884    229.0590 307.7812281  +6.5645448     1624.611     3304.494     3973.042     80.51109     160.8943     321.7886      2.152     6.67     896.7272     56.70357     214.9573        23     1.892     0.844 -12.53   0
       505   1003.8202    225.3351 307.5117576  +6.5877927     5527.612     8666.943     9041.281     80.25509     160.8943     321.5327      1.628     4.21     887.5608     56.70357     922.7599        29     1.570     0.882 -23.62   0
       506    482.0646    225.0954 307.7285294  +6.5704470      1858.95     3008.589     2624.432     80.51109     161.0222     321.7247      1.660     4.94     891.7905     56.70357     264.7607        19     1.497     0.814 -24.20   0
       507    244.4474    220.7434 307.8273905  +6.5642678     5392.595     8923.613     9343.603     80.63878     160.8943     321.7886      1.769     4.43     901.4865     56.70357     750.5903        31     1.642     1.007 -26.74   0
       508    911.6140    219.7698 307.5502535  +6.5870139     607.4672     983.4007     611.6588     80.25509     160.6383     321.6287      1.618     4.09     889.6527     56.70357     96.46954         6     1.066     0.449 -33.43   0
       509    809.1155    219.1972 307.5928567  +6.5838274     515.3362     818.9974     1063.555     79.99827     160.5102     321.4047      1.507     4.44     891.6333     56.70357      86.7674         5     0.787     0.713   0.24   0
       510    935.1900    216.0090 307.5405855  +6.5893530     632.6507     874.4081     602.2681     80.25509     160.7024     321.5967      1.343     3.97     888.9551     56.70357     110.3636         6     0.930     0.484 -50.23   0
       511    763.6877    214.2068 307.6118986  +6.5843691     837.9791     1171.568     1386.475     80.12678     160.5743     321.4367      1.532     5.34     891.9693     56.70357     137.2784        11     1.211     0.664  -6.79   0
       512    220.9177    213.6024 307.8374079  +6.5664245     533.5189     1034.006     1363.311     79.99827     160.5102     321.3727      2.095     4.23     902.1217     56.70357     81.52002         5     1.522     0.336 -28.12   0
       513    378.7399    211.5469 307.7719137  +6.5725737     1520.779     2628.603     2504.696     80.63878     160.8304     321.6927      1.874     5.53     895.3784     56.70357     205.3165        14     1.345     0.732 -23.85   0
       514    965.4741    210.6035 307.5281859  +6.5925947     992.1476     1546.425     2016.222     80.12679     160.3819     321.5967      1.680     5.15     887.9952     56.70357     199.3693        10     1.286     0.585 -21.30   0
       515    300.7462    207.6384 307.8044476  +6.5715685     1131.013       1908.7     1831.736     80.63878     160.9583     321.6927      1.846     4.22     899.5801     56.70357     150.3752        13     1.229     0.707 -36.43   0
       516    148.6464    207.2255 307.8676479  +6.5666265     1577.234     2725.831     2778.247     80.25509     160.9583     321.5647      1.757     4.91     905.0043     56.70357     226.6641        17     1.558     0.781 -30.98   0
       517    558.1387    202.9592 307.6976751  +6.5821335     2059.291     3418.563     3107.093     80.63878     160.8943     321.7247      1.695     4.42     890.7246     56.70357     310.0571        22     1.583     0.827 -25.20   0
       518    901.9620    202.1844 307.5548572  +6.5939506     1599.288     2907.571     3407.133     80.38319     160.7024     321.4367      2.133     4.52      889.068     56.70357     279.5172        18     1.482     0.827 -23.52   0
       519    721.6286    200.6498 307.6298308  +6.5885588     4773.369     7649.368     7877.623     80.25509     161.0222     321.5967      1.685     4.32     892.0073     56.70357     718.3272        30     1.725     0.891 -25.36   0
       520    662.3472    200.3751 307.6544689  +6.5866891     1974.353     3180.272     3550.665     80.12678     160.8943     321.5967      1.770     4.27     891.9532     56.70357     315.9024        22     1.614     0.875 -15.86   0
       521    959.9879    200.1762 307.5308171  +6.5967159     545.7052     726.1109     1373.142     80.25509     160.7024     321.6287      1.361     4.09     887.6192     56.70357     119.5082         6     1.108     0.432 -26.91   0
       522    917.5697    192.7382 307.5486916  +6.5983707     1144.351     1556.423      1772.01     80.38319     160.8943     321.6287      1.439     4.31     888.2178     56.70357     172.9258        11     1.198     0.633 -20.56   0
       523    221.1947    185.7757 307.8382386  +6.5779196     2229.507      3789.64     3946.624     80.12678     160.6383     321.5327      1.811     4.63      901.738     56.70357     289.2616        23     1.572     0.932 -31.75   0
       524    863.8199    184.8609 307.5712890  +6.5998279     1570.812     2289.975     1860.895     80.25508     160.8304     321.6287      1.557     4.52     889.4948     56.70357     281.0702        15     1.415     0.690 -20.51   0
       525    754.4233    184.1403 307.6167641  +6.5964701     1424.672     2286.329     2336.659     80.25509     160.8304     321.5327      1.589     5.10     891.3546     56.70357     248.6007        16     1.587     0.699 -27.66   0
       526    242.2664    180.1076 307.8296774  +6.5809674     485.9365     695.9017     632.2628     80.51109      161.086     321.6927      1.752     4.47     901.1962     56.70357     92.85046         5     1.285     0.443 -61.04   0
       527    455.1116    175.7393 307.7414003  +6.5899159     21084.62     34808.53     36560.89     80.63878     161.0222     321.7247      1.766     4.30     891.4881     56.70357     2981.324        50     1.790     1.048 -27.49   2
       528    460.4034    170.4682 307.7393806  +6.5922691     1434.095     2508.962      2890.41     79.99827     160.5102     321.4687      1.967     5.18     891.2188     56.70357     193.2129        16     1.463     0.853 -31.40   3
       529    316.4233    177.2866 307.7989655  +6.5846231     582.8819     1303.067     1296.137     80.63878     160.7024     321.5647      1.875     4.10      898.759     56.70357      105.277         5     1.715     0.280 -27.37   2
       530    781.1238    174.9023 307.6059832  +6.6011758     12223.58     20262.93     21809.25     80.25509     161.1499     321.6927      1.750     4.49     890.5466     56.70357     2111.563        44     1.793     0.983 -25.77   0
       531    719.2407    170.5115 307.6318422  +6.6009193     536.8511     946.2916     842.4642     80.63878     160.8304     321.7247      1.591     3.42     891.4606     56.70357      105.651         5     1.047     0.323 -22.53   0
       532    143.2197    168.8307 307.8712082  +6.5822916     2160.184     3352.844     3713.469     80.12678     160.7024     321.5647      1.689     4.24     903.7733     56.70357     315.1882        23     1.499     0.935 -34.53   0
       533    117.4604    168.2920 307.8819277  +6.5816472     1110.199     1885.852     2540.441     80.51109     160.8943     321.7886      1.872     4.77     904.8405     56.70357     175.2203        13     1.343     0.793 -18.11   0
       534    772.7048    167.0093 307.6097479  +6.6041524     601.6132     1060.082       1809.6     80.38319     160.5102     321.4687      2.214     4.53     890.4853     56.70357     129.4992         6     1.326     0.597  11.87   2
       535    169.9630    167.0289 307.8601594  +6.5839349     640.1993     885.5175     1055.019     80.25509     160.6383     321.5327      1.652     4.18      902.711     56.70357      83.6095         7     0.908     0.550 -42.99   0
       536    917.4923    165.1590 307.5496547  +6.6097522     1300.951      1547.44     1474.484     80.76627     160.8304     321.7886      1.414     4.18     886.8919     56.70357     226.3069        12     1.223     0.645 -26.21   0
       537    615.0140    163.0197 307.6753985  +6.6005240     476.8491     972.6744      1544.62     80.38319     160.6383     321.5967      2.193     3.78     890.6869     56.70357     80.37561         5     1.540     0.266 -22.39   0
       538    579.1057    161.5006 307.6903686  +6.5999486     4204.761     7020.872     7690.683     80.63878     161.4051     321.5327      1.801     4.21     890.4515     56.70357     599.8975        31     1.638     0.977 -32.28   0
       539    299.2362    162.0522 307.8066231  +6.5903340     894.8725     1564.857     1289.953     80.51109     160.8943     321.7247      1.760     4.69     899.7158     56.70357      136.808         8     1.148     0.567 -44.72   0
       540    541.9366    161.3934 307.7058146  +6.5987478     2049.885     3381.242     3827.729     79.99827     160.5743     321.4687      1.784     4.98     890.3023     56.70357     259.7317        18     1.522     0.762 -24.22   0
       541    383.6730    160.5514 307.7715949  +6.5937884     1479.491     2486.134     2725.675     80.63878     160.9583     321.7247      1.892     4.63     894.4722     56.70357     201.7363        19     1.490     0.918 -24.01   0
       542    886.1921    158.1192 307.5628970  +6.6116133     10523.81      16611.4     16742.33     80.25508     160.5102     321.5327      1.617     4.19     887.7866     56.70357     1869.294        34     1.646     0.886 -25.30   0
       543    940.0999    158.6263 307.5404822  +6.6132032     2595.483     4008.512     4008.737     80.63878     160.6383     321.5967      1.601     4.26     886.0607     56.70357     369.0905        22     1.657     0.785 -17.96   0
       544    561.3467    158.0462 307.6978638  +6.6007797     893.1017     1302.658     1068.416     80.63878     160.8943     321.7247      1.561     6.05     890.3187     56.70357     139.4205        11     1.429     0.720 -28.55   0
       545    313.8722    158.3815 307.8006673  +6.5923407     866.0715     1609.349     2201.216     80.12678     160.8304     321.6287      2.053     5.40     898.9131     56.70357     133.5287         9     1.428     0.576 -33.42   0
       546     12.2956    154.6128 307.9260820  +6.5837526     23884.61     39434.76     41756.26     80.38319     160.6383     321.5007      1.769     4.34     907.7592     56.70357     3326.936        53     1.781     1.081 -29.40   0
       547    972.7748    155.9612 307.5269963  +6.6153934     9315.551     14804.97     15547.18     80.25508     160.7024     321.5007      1.653     4.19     885.5857     56.70357     1500.807        36     1.653     0.935 -26.25   0
       548    205.5177    158.0274 307.8456947  +6.5888459     706.5576     1021.925     897.6984     80.51109     160.7024     321.6287      1.379     3.59     901.6987     56.70357      136.392         6     1.159     0.320 -37.46   0
       549    684.2219    155.8357 307.6468880  +6.6058057     2658.969     4086.608     4365.741     80.12678     160.6383     321.4367      1.587     4.34     891.1407     56.70357     406.8421        21     1.576     0.780 -26.10   0
       550    258.5154    155.5820 307.8237602  +6.5916366     1005.229     1451.972     1511.012     80.25509     160.6383     321.6287      1.667     6.24     900.7721     56.70357     164.9865        15     1.703     0.741 -28.28   0
       551    492.8845    150.9110 307.7265491  +6.6014306     1837.272     2886.198     2492.235     80.38319     161.1499     321.7886      1.678     4.72     890.4228     56.70357     260.4266        17     1.383     0.845 -23.18   0
       552    824.6310    147.2433 307.5888418  +6.6140466      1892.23     2816.694     2879.764     80.25509     160.8304     321.5327      1.587     4.72     888.6696     56.70357     271.4379        16     1.405     0.770 -29.62   0
       553    504.8396    146.6148 307.7217279  +6.6036047     2363.865     4004.862     4040.299     80.25509     160.7024     321.4687      1.739     4.53     890.3445     56.70357     326.7092        25     1.698     0.840 -27.18   0
       554    877.2407    146.4013 307.5670119  +6.6161513       1812.2     2990.759     3164.452     79.86955     160.6383     321.4047      1.753     5.32     887.6259     56.70357      287.377        17     1.629     0.685 -22.06   0
       555    736.3713    144.0427 307.6256201  +6.6124178     37719.77     60217.37     63171.49     80.25508     160.9583     321.5647      1.673     4.18     890.2828     56.70357     6480.023        56     1.735     1.010 -25.03   0
       556    339.4127    143.3296 307.7905676  +6.5994112     5517.838     11898.06     13804.83     80.12678     160.6383     321.5647      2.324     6.33     897.8387     56.70357     634.6418        49     2.108     1.269 -55.49   0
       557    970.1446    142.8174 307.5285326  +6.6207312     2607.795     4069.239     4328.761     80.12678     160.8304     321.4367      1.623     4.19     885.2899     56.70357     444.1644        21     1.483     0.793 -24.18   0
       558    904.3423    141.1601 307.5559286  +6.6192195     7155.787      10920.7     11345.81     80.63878     160.9583     321.7247      1.605     4.04     886.5942     56.70357     1264.479        29     1.598     0.849 -23.38   0
       559   1008.4863    141.3686 307.5126508  +6.6226080     1686.339     2616.131     2097.585     80.63878     160.7024     321.6287      1.612     4.30     884.6893     56.70357     274.4717        15     1.435     0.658 -28.22   0
       560    447.7796    140.1605 307.7456531  +6.6043557     4616.121     7698.625     8073.542     80.25508     160.7024     321.4367      1.716     4.42     891.3199     56.70357     667.6552        30     1.643     0.930 -24.03   0
       561    221.9470    136.9387 307.8395861  +6.5981028     645.7984     1011.506     359.6757     80.63878     160.8304     321.6607      1.552     3.88     901.3555     56.70357     102.9653         5     0.814     0.529 -26.36   0
       562    105.0244    131.4526 307.8883476  +6.5964344     4390.339     7403.923     7722.446     80.12678     160.8943     321.5967      1.783     4.52     904.2938     56.70357     610.2166        32     1.618     0.996 -27.56   0
       563    924.5789    130.9156 307.5478663  +6.6241236     889.8429     1440.561     1527.798     80.38319     160.5743     321.5967      1.727     4.53      885.736     56.70357      141.154         9     1.330     0.785  -8.49   0
       564    275.4490    128.1437 307.8176574  +6.6035310     31490.79     52121.95     55657.34     80.63878     160.8943     321.7886      1.779     4.20     900.6093     56.70357     4450.226        59     1.792     1.115 -27.69   0
       565    250.8305    129.1362 307.8278515  +6.6022941     6059.645     10031.23     10608.21     80.38319     160.9583     321.6287      1.745     4.29     900.9443     56.70357     854.5292        33     1.684     0.973 -28.52   0
       566    601.8004    129.7266 307.6820157  +6.6138240     553.4963     996.5781     1499.657     79.86955     160.2536     321.5327      2.488     4.69     890.0219     56.70357     78.37805         6     0.987     0.632 -33.67   0
       567    704.8687    127.6417 307.6392636  +6.6181341     916.2316     1394.027     1703.471     80.51109     160.8304     321.7886      1.634     4.29     889.7993     56.70357     139.5227        12     1.185     0.857 -30.58   0
       568    399.5425    123.6258 307.7662548  +6.6095624     46746.01     76882.73     81165.09     80.25509     160.8943     321.5327      1.758     4.16     893.5665     56.70357     6843.546        64     1.792     1.085 -28.50   0
       569    155.4942    124.8611 307.8676044  +6.6008532     3778.953     6129.619      6356.25     80.51109     160.9583     321.7247      1.716     4.13     902.2861     56.70357     559.5093        26     1.619     0.903 -27.42   0
       570    416.6717    124.3095 307.7591150  +6.6098549     1250.748     1961.368     1260.814     80.51109     161.1499     321.6927      1.645     5.18     892.1071     56.70357     177.4969        14     1.492     0.608 -22.54   0
       571    303.5084    121.3617 307.8062303  +6.6072729     17094.64     28156.67     30562.71     80.76627     160.8304     321.7247      1.802     4.30     899.7935     56.70357     2223.695        52     1.798     1.091 -31.05   3
       572    310.8605    121.3677 307.8031755  +6.6075174     1937.751     3468.066     5036.372     80.38319     160.9583     321.6287      2.265     5.30     899.4908     56.70357     261.9656        22     1.625     0.885 -22.21   3
       573    738.8153    119.9215 307.6254205  +6.6224560     30602.25     49453.32     51870.87     80.25508     160.6383     321.5327      1.674     4.35     888.8679     56.70357     4721.892        53     1.737     1.008 -26.72   0
       574    686.9819    121.4930 307.6469033  +6.6200737     1000.945     1532.422     1429.656     80.51109     160.6383     321.5647      1.711     3.81     889.7784     56.70357     151.2993        12     1.114     0.758  -3.84   0
       575    787.1270    120.3144 307.6053343  +6.6239089     960.7153     1869.366     2550.619     80.76627     161.2137     321.6927      1.911     6.14     888.1905     56.70357     163.9767        12     1.819     0.583 -17.07   0
       576     55.6107    117.1014 307.9093647  +6.6006944     8326.269     13994.83     14332.05     80.38319     160.5102     321.5007      1.770     4.21     906.0834     56.70357     1215.568        36     1.685     1.008 -28.15   0
       577    562.4808    118.3098 307.6987388  +6.6172196     611.7751     896.9806     1306.403     80.38319      161.086     321.7886      1.540     4.12     889.7704     56.70357     82.63934         6     1.097     0.442 -34.48   0
       578     89.5517    115.0487 307.8953340  +6.6026843     1296.839     2069.866     1809.031     80.63878     160.7664     321.6927      1.548     4.21     904.4255     56.70357     206.1539        13     1.357     0.709 -27.73   0
       579    997.2156    114.3366 307.5182456  +6.6333903     1020.055     1646.396     2090.838     80.12678     160.7664     321.5327      1.703     5.00     884.0582     56.70357     134.1418        12     1.472     0.619 -30.18   0
       580    572.3839    104.5848 307.6950892  +6.6232166     853.7773      1388.58     1588.065     80.38319     160.5743     321.6287      1.762     6.69     889.5962     56.70357     114.6265        14     1.422     0.980 -67.17   0
       581    998.1704    100.6864 307.5183094  +6.6390567      2115.08     3357.476     3329.636     80.76627     160.5743     321.5967      1.656     4.42     883.6579     56.70357     315.1912        21     1.427     0.989 -26.44   0
       582    274.3327     94.4558 307.8192657  +6.6173985     28532.61     46965.43     50984.28     80.76627     160.7664     321.6607      1.808     4.33      900.725     56.70357     3760.108        76     2.033     1.160 -26.97   0
       583    581.4608     97.9810 307.6915416  +6.6262464     985.9016     1590.393     1881.496     80.25508     160.8304     321.5327      1.897     5.06     889.4955     56.70357     137.5945        10     1.230     0.589 -18.82   0
       584    589.3644     96.2469 307.6883165  +6.6272269     1866.491     3045.491     2993.797     80.25509     160.8304     321.6287      1.690     3.97     889.4555     56.70357     288.3247        20     1.486     0.775 -26.11   0
       585    333.7082     96.3522 307.7945326  +6.6186101     957.6027     1719.449     1965.169     80.63878     160.8304     321.8206      1.785     6.04     898.9398     56.70357     136.0713        13     1.505     0.707 -15.52   0
       586     19.7551     92.7776 307.9250891  +6.6095264     4313.511     6996.859     7303.611     80.12678     160.8943     321.5327      1.757     4.51     908.0641     56.70357     597.8815        28     1.611     0.920 -30.34   0
       587    706.0403     91.0402 307.6400151  +6.6332813     7618.157     12124.34     13271.26     80.38319     161.0222     321.5647      1.639     4.39     888.1996     56.70357     1257.615        33     1.626     0.918 -23.44   0
       588    183.1404     92.6001 307.8572159  +6.6150990     854.4369     1576.771     1124.964     79.86955     160.6383     321.3407      1.960     4.87     901.5063     56.70357      117.245         8     1.140     0.590 -25.97   0
       589    260.1809     89.3489 307.8253188  +6.6190309     586.2949     1050.574     1364.884     80.12678     160.9583     321.4687      2.032     5.42     900.9064     56.70357     88.54907         7     1.453     0.571 -29.79   0
       590    116.7987     88.1036 307.8849311  +6.6147231      4442.48     7377.042     7810.038     80.12678     160.5743     321.3407      1.732     4.28     902.7864     56.70357     646.8158        32     1.733     0.959 -26.36   0
       591    577.6442     86.3267 307.6935221  +6.6309291     815.2478       1543.6     1507.769     80.51109     160.9583     321.7247      2.033     5.89      889.207     56.70357     133.0137         9     1.376     0.709  38.39   0
       592    456.0029     85.3774 307.7440945  +6.6272440     1204.019     2068.416     2278.279     80.25508     160.5743     321.4687      1.638     5.18     890.9274     56.70357     193.1447        13     1.584     0.607 -18.05   0
       593    387.5217     84.0446 307.7725923  +6.6254967     3528.678     6548.101     6624.287     80.51109     160.8943     321.6927      1.955     4.41     895.0092     56.70357     435.2979        37     1.714     1.208 -30.33   0
       594    644.1028     85.1266 307.6659499  +6.6336498     782.7759      1220.01     1118.082     80.25509      161.086     321.6927      1.634     4.50     889.0262     56.70357     116.4774         7     0.902     0.637 -29.13   0
       595    351.8834     83.0659 307.7874324  +6.6247044     2988.621     5141.319     5937.986     80.76627     161.1499     321.7567      1.879     4.27      898.299     56.70357     458.8786        30     1.794     0.952 -27.08   0
       596    106.1016     82.8358 307.8895546  +6.6165373     1531.653      2403.72     2261.955     80.63878     160.7664     321.8846      1.593     4.97     902.9922     56.70357     246.9463        14     1.423     0.657 -30.30   0
       597    564.2122     83.2596 307.6992069  +6.6317452     549.1616     918.9147     833.0595     79.99827     160.7664     321.4047      2.381     5.58     889.1356     56.70357       84.091         8     1.603     0.547 -16.08   0
       598    667.4150     81.0494 307.6564018  +6.6361129     810.9434     1055.323     978.3007     79.99827     160.8304     321.4047      1.505     4.64     888.8257     56.70357     133.1372         9     1.096     0.636 -49.67   0
       599    998.7980     77.2191 307.5188403  +6.6487643     1236.058     2069.227      2271.09     80.25508     160.4461     321.4047      1.847     5.30     881.8942     56.70357     228.5294        14     1.594     0.611 -21.89   0
       600    203.7709     71.9524 307.8493467  +6.6243152     5047.972     8565.386     8528.187     80.25508     160.9583     321.5967      1.780     4.41     901.4812     56.70357     666.0004        33     1.756     0.957 -27.14   0
       601    665.6191     70.8305 307.6574939  +6.6402708      5738.82     9424.591     10093.46     80.25509     160.7024     321.5647      1.711     4.27      888.575     56.70357     916.4921        31     1.670     0.925 -21.00   0
       602     86.4743     71.6914 307.8980882  +6.6204766     1882.739      3082.85     3287.136     80.63878      161.086     321.7247      1.799     4.78     903.8298     56.70357      237.828        17     1.472     0.765 -21.57   0
       603    813.0901     70.4553 307.5962320  +6.6453571     946.9539     1339.264     1498.291     80.51109     160.7024     321.8206      1.335     3.58     885.9728     56.70357     172.7409         8     1.062     0.496  -3.02   0
       604    617.7629     68.0613 307.6774718  +6.6398120      8844.23     14429.82     15670.71     80.63878     160.9583     321.6927      1.738     4.33     888.7059     56.70357     1285.946        39     1.728     0.976 -28.25   3
       605    621.2982     59.5969 307.6762895  +6.6434242     50786.42     81018.02     85797.42     80.38319     160.6383     321.3727      1.713     4.21     888.4897     56.70357     7465.173        72     1.770     1.092 -25.13   2
       606    252.3784     68.7881 307.8292592  +6.6272553     830.9103     1427.811     2132.832     80.25509     160.6383     321.5647      1.730     5.64     901.0592     56.70357     137.3726        10     1.342     0.787  -5.01   0
       607    555.6304     67.3804 307.7033106  +6.6380121     756.7584      1031.71     949.1708     80.12678     160.7024     321.5647      1.337     2.90     888.7452     56.70357     139.6689         7     0.876     0.560 -33.18   0
       608     16.6113     66.7470 307.9272818  +6.6201646     873.2653     1593.801     1744.567     79.99827     160.8304     321.4047      1.935     7.03     909.3195     56.70357     107.1093        13     1.304     1.064 -36.58   0
       609    344.9020     63.7806 307.7909878  +6.6324302     3570.211     6174.651     7079.268     80.51109     160.7664     321.4367      1.855     4.68     898.5482     56.70357     538.2101        30     1.755     0.953 -34.95   0
       610    526.5554     63.0011 307.7155395  +6.6388455     1606.935     2740.181      2653.58     79.99827     160.5102     321.2766      1.725     4.18     888.8228     56.70357     233.9476        18     1.467     0.810 -24.81   0
       611    990.6705     62.7245 307.5227064  +6.6544763     640.9241     1028.942     509.8822     80.89356     161.0222     321.6927      1.457     3.38      881.056     56.70357     124.3467         5     1.090     0.303 -35.83   0
       612    300.3027     53.2564 307.8098755  +6.6352764     3317.115      5731.04     6516.632     80.51109     160.8943     321.9165      1.872     4.27       900.15     56.70357     480.1396        32     1.681     1.036 -30.78   0
       613    495.4612     50.9768 307.7288666  +6.6427664     602.8132     1042.429     1042.393     80.25508     160.8304     321.5967      1.946     4.95     888.7226     56.70357     108.7763         6     1.074     0.675  69.23   0
       614    700.3335     47.7745 307.6438502  +6.6509492     873.0166     1440.563     1340.277     80.25509     160.7664     321.5967      2.020     3.49     887.1797     56.70357     147.2639         9     1.106     0.661 -33.65   0
       615    671.4465     46.9050 307.6558823  +6.6503416      1301.01     1966.731     1975.538     80.51109     160.8304     321.8206      1.586     5.36     887.9407     56.70357     222.9871        16     1.532     0.728 -24.13   0
       616    153.2437   1019.3188 307.8381371  +6.2315799     15717.03     26080.82     27723.55     80.63878     160.8943     302.0294      1.789     4.53     920.3785     56.70357     2190.911        49     1.804     1.042 -28.18  16
       617    685.7349     43.4642 307.6500619  +6.6522399     3013.603     4623.129     4792.055     80.63878     160.8943     321.6927      1.691     4.16      887.451     56.70357     417.8602        19     1.440     0.786 -22.28   0
       618    427.3877     34.5258 307.7577088  +6.6472738     3865.837     6259.968     6115.115     80.12679     160.5743     321.5007      1.710     4.23     892.3318     56.70357      583.226        26     1.632     0.882 -25.29   0
       619    899.9811     30.0363 307.5614930  +6.6649430     3632.101     5798.829     6780.607     80.12678     160.7024     321.4687      1.666     4.12     882.8533     56.70357     591.5624        23     1.597     0.792 -25.24   0
       620    882.1722     30.8002 307.5688672  +6.6640331     1918.901     3071.613     2874.502     80.12678     160.6383     321.5007      1.694     4.68     883.5015     56.70357     309.3008        19     1.554     0.755 -26.96   0
       621    591.9500     28.4847 307.6895375  +6.6552835     1728.016     2497.782     3013.331     80.63878     160.8943     321.7567      1.591     3.53      887.749     56.70357     247.0162        16     1.240     0.786 -30.85   0
       622    237.7082     27.7458 307.8367493  +6.6437027      842.974     1312.785     1798.904     80.51109     160.7664     321.8526      1.772     4.47     901.4025     56.70357     132.2509         7     1.062     0.535 -25.55   0
       623    390.8062     26.5177 307.7731801  +6.6493518     1883.792     3118.138     3013.535     80.25509     160.5102     321.4687      1.721     4.75     895.2659     56.70357     260.2486        20     1.597     0.806 -21.09   0
       624    138.7124     23.2459 307.8780335  +6.6422307     2949.633     4812.569     5060.638     80.63878     160.7664     321.6927      1.715     4.25     901.7202     56.70357     385.1747        25     1.610     0.879 -26.44   0
       625    897.3121   1019.9925 307.5291959  +6.2562182     675.3304     875.9827     1169.362     80.12678     160.5743     294.5793      1.490     4.81     913.0179     56.70357     93.02448         8     1.157     0.566 -21.09  16
       626    286.8868     21.6433 307.8165236  +6.6478742     1293.647     1919.898     2360.855     80.63878     160.7664     321.6927      1.804     4.62     900.5761     56.70357     189.7871        16     1.377     0.772 -26.09   0
       627    559.5928     20.5255 307.7032518  +6.6574849     601.9655     815.1968     1066.811     80.25509     160.4461     321.5647      1.631     5.71     887.6127     56.70357     91.51404         8     1.108     0.829  -0.14   0
       628    547.2868     20.8383 307.7083545  +6.6569435     808.0283      1163.76     1096.993     80.63878     160.8304     321.6927      1.633     4.53     887.6287     56.70357     119.6063         8     1.116     0.521 -30.57   0
       629    941.4028     20.2129 307.5446129  +6.6703804      604.673     853.9954     1157.731     80.25509     160.5743     321.5327      1.551     4.73     880.6883     56.70357     93.76337         8     1.066     0.595 -33.32   0
       630    755.2049     20.2382 307.6219818  +6.6641505     591.2761      765.951     1278.542     79.74062     160.6383     321.4367      1.377     3.37     885.0526     56.70357     108.5796         5     0.949     0.347 -41.45   0
       631    467.5720   1018.1447 307.7076794  +6.2426123     3667.732     5928.614     6234.575     80.25509     160.9583     312.7735      1.703     4.66     920.6678     56.70357     529.1086        25     1.659     0.839 -27.29  16
       632    826.9856   1017.5664 307.5584767  +6.2548724     2841.224     4670.969     4485.128     80.25508     160.6383     316.9562      1.741     4.50     915.0943     56.70357     351.6793        26     1.523     0.998 -34.11  16
       633    412.5036     16.5138 307.7645043  +6.6542091     994.3287     1558.832     1796.252     80.63878     161.2776     321.7247      2.000     4.51     893.6788     56.70357     170.0632        11     1.295     0.636 -24.70   0
       634    889.7674     16.3063 307.5662008  +6.6702694     703.2727     1050.097     1088.065     80.76627     160.7664     321.7567      1.877     5.45     882.7296     56.70357     103.9384         8     1.152     0.726 -28.04   0
       635    809.9637   1016.0007 307.5655969  +6.2549503     1027.245     1912.399     1731.392     79.74062     160.7024     321.5007      1.878     6.99     915.0575     56.70357     124.8915        15     1.436     0.953 -12.83  16
       636    747.4131   1016.2050 307.5915604  +6.2527765     1399.555     2350.309     2676.772     80.25509     160.6383     321.5647      1.757     5.25     916.4687     56.70357     184.4911        15     1.331     0.862 -29.26  16
       637    570.9505   1012.8780 307.6649373  +6.2482483     2618.598     4243.262     3452.608     80.63878     160.9583     321.6607      1.669     5.26     920.5479     56.70357     389.3633        21     1.585     0.853 -28.22   0
       638    275.9883   1003.2556 307.7877238  +6.2423330     1363.516     2325.623      2673.04     79.99827     160.8304     321.3727      1.871     5.43     919.8242     56.70357     255.3614        16     1.629     0.780 -22.08   0
       639    699.8744   1001.1075 307.6118079  +6.2574195     3861.447     6419.924     6918.302     80.63878     161.0222     321.6607      1.812     4.71      917.028     56.70357      587.042        31     1.857     0.931 -27.40   0
       640      2.0430    999.4823 307.9015823  +6.2346824     8357.729     10632.96     10941.77     78.04521     138.4868     253.8294      1.369     3.59     918.4556     56.70357     1411.404        24     1.202     0.949 -50.08  24
       641    609.5884    999.5095 307.6493476  +6.2550596     1773.401     2584.599      1959.32     80.38319     160.5743     321.5007      1.536     4.30     919.5599     56.70357     231.4079        16     1.276     0.821 -36.90   0
       642    894.7903   1000.1646 307.5309115  +6.2643187     588.7139     1153.051     446.6891     80.12678     160.6383     321.4687      1.973     3.89        912.5     56.70357      93.9306         6     1.424     0.304 -24.54   0
       643    422.0052     12.7635 307.7606836  +6.6560759     829.5859     1321.036     1745.431     79.74062     160.6383     321.5007      1.704     4.89     892.9691     56.70357     118.4804         9     1.299     0.521 -27.73   0
