#   1 NUMBER                 Running object number                                     
#   2 X_IMAGE                Object position along x                                    [pixel]
#   3 Y_IMAGE                Object position along y                                    [pixel]
#   4 ALPHA_J2000            Right ascension of barycenter (J2000)                      [deg]
#   5 DELTA_J2000            Declination of barycenter (J2000)                          [deg]
#   6 FLUX_APER              Flux vector within fixed circular aperture(s)              [count]
#   9 FLUXERR_APER           RMS error vector for aperture flux(es)                     [count]
#  12 FLUX_RADIUS            Fraction-of-light radii                                    [pixel]
#  13 FWHM_IMAGE             FWHM assuming a gaussian core                              [pixel]
#  14 BACKGROUND             Background at centroid position                            [count]
#  15 THRESHOLD              Detection threshold above background                       [count]
#  16 FLUX_MAX               Peak flux above background                                 [count]
#  17 ISOAREA_IMAGE          Isophotal area above Analysis threshold                    [pixel**2]
#  18 A_IMAGE                Profile RMS along major axis                               [pixel]
#  19 B_IMAGE                Profile RMS along minor axis                               [pixel]
#  20 THETA_IMAGE            Position angle (CCW/x)                                     [deg]
#  21 FLAGS                  Extraction flags                                          
         1    711.1047     18.9166 307.6459457  +6.6902528     5752.501     11083.57     11835.63     77.69497     155.6364     310.5331      2.003     7.36     818.5646     54.72019     868.5991        36     1.950     0.921  40.14   0
         2    631.3625     18.2673 307.6791009  +6.6878573     2857.392     5293.733     5652.533     77.69497     155.2666     310.5331      1.935     6.53     820.1143     54.72019      460.226        27     1.859     0.860  35.62   0
         3    431.6207     14.3536 307.7622267  +6.6827922      4991.83     9533.925     10695.55     77.44792     155.2666     310.2862      2.029     6.51      823.327     54.72019      654.666        35     1.961     0.906  41.90   0
         4    678.4710     13.3489 307.6596959  +6.6914637     607.4342     1196.096     1240.444     77.69497     155.2666     310.4714      2.049     5.08     819.8483     54.72019     150.8267         9     2.046     0.356  43.15   0
         5    507.4792     11.7355 307.7307981  +6.6864136     809.5583     1414.435      1954.56     78.06406     155.3283     310.4097      2.195     5.02      818.786     54.72019     108.4139        10     1.461     0.489  44.78   0
         6     32.4843     13.9295 307.9280723  +6.6695728     6507.322     12792.81     14412.38     77.94122     155.5132     310.4714      2.127     6.64     825.0449     54.72019     859.3282        44     2.014     1.053  42.56   0
         7    329.6244     10.3041 307.8047438  +6.6810479      8404.25     10710.44     12421.17     77.94123     155.0195      310.317      1.340     2.94     826.4781     54.72019     1349.339        23     1.088     0.957  85.37   3
         8    326.7143      8.3272 307.8060209  +6.6817673     8633.891     11380.77     12904.92     77.94123     155.5748     310.1626      1.398     2.82     826.4433     54.72019     1408.068        27     1.208     0.977  86.91   3
         9    101.7676      9.6110 307.8994365  +6.6736863     2023.957     3842.128      4636.78      77.3241     155.0195     310.2862      2.000     6.09     826.2842     54.72019     253.0226        25     1.880     0.876  39.44  16
        10     91.5963      7.7037 307.9037280  +6.6741326     948.5477      1742.41     1975.144     77.57155     154.9577     307.2138      2.071     3.68      826.116     54.72019     158.7901         9     0.956     0.732  53.72   2
        11    796.7428      8.0803 307.6107336  +6.6975892     525.0494     1363.829     1518.899     77.81819     155.2666     309.3274      2.128     6.34     816.4739     54.72019     120.4874         7     1.940     0.583  40.08  16
        12    394.3595      7.3071 307.7779504  +6.6844559     1849.448     3498.455     3166.897     77.94123     155.2048     305.2112      1.936     7.19     825.4639     54.72019     244.6837        22     1.819     0.795  39.95  16
        13    655.1800      2.9411 307.6697301  +6.6949866     8430.717     15633.72     16620.86     77.44792     143.9963     258.0195      1.918     7.72     819.8279     54.72019     1238.849        34     1.858     0.897  36.33  24
        14    819.7423      2.4904 307.6013684  +6.7006665     1413.052     2399.029     3089.419     77.69497     139.0539     251.6653      1.918     6.60     816.2361     54.72019     194.7248        17     1.608     0.759  33.03  24
        15    532.7842      2.5129 307.7206005  +6.6910714     1147.149     2121.865     1960.381     77.44792     139.0539     251.8175      1.806     5.52     818.4391     54.72019     180.9829        12     1.577     0.546  38.44  24
        16    256.3925      1.4009 307.8354766  +6.6822709     2638.888      3324.35     3745.646     68.09972     124.1268     234.4784      1.089     2.76        825.6     54.72019     628.6244        14     1.256     0.566   4.80  24
        17    891.3609      1.4628 307.5716449  +6.7034790     862.1336     1060.444     1528.923     69.49249     125.4322     235.8231      1.194     3.41     816.2634     54.72019     147.4672         8     0.989     0.495   3.81  24
        18     72.3148      2.6874 307.9119118  +6.6755574     473.4317     965.8262     1143.187     77.57155     141.5128     254.6177      2.140     3.05     825.3148     54.72019     94.99744         4     0.857     0.318  58.47  18
        19    919.3464    987.0920 307.5263430  +6.2970940     31425.24     64609.96     72674.32     77.69497     155.1431     310.5948      2.189     5.63     848.2233     54.72019      3401.75        89     2.164     1.351  39.82   0
        20    958.6564   1023.3617 307.5087842  +6.2834140     3326.285     4722.648     4954.287     71.39675     128.1528       238.57      1.507     4.50     848.8274     54.72019     508.2086        17     1.471     0.719   8.91  24
        21    735.4174   1022.0685 307.6015116  +6.2765094     810.6086     1516.475     1520.384      77.3241     143.9297     257.8709      1.936     5.89     850.9426     54.72019     125.3658         9     1.551     0.629  53.49  24
        22    719.0206   1022.5771 307.6083016  +6.2757521     2130.795     3730.035     4215.392     77.57154     138.2939      250.444      2.012     5.27     851.2708     54.72019     265.3514        22     1.634     0.872  28.36  24
        23    443.6833   1023.6531 307.7225742  +6.2661085       444.07     723.6645     865.7228     68.09972     123.6628     233.8237      2.037     3.42     851.9554     54.72019     103.0515         5     0.741     0.460  12.32  24
        24    226.4676    985.3486 307.8140670  +6.2746629     1356.153     2726.462     2687.323     77.69497     155.1431     310.4097      2.029     6.78     851.2172     54.72019     165.9073        22     1.820     0.848  41.60   0
        25    115.7593    985.1306 307.8600349  +6.2710392     546.8765     774.8439     836.0757     77.69497     155.2666     310.5023      1.616     4.01     848.6516     54.72019       90.815         6     1.154     0.398  28.58   0
        26    817.3068    980.7280 307.5689260  +6.2963244     1621.154     3214.276     3718.687     77.69497     155.3283     310.5023      2.048     6.97     849.7286     54.72019     204.7277        24     1.993     0.822  40.78   0
        27    765.4753    978.8074 307.5905114  +6.2953899     4914.447     9948.063     11702.72     77.44792     154.7721     310.2553      2.201     6.12     850.3062     54.72019     586.7542        46     2.016     1.318  44.33   0
        28    552.7232    978.3608 307.6788572  +6.2884715     785.7418     1588.594     1828.141     77.69497     155.2666     310.4714      2.158     7.55     852.6718     54.72019     131.2946        15     1.927     0.828  48.57   0
        29    235.9752    978.7110 307.8103480  +6.2777245       901.14     1374.062     2012.268     77.94122     155.0813     310.2862      1.840     4.36     851.1025     54.72019     119.6409        10     1.040     0.775 -23.61   3
        30    233.4732    976.5418 307.8114613  +6.2785370     932.4706     1327.866     1639.943     77.94123     155.2666     310.4097      1.374     3.06     851.0519     54.72019     148.7581         9     0.980     0.616   4.14   3
        31    200.4013    977.9155 307.8251440  +6.2768605     717.8591      1243.99     1305.747     77.07587      154.834     310.1317      1.712     5.65     850.4205     54.72019     117.8779         7     1.366     0.659  38.41   0
        32    953.6128    973.8314 307.5125685  +6.3037150     4824.386     10275.61     12024.75      77.3241     155.0195     310.3788      2.235     5.99     847.3054     54.72019     503.1781        49     2.097     1.201  40.73   0
        33     59.9812    975.8823 307.8835092  +6.2729884     2062.435      4185.17     4553.609     77.44792     154.9577     310.3788      1.988     6.93     848.0721     54.72019     257.2045        25     1.748     0.962  31.93   0
        34    635.8565    968.5569 307.6446777  +6.2953003     580.2932     1007.537      1295.01     77.69497     155.2048     310.4714      2.201     5.81     851.6927     54.72019     96.18463         7     1.587     0.600  28.15   0
        35    927.6484    965.4999 307.5236331  +6.3062936     1477.221     3205.419       3664.3      77.8182     155.1431     310.6257      2.325     8.08     847.4694     54.72019     194.0325        28     2.025     1.034  39.89   0
        36    260.3565    961.6545 307.8008120  +6.2855902     3313.172     6623.964     6848.172      77.8182     155.2666     310.4405      2.040     6.33     850.8626     54.72019     411.8234        32     1.846     0.993  38.76   0
        37    787.0080    962.1073 307.5821422  +6.3030094     983.5645     1909.123     2126.466     77.44792     154.9577     310.2553      1.847     6.22      849.615     54.72019     136.8531        14     1.547     0.703  33.52   0
        38    648.0709    961.4045 307.6398513  +6.2986639     3439.896     6738.295      7251.99     77.44792     154.8958     310.2862      2.016     5.81     851.2786     54.72019     425.5978        33     1.911     0.994  38.47   0
        39    470.6004    960.0916 307.7135787  +6.2932756      822.007     1803.481     2144.357     77.07587     154.7721     310.1626      2.147     6.40     851.5361     54.72019     139.8839        13     1.885     0.610  34.89   0
        40     29.2357    959.1984 307.8968474  +6.2788501     1571.864     3451.695     3223.961     76.95145     155.0813     310.2553      2.095     7.95     847.6144     54.72019     194.9547        25     1.810     0.975  34.81   0
        41    297.7383    956.2530 307.7854779  +6.2890751      645.607     1064.681     1325.279      77.8182     155.2048     310.4097      2.100     3.83      850.925     54.72019     98.80048         5     0.971     0.433  84.95   0
        42    878.4264    956.2135 307.5443871  +6.3084919     454.2386      768.002     766.8751     77.57154     155.0813     310.3788      2.773     3.47      847.883     54.72019     73.15149         5     0.758     0.459  72.25   0
        43    572.7991    953.7001 307.6713669  +6.2993335     1326.831     2480.575     2239.013      77.3241     154.8958     310.1626      1.873     7.24     852.1016     54.72019     168.7399        20     1.792     0.837  28.15   0
        44   1004.1421    953.7616 307.4922735  +6.3136907     635.2787      1093.97     1140.318     77.81819     155.3283     310.4405      1.812     5.35     845.7429     54.72019     83.96381         8     1.080     0.747  53.08   0
        45    611.9308    950.4205 307.6552323  +6.3019962     1008.002     1767.357     1853.571     77.44792     155.1431     310.3788      1.978     7.10      851.562     54.72019     151.1521        18     1.793     0.787  45.40   0
        46     61.7754    951.1621 307.8836152  +6.2832639     546.3043     1158.678     1847.531     77.44792     155.0813     310.2553      2.901     4.22     847.7766     54.72019     90.32867         6     1.080     0.470  31.64   2
        47    291.8979    948.0484 307.7881845  +6.2922699     1044.931     2136.068     2523.412     77.81819     155.2048     310.5948      2.434     7.12     850.8322     54.72019     150.0834        19     1.911     0.744  32.59   0
        48    759.0091    944.5040 307.5943690  +6.3093503     763.9846       1499.5       1711.6     77.57154     154.8958     310.2553      2.046     6.69     849.6735     54.72019     123.2308        12     1.565     0.803  30.42   0
        49    896.3843    940.7568 307.5374588  +6.3154777      5060.25      10102.3     10711.35      77.3241     155.0813     310.2244      2.077     5.98     847.2786     54.72019      603.059        44     2.019     1.101  38.31   0
        50    433.3970    938.6978 307.7297585  +6.3008719     1279.816     2172.297     2731.527     77.57155     155.0195     310.1317      2.049     4.49     850.8616     54.72019     206.8817        14     1.262     0.888   4.77   3
        51    430.6851    936.6962 307.7309531  +6.3016083     1225.492     1697.667     2067.282      77.8182     155.6364     310.5023      1.492     2.92     850.8192     54.72019     193.4036        10     0.886     0.754  38.57   3
        52    333.8518    936.2557 307.7711713  +6.2985486     7350.936     14331.02     15476.05     77.81819     155.2666     310.4097      2.071     6.44     850.6702     54.72019     1003.629        46     1.943     1.139  36.28   0
        53    253.9459    935.1685 307.8043835  +6.2963205     5502.443     10832.01     12131.38     77.69497     155.3283     310.3788      2.061     6.14     850.3362     54.72019     700.6362        37     1.939     1.005  40.83   0
        54    173.4760    934.4195 307.8378178  +6.2939316     472.3914     665.9901     713.1344     77.44792     154.9577     310.3788      1.519     3.74     848.7239     54.72019      80.1073         6     0.964     0.417  71.53   0
        55    581.9785    929.6267 307.6683803  +6.3095886     863.3671     1419.328     1790.779      77.3241     155.0813     310.3788      1.742     6.37     851.4604     54.72019     100.7145        13     1.429     0.797  33.59   0
        56    912.0443    925.3008 307.5314844  +6.3223867     714.8853     1375.023     1728.338     77.81819     155.2048     310.6565      1.952     4.98     846.5812     54.72019     97.48663         7     1.141     0.614  20.72   0
        57    411.4186    924.2759 307.7393783  +6.3060962     524.8408     847.6142     1258.829      77.3241     155.0195     310.3788      2.543     5.24     850.5172     54.72019     98.05957         6     1.396     0.555  20.81   0
        58    979.7011    920.7550 307.5035477  +6.3265177     507.2736     1161.835     1698.479      77.8182     155.2048     310.6565      1.985     7.21     845.1054     54.72019     98.79034         9     1.850     0.787  34.58   0
        59    748.4932    918.9161 307.5996102  +6.3195739     1347.054      2291.44     2408.057     77.57154     155.6979      310.564      1.765     5.87     849.4047     54.72019     200.2766        19     1.734     0.737  33.49   0
        60    980.5573    915.2574 307.5033798  +6.3288182     878.3074     1946.209     2467.691     77.69497     155.2048     310.4405      2.474     7.45     844.9048     54.72019     153.0914        13     1.560     0.996  43.97   2
        61    533.7266    915.0222 307.6889145  +6.3140113     959.4897     1690.636     1663.363     77.44792     155.0813     310.3788      1.784     5.79     851.4784     54.72019      136.242        13     1.400     0.674  39.93   0
        62    667.1099    912.1174 307.6336334  +6.3196677     1892.339     3711.696      3890.62     77.57154     155.5132     310.5331      1.997     7.24     849.8587     54.72019     254.1291        23     1.795     0.818  45.81   0
        63     63.7331    908.3872 307.8842750  +6.3010057     2256.484     4476.095     4733.567      77.3241     155.0813     310.3479      2.060     6.26     847.1509     54.72019      269.124        27     1.806     0.951  39.75   0
        64    945.5687    907.6829 307.5181661  +6.3307837      630.994     991.5337     457.5262      77.8182     155.0813      310.317      1.685     5.65     845.5057     54.72019     104.6086         8     1.589     0.565  58.38   0
        65    208.4766    908.4703 307.8241788  +6.3058288      1457.97     1694.115     1786.266     78.06407     155.4516     310.4405      1.247     3.11     849.4885     54.72019     239.5336        11     0.918     0.809  33.47   3
        66    205.6868    906.3182 307.8254110  +6.3066246     1219.841     1631.547     1614.949     77.57155     155.5132     310.5331      1.409     3.21     849.4374     54.72019     205.0659        10     0.882     0.793  87.30   3
        67     81.0639    907.4464 307.8771122  +6.3019764     1496.998      2853.79     3075.696     77.69497     155.2048     310.4714      1.972     7.26     847.4258     54.72019     196.6287        20     1.752     0.843  37.09   0
        68    241.4900    903.6445 307.8106382  +6.3089300     616.4251     1196.895     465.9604      77.8182     155.1431     310.5331      1.849     6.63     850.0452     54.72019     97.54938        11     1.747     0.706  27.29   0
        69    346.0461    903.1846 307.7672440  +6.3126235     687.5687     1226.645     2160.932      77.3241     155.0813     310.1935      2.222     5.55      850.213     54.72019     93.41241        10     1.373     0.633  51.85   0
        70    800.3826    903.6318 307.5785878  +6.3276207     699.6523     1116.674     1274.996     77.44792     155.0813      310.317      1.818     3.47     847.8945     54.72019     119.7045         6     0.865     0.536  49.08   2
        71    661.6263    901.2398 307.6362825  +6.3239798     5317.872     10417.71     11431.12     77.44792     155.0813     310.2553      2.043     5.77     849.6881     54.72019     681.7568        39     1.924     1.045  40.59   0
        72     21.4907    899.3860 307.9021226  +6.3033064     904.9782       1821.3     2096.098     77.57155     155.0195     310.2553      2.121     7.12     846.2037     54.72019     117.9103        15     1.963     0.723  32.74   0
        73    899.5189    897.4557 307.5376359  +6.3334768     2186.025     4360.322     4174.209      77.8182     155.2666     310.4714      2.039     5.97     846.2722     54.72019     252.7238        30     1.855     1.064  32.77   0
        74     34.6773    897.7952 307.8967027  +6.3044068      764.405     1687.902     2133.665     77.44792     154.7721     310.2862      2.299     6.26     846.4362     54.72019     117.9744        14     1.908     0.577  42.47   0
        75    344.6548    894.4714 307.7681208  +6.3161776     12543.44      24308.8     26758.28     77.69497     155.1431     310.4097      2.046     6.34     850.0853     54.72019     1533.019        50     1.996     1.061  39.32   0
        76     79.1393    895.5643 307.8783203  +6.3068219     959.5592     1902.784     2070.876     77.81819     155.2666     310.4097      2.018     6.66     847.2064     54.72019     123.8905        15     1.700     0.732  31.35   0
        77    216.6029    894.9280 307.8212704  +6.3116976     826.1106      1466.13     1292.557      77.3241     154.8958     310.2862      1.952     6.19     849.7161     54.72019     129.7914        10     1.204     0.894  53.15   2
        78    393.8177    892.6747 307.7477704  +6.3185662     591.1613     672.9911     485.1414      77.3241     155.0195     310.3479      1.377     4.55     850.0317     54.72019     93.97235         5     0.857     0.686 -80.31   0
        79    422.5500    885.5775 307.7360843  +6.3224608     836.2886     1638.819     1424.922     77.44792     155.3283     310.3479      2.107     6.19     849.9415     54.72019     127.9872        12     1.654     0.651  42.08   0
        80    107.9036    885.1920 307.8667350  +6.3120738     1233.532     2509.398      2994.78     77.57154     154.8958     310.2244      2.127     7.28     847.5324     54.72019     176.8133        20     1.711     0.868  37.09   0
        81    674.5040    880.5056 307.6316452  +6.3329782     631.1658     1194.282     1844.707      77.8182     155.8825      310.317      1.956     3.31     849.0286     54.72019     104.6975         5     0.736     0.486 -12.75   2
        82    503.1614    882.1202 307.7027329  +6.3265862     593.5208     995.5642     1116.822     77.69497     155.3283     310.4097      1.854     5.14     850.1948     54.72019     95.74323         6     1.209     0.617  36.53   0
        83    890.2037    879.6015 307.5421135  +6.3405449     1540.721     3102.195      3232.88     77.20009      154.834     310.1935      2.075     7.32     846.1278     54.72019     199.2538        22     1.708     0.879  31.54   0
        84    861.6609    879.7036 307.5539617  +6.3395518     1447.313     2283.319     2584.568     77.57155     155.2666     310.5331      1.674     3.59     846.6646     54.72019      217.091        11     1.040     0.808   6.28   3
        85    859.3239    877.6290 307.5550029  +6.3403312     1238.529     2043.549     2668.385     77.69497     155.3283     310.4714      1.966     4.29     846.6714     54.72019     214.5404        10     1.136     0.614  37.29   3
        86    823.7296    878.1916 307.5697632  +6.3389124     2389.153     4685.087     5023.082      77.3241     154.8958      310.317      2.003     5.78     847.2307     54.72019     301.7725        27     1.872     0.860  41.72   0
        87     91.3629    878.4615 307.8738340  +6.3142998     1863.021     3645.677      4403.82      77.8182     155.3283     310.4405      2.009     6.49     847.1499     54.72019      256.566        20     1.834     0.777  38.88   0
        88    559.7587    869.7180 307.6796583  +6.3336035     260870.2       499600     540069.6      77.8182     155.2666     310.3788      2.030     6.68     850.0988     54.72019     35097.54       192     2.137     1.318  38.51   0
        89    454.2980    876.3242 307.7232200  +6.3273470      546.934     925.3124     1713.445     77.44792     155.4516     310.4405      1.853     4.30     849.8281     54.72019     94.01782         6     1.469     0.358  40.82   0
        90    339.0254    876.6799 307.7710689  +6.3233413     479.4932     957.9567      1193.58     77.57154     155.0813     310.4405      2.274     4.73     849.8798     54.72019     100.1267         7     1.746     0.363  35.34   0
        91    403.9253    872.2233 307.7442755  +6.3273560     5775.199      11114.5     11991.15     77.44792     155.0813     310.3788      2.036     6.58     849.7028     54.72019       765.59        40     1.950     1.013  40.20   0
        92    648.6814    873.3303 307.6426127  +6.3350813     878.8009      1341.69     1699.666     78.06406     155.5132     310.4714      1.866     4.38     849.3165     54.72019     120.0871         8     0.936     0.634  57.69   3
        93    645.7512    871.7155 307.6438847  +6.3356508     801.1081     1265.211     1579.063      77.8182     155.2666     310.4714      1.479     4.83     849.3536     54.72019     130.9272         7     1.202     0.550  64.80   2
        94    460.8694    874.0339 307.7205700  +6.3285133     522.5094      847.165     1205.858     77.69497     155.2666     310.5023      1.740     3.82     849.7952     54.72019      74.1983         5     1.264     0.331  26.24   0
        95    347.1691    870.6592 307.7678944  +6.3261021      9554.94     18963.12     20262.48     77.57154     155.2666     310.4097      2.047     6.44     849.7344     54.72019     1219.507        50     1.992     1.070  38.15   0
        96    897.9116    865.8806 307.5393816  +6.3464719     3940.828     8213.041     9544.634     77.57154     155.5132     310.5331      2.222     6.19     845.6901     54.72019     482.8672        40     2.002     1.189  34.47   0
        97    665.4577    866.9149 307.6358666  +6.3382927     2752.556     5121.226     5548.354     77.81819     155.2666     310.5948      2.001     7.51     848.8755     54.72019     391.9067        26     1.853     0.851  35.65   0
        98    640.5239    861.0339 307.6464208  +6.3398904     2549.863     4958.153     5735.252     77.69497     155.2666     310.4097      2.081     7.17     849.1811     54.72019     356.8533        34     2.568     0.974  29.71   3
        99    634.5197    856.5112 307.6490688  +6.3415589     1448.159     1922.049     2582.121     77.57155     155.5132     310.5331      1.722     2.80     849.1569     54.72019     207.6049        12     0.902     0.816  35.80   3
       100    631.7228    854.3124 307.6503054  +6.3423742     1301.428     1384.239     1707.741      77.8182     155.5748     310.5331      1.288     2.68     849.1042     54.72019     230.0709        10     0.830     0.776  62.71   3
       101    828.9974    860.2000 307.5681908  +6.3465232         1239       2282.7     2539.179     77.20009      154.834     310.1935      2.053     6.90     846.8989     54.72019     184.0782        17     1.755     0.761  35.70   0
       102    631.0232    860.1075 307.6503974  +6.3399560     814.0615     1347.652     2010.629     77.81819     155.0813     310.2862      1.994     6.00     849.3345     54.72019     146.2704        12     1.631     0.620  31.64   0
       103    956.5149    859.3082 307.5152721  +6.3511395     536.0677     954.8191     1185.585     77.57155     155.6979     310.5331      1.704     5.04     844.0082     54.72019     69.89575         8     1.370     0.524  57.90   0
       104    916.6138    853.3530 307.5320437  +6.3522720     2304.253     5512.261     6069.021     77.20009     155.0813     310.2244      2.297     8.31     845.0211     54.72019     947.3842        31     2.197     0.879  46.71   0
       105    326.7910    854.3321 307.7769160  +6.3321666       756.71     1461.295     965.2989      77.3241     155.0813     310.3479      1.897     6.01     849.5511     54.72019     142.1378        13     1.876     0.542  38.11   0
       106    375.0300    849.6697 307.7570470  +6.3357089     2147.783     4131.593     4172.832     77.69497     155.2666     310.3788      2.058     6.71     849.1911     54.72019     272.2468        26     1.817     0.881  38.14   0
       107    632.3024    842.8093 307.6504586  +6.3471472     2562.573     2496.681     1887.726     77.57154     154.8958     310.2244      0.682     1.12     848.7162     54.72019     1192.721         5     0.547     0.396  51.93   0
       108    511.4180    839.4552 307.7007673  +6.3444936     2452.622     4929.263     5228.916      77.3241     155.2048     310.1935      2.045     7.26     848.7288     54.72019     322.4585        28     1.912     0.901  41.15   0
       109    855.6846    838.0076 307.5578677  +6.3565838     754.6516     1431.319     2080.373     77.44792     154.9577     310.2862      2.371     6.57     846.0032     54.72019     108.7384        12     1.845     0.656  44.85   0
       110    558.2300    835.5784 307.6814629  +6.3476606     4674.091     9120.596     9926.207      77.3241     155.0813      310.317      2.042     6.97     848.6977     54.72019      603.869        34     1.917     0.963  36.81   0
       111    576.7396    837.1136 307.6737247  +6.3476448     540.9937     1015.207     1012.527     77.94123     155.3899     310.5331      2.018     5.13     848.7555     54.72019      112.759         7     1.638     0.454  28.21   0
       112    564.8461    834.9734 307.6787364  +6.3481317     1044.682     2105.822     2474.139     77.44792     155.3283     310.3479      1.921     6.23     848.6601     54.72019     170.5791        12     1.661     0.657  38.31   0
       113    476.0434    834.5255 307.7156245  +6.3453477     1256.203     2402.399     2388.925     77.69497     155.3283     310.4714      2.061     6.67     848.5005     54.72019     206.5399        18     1.723     0.725  39.58   0
       114    269.8859    835.8165 307.8011793  +6.3379113     597.4742     926.9601     918.7665     77.44792     155.0195     310.3479      1.650     3.89     849.1713     54.72019      86.3797         5     1.003     0.432  46.70   0
       115    894.0020    833.7563 307.5421021  +6.3596174      1118.36     2082.539     2085.486     77.20009      154.834     310.1008      2.024     6.70     845.0731     54.72019     175.8983        15     1.723     0.732  35.91   0
       116    117.6032    833.8862 307.8644734  +6.3336009     928.7702     1848.694     2348.807     77.20009     154.8958     310.1626      2.097     6.47     846.6773     54.72019     125.9541        14     1.862     0.631  45.33   0
       117    692.7886    831.5860 307.6257272  +6.3538048     589.7674     751.1567     1064.724     77.57155     154.9577     310.3788      1.349     4.42     847.8466     54.72019      90.8501         7     1.111     0.501  47.19   0
       118    528.8110    829.3879 307.6938905  +6.3492355      15164.4     29442.24     31578.03     77.57154     155.0813     310.4097      2.007     6.67     848.3581     54.72019     2133.441        54     1.976     1.066  40.03   0
       119    942.4777    827.7059 307.5221796  +6.3637322     3034.505     5821.311      6276.91     77.57155     155.4516     310.5023      2.043     5.59     843.6866     54.72019      354.808        33     1.844     1.021  45.88   0
       120     39.2067    820.0839 307.8974984  +6.3366719      1050.18     2121.316      2238.43     77.44792     154.9577     310.2862      2.058     6.57     845.1824     54.72019     163.1424        17     1.758     0.756  31.91   0
       121    321.4743    818.1246 307.7803671  +6.3469510     2697.881     4918.274     5207.374     78.06406     155.5132     310.5331      1.935     6.18     848.6904     54.72019     375.7653        26     1.713     0.912  36.34   0
       122    787.0236    813.9512 307.5872007  +6.3642365     41974.04     81444.86     88322.98     77.44792     155.2666     310.3479      2.041     6.54     847.3049     54.72019     5646.384        81     2.049     1.163  39.14   0
       123     21.4363    816.0203 307.9050165  +6.3377541     1641.408     2937.744     3254.892      77.3241     155.0813     310.1935      1.966     7.18      844.866     54.72019     195.8875        20     1.669     0.866  39.86   0
       124    244.0959    811.6154 307.8127192  +6.3470476     4040.687     8371.146      10601.6     77.57154     155.0195     310.2862      2.373     7.07      848.177     54.72019     569.5392        43     2.158     1.083  45.16   0
       125    430.2480    812.7872 307.7353854  +6.3527988     615.7188     1613.391     1599.974     77.20009     155.1431     310.1626      2.470     6.33     847.6341     54.72019     129.3008        11     1.888     0.595  43.45   0
       126    912.2547    809.1705 307.5353624  +6.3703857     6412.116     12414.81     13879.25     77.57154     155.3283     310.3479      2.060     6.41     844.0958     54.72019     789.8919        41     1.967     1.061  39.06   0
       127    710.1982    805.7173 307.6193834  +6.3650763     61410.29       125053     168278.2     77.20009     154.8958     310.1626      2.723    11.64     847.4131     54.72019     9306.568       150     3.526     1.212  31.15   0
       128    353.8764    805.9061 307.7673327  +6.3530856     15912.04     30957.41     33107.17     77.57154     155.4516     310.4405      2.045     6.43     848.3426     54.72019      2173.65        57     2.002     1.081  37.58   0
       129    415.6754    803.7141 307.7417476  +6.3560606     17086.28     32891.83     35261.07     77.94123     155.5748     310.5023      2.022     6.81     847.2897     54.72019     2238.977        58     1.967     1.102  39.73   0
       130    404.5091    807.4963 307.7462544  +6.3541238     892.0472     1080.337     1495.337      77.8182     155.7595     310.4405      1.187     4.08     847.5735     54.72019     138.4594         7     0.872     0.667  70.04   3
       131    401.6377    805.3202 307.7475213  +6.3549269       965.71     1258.569     1389.767     77.69497     155.3283     310.4405      1.353     2.97     847.5519     54.72019      164.181         9     0.845     0.779 -65.84   3
       132    952.7137    802.7297 307.5187817  +6.3743947     1557.736     3027.016     3516.312     77.94123     155.5132     310.4714      2.048     6.48     842.6017     54.72019     194.8444        25     1.766     0.968  37.31   0
       133    243.7616    790.2244 307.8135933  +6.3558761     745216.2      1912586      2214507     77.44792     155.0813     310.2553      2.530     8.40     847.2782     54.72019     64045.73       628     2.701     2.088  40.53   4
       134    649.6892    799.6354 307.6447173  +6.3655697     4914.476     9588.763     10900.82     77.94123     155.2048     310.4405      2.051     7.06     847.1758     54.72019     640.0427        36     1.962     0.937  36.58   0
       135    437.3177    796.6315 307.7330042  +6.3597117     1278.735     2497.265     2828.479     77.69497     155.0813     310.3479      2.583     3.28     847.0261     54.72019     198.2081        12     1.011     0.816  84.95   2
       136    603.1181    791.9751 307.6643178  +6.3671798     683.6537     1238.479     1358.082     77.57154     155.0195     310.4097      2.035     5.38     846.9775     54.72019     102.7181        10     1.588     0.514  50.71   0
       137    878.1556    792.0440 307.5501071  +6.3763275     567.7435     1086.453     1391.601     77.81819     155.2666     310.3788      1.937     4.81     844.5179     54.72019     92.14008         7     1.364     0.481   9.84   0
       138    686.3442    790.6675 307.6298036  +6.3704995     1310.915     1632.237     2128.845     77.94123     155.1431     310.4097      1.295     3.40     846.9401     54.72019     214.6846        10     1.105     0.585  56.72   3
       139    683.7753    788.7823 307.6309348  +6.3711928     1701.611     2457.131     3173.959     77.57154     155.1431     310.3788      1.552     5.78     846.8719     54.72019     253.6711        13     1.397     0.674  66.90   3
       140    418.6365    786.3942 307.7411124  +6.3633171     40849.83     80198.44     86821.59     76.95146     155.0195     310.2553      2.035     6.73      846.491     54.72019     5323.944        89     2.065     1.202  40.33   0
       141    153.8806    790.6201 307.8508996  +6.3526977     726.6616     1448.295     1615.005     77.57154     154.9577     310.3788      2.327     5.54     845.8256     54.72019     121.5099        10     1.809     0.478  34.52   0
       142    128.4440    789.7754 307.8614902  +6.3521931     670.6844     1210.441     1083.661      77.3241     155.2666      310.317      2.101     6.10      845.549     54.72019     98.08081        11     1.744     0.600  40.41   0
       143    536.3999    785.4286 307.6922461  +6.3676554     5582.647     10533.97     11194.62     77.07587     155.0195     310.2553      1.989     7.29     846.6348     54.72019     744.2092        37     1.939     0.953  39.91   0
       144    453.1715    784.1340 307.7268499  +6.3654068     3448.923     6644.741     7055.398     77.57154     155.2048     310.3788      1.991     6.54     846.5494     54.72019     473.3145        29     1.903     0.864  37.51   2
       145    449.7990    777.4733 307.7284788  +6.3680465     1808.797     3389.936     4246.575     77.20009     154.7102     310.2862      2.085     6.92     846.2562     54.72019     233.5742        23     1.925     0.759  38.97   3
       146    781.6229    781.9976 307.5905359  +6.3772614     9058.118     17303.57     18832.73     77.44792     154.9577     310.2553      2.000     6.66     846.5308     54.72019     1266.229        44     1.938     1.043  39.94   0
       147     12.4791    779.0358 307.9100095  +6.3527363     674.8362     1066.588     1006.356     77.69497     155.3283     310.4405      1.601     3.37     844.2155     54.72019     117.5963         5     0.784     0.420  66.28   3
       148      9.7956    776.8611 307.9111986  +6.3535448     777.7922     1026.133     1240.084     77.20009     155.0813     310.1935      1.485     4.33     844.1663     54.72019     131.6481         7     0.926     0.577  68.51   3
       149    803.2632    776.1312 307.5817503  +6.3804074     902.3053     1806.478     1488.443     77.81819     155.2666     310.5023      1.848     5.30     846.0342     54.72019     179.2263        11     1.739     0.457  38.42   0
       150    147.4251    774.2356 307.8541437  +6.3592517     2474.367     4631.083     5283.008     77.44792     155.0813     310.1935      2.038     6.20     845.1597     54.72019     336.0347        28     1.986     0.884  38.03   2
       151    139.3400    774.0066 307.8575087  +6.3590750     8678.222     17435.31     19254.82     77.20009     155.1431     310.2244      2.069     7.34      845.091     54.72019     1169.878        46     1.995     1.043  36.87   3
       152    131.6105    771.3066 307.8608110  +6.3599314     2293.997      4701.25     5228.236     77.44792     154.8958     310.2244      2.189     7.21     844.9268     54.72019     374.0564        27     1.960     0.883  40.00   3
       153    927.1810    770.6127 307.5304809  +6.3868172     4737.618     9344.107     10751.28     77.57154     155.0195     310.3479      2.097     6.11     842.5977     54.72019     617.8396        37     2.020     0.977  38.74   3
       154    921.4400    762.6584 307.5331365  +6.3899132     2284.493     4545.238     4827.711      77.8182     155.2666     310.5023      2.094     6.82     842.5201     54.72019     325.9543        31     2.038     0.959  42.49   3
       155    909.1544    800.5723 307.5369435  +6.3738357     5178.728     10134.92     11112.45      77.3241     155.3283     310.3479      2.038     6.16     843.9836     54.72019     633.7836        34     1.953     0.947  40.00   0
       156    977.3688    771.6900 307.5096030  +6.3880429     969.4773     1627.689     2236.395     77.94123     155.0813     310.4097      1.972     4.60     841.2764     54.72019     148.4927         9     1.116     0.770   3.71   2
       157    975.0133    769.4737 307.5106568  +6.3888805     916.3122     1515.394     2203.985      77.3241     154.9577     310.2244      1.564     3.55     841.2938     54.72019     151.4274         8     0.931     0.621 -14.58   3
       158    682.6440    768.2132 307.6321086  +6.3796553     1247.054     2369.028     2046.835      77.3241     155.0813     310.1935      1.927     6.76     846.2567     54.72019     192.0864        18     1.845     0.745  40.79   0
       159    569.5615    767.5508 307.6790887  +6.3761519     1841.864     3644.888     4280.486      77.8182     155.2666      310.317      2.026     6.85     846.1263     54.72019     241.6515        23     1.855     0.793  41.43   0
       160    417.4328    767.0231 307.7422769  +6.3712818     1097.684      1995.98     2633.648      77.3241     155.0813     310.2553      2.000     6.92     845.6259     54.72019     145.8008        16     1.474     0.911  36.62   0
       161    131.5170    764.9299 307.8610693  +6.3625633     1380.407     2714.396     3306.365     78.06406     155.5132     310.4714      2.248     7.15     844.7186     54.72019     209.3014        21     1.888     0.759  45.94   1
       162    981.7534    761.8361 307.5081186  +6.3922611     1396.935     2723.843     3085.635     77.44792     155.3283     310.3479      2.049     6.20     841.0483     54.72019     209.0052        22     1.832     0.797  39.27   0
       163    950.6994    761.9825 307.5210092  +6.3911668     2374.166     4488.164     5067.977     77.81819     155.1431     310.1935      2.044     6.10      841.756     54.72019      288.382        25     1.799     0.896  40.58   0
       164    673.9612    761.8953 307.6359304  +6.3819764     1162.037     2096.065     2496.512     77.81819     155.1431      310.564      1.822     6.68     846.0207     54.72019     170.2806        16     1.476     0.849  45.31   0
       165    820.4307    759.7521 307.5751812  +6.3877486     797.1755     1372.947     1326.887     77.44792     155.2666     310.3479      1.987     5.29     844.9953     54.72019     127.0342         9     1.275     0.619  50.29   0
       166    246.5025    756.8185 307.8136034  +6.3697727     1576.728     3181.773     4325.291     77.69497     155.1431     310.1935      2.235     6.81      845.719     54.72019     234.0553        19     1.702     0.763  36.81   0
       167    939.7951    752.6039 307.5258576  +6.3946796     784.9622     1671.659     1810.052     77.20009     154.8958     310.2862      2.201     5.60     841.7651     54.72019     136.1254        10     1.465     0.604  57.05   2
       168    914.3790    752.5854 307.5364127  +6.3938408     742.4045     990.4966     807.4257     77.57155     155.0195     310.3479      1.719     2.96     842.4223     54.72019      151.712         7     0.966     0.466  80.74   0
       169    162.7806    752.8360 307.8485040  +6.3686102      504.567      669.841     444.2409      77.3241     155.0813     310.2244      1.480     3.82     844.5547     54.72019     82.78131         6     0.769     0.556  40.85   0
       170    965.5825    749.7561 307.5152461  +6.3967150     1828.803     3948.432     4581.997      77.3241     155.1431     310.2244      2.226     7.26     841.2216     54.72019     223.3221        25     1.904     0.897  36.13   0
       171    911.0745    750.0604 307.5378712  +6.3947742     680.9764     805.3021     956.4073     78.06406     155.2666     310.4405      1.297     4.57     842.4229     54.72019     98.46405         7     0.928     0.639  54.33   0
       172    685.0135    748.8572 307.6317872  +6.3877334     751.0051     1285.707     1740.619     77.20009     155.1431     310.1317      1.985     5.58     845.7201     54.72019     111.8357        10     1.458     0.602  33.06   0
       173   1007.6194    743.1177 307.4980159  +6.4008575      1360.65      2591.73     2556.791     77.44792     154.9577     310.3788      2.106     6.80     840.4852     54.72019     177.0375        22     1.809     1.045  41.03   0
       174    634.8501    743.9300 307.6527866  +6.3880946     580.4645      1056.77     1125.273     77.81819     155.2048     310.4714      1.781     3.84     845.4869     54.72019      93.4751         5     0.813     0.520 -39.17   0
       175    404.3326    743.7793 307.7485144  +6.3804488      545.125     592.3741     332.5532     77.44792     155.2666     310.3788      1.178     4.51     844.6129     54.72019     102.8192         5     1.113     0.519 -33.68   0
       176    808.8892    741.9398 307.5805829  +6.3947249     790.5186     1418.951     1282.114     77.69497     155.3899     310.4714      1.724     5.45     844.4852     54.72019     120.3412        12     1.631     0.514  47.71   0
       177    894.7018    738.8749 307.5450523  +6.3988514     1168.315     2246.865     2451.616      77.3241     155.3899     310.4405      2.098     6.56     842.5977     54.72019     183.5859        20     1.788     0.812  40.87   0
       178    869.3608    733.6878 307.5557529  +6.4001507     829.6481     1561.638     1723.777      77.8182     155.2048     310.4714      1.990     5.99     843.2864     54.72019     138.2064        12     1.645     0.614  48.53   0
       179    655.0518    734.1268 307.6447334  +6.3928205     566.7198     745.9519     624.5226     77.81819     155.3283     310.4714      1.462     5.04     845.2299     54.72019     83.94049         6     1.254     0.572  21.60   0
       180    851.8741    730.5978 307.5631203  +6.4008450     1194.103     2248.611     2328.907      77.3241     154.7721      310.317      2.053     6.51     843.5177     54.72019     157.2461        16     1.623     0.732  41.06   0
       181     50.9145    729.4292 307.8957593  +6.3745268      1948.32     3730.482      4257.36     77.94122     154.9577     310.2862      2.084     6.42     843.2535     54.72019     263.9955        24     1.902     0.821  37.34   0
       182    114.6880    727.3107 307.8693517  +6.3775440     827.6492     1865.144     2253.033     77.57155     155.7595     310.5331      2.448     7.40     843.3001     54.72019     122.6177        15     2.151     0.713  62.56   0
       183    568.9329    724.7675 307.6808158  +6.3938112      502.911      736.472     674.7435     77.69497     155.3283     310.4097      1.561     3.44     844.8721     54.72019     98.55444         5     1.672     0.204  39.28   0
       184    663.6321    717.8177 307.6417287  +6.3998468     5038.932     9448.285     9850.249     77.44792     155.0813      310.317      1.937     6.82     845.0004     54.72019     739.4122        32     1.838     0.923  38.70   0
       185    610.6769    717.5502 307.6637283  +6.3981886     1108.704     2114.036     2593.322     77.69497     155.3283     310.4405      2.071     6.40     845.0004     54.72019     163.4418        15     1.738     0.662  36.10   0
       186    532.6542    718.2826 307.6961031  +6.3952783     492.1485     819.8536     550.2277      77.8182     155.2666     310.5331      1.702     4.92     844.5723     54.72019     80.17767         6     1.350     0.507  49.57   0
       187    521.1044    717.2584 307.7009344  +6.3953154     594.6061     1299.589     1410.584     77.69497     155.2666      310.564      2.158     6.09     844.5491     54.72019     130.6815         8     1.530     0.682  43.64   0
       188    126.6807    713.7509 307.8648387  +6.3835501      2918.94     5760.206     6445.061      77.8182     155.3283     310.4405      2.067     6.54     842.9312     54.72019     425.4716        33     2.050     0.947  41.08   0
       189    637.6069    713.6795 307.6526778  +6.4006878     1635.514     3284.198     3368.914     77.44792      154.834     310.2244      2.050     7.04      844.943     54.72019     253.4572        23     1.836     0.839  38.53   0
       190   1000.6214    712.9954 307.5019499  +6.4130730     1902.864     3704.828     3770.797     77.44792     155.0195     310.2553      1.961     6.75     840.4807     54.72019     243.5657        24     1.834     0.854  35.09   0
       191    780.6157    710.0812 307.5934134  +6.4069478     15600.01     29800.08     32013.44     77.44792     155.0195      310.317      1.985     6.78     844.1746     54.72019     2234.213        54     2.000     1.033  38.91   0
       192    313.2379    713.4628 307.7873822  +6.3899260     562.2513     989.6168     1330.946      77.8182     155.3283     310.4405      1.973     5.06     843.5156     54.72019     105.5291         7     1.298     0.558  38.18   0
       193    910.5963    709.8226 307.5394441  +6.4113870     2897.592     5624.498     6468.828     77.44792     154.9577     310.2553      2.045     6.42     841.6032     54.72019     406.9492        29     1.853     0.918  38.02   0
       194    479.5271    710.4370 307.7184337  +6.3967437     1168.346     2106.619     2265.853     77.69497     155.2666     310.5023      1.882     6.50     844.3723     54.72019       148.72        16     1.689     0.701  39.39   0
       195    508.2314    710.2675 307.7065198  +6.3977739     780.9898     1471.561     1229.455     77.69497     155.2666     310.4097      1.748     6.10     844.3864     54.72019     116.2044        10     1.696     0.617  35.61   0
       196    324.8342    709.2787 307.7827105  +6.3920435     557.0339     886.3826     814.8007     77.69497     155.3283     310.4714      1.759     5.29     843.3013     54.72019     94.55664         8     1.628     0.485  45.38   0
       197    254.1013    703.6033 307.8122773  +6.3920182     4869.757     9512.323     10217.31     77.57154     155.0195     310.1317      2.028     6.13     843.1404     54.72019     660.1674        39     1.936     1.031  38.36   0
       198    661.1450    702.8455 307.6432741  +6.4059511     5365.854     10405.26     10896.83     77.81819     155.2666     310.4405      2.004     7.18     844.7852     54.72019     777.2408        38     1.935     0.964  37.14   0
       199    643.3270    704.1754 307.6506279  +6.4048064     753.0147     1507.198     1837.453     77.44792     155.1431     310.3788      1.957     5.52     844.7995     54.72019      123.208        11     1.595     0.539  32.44   0
       200    355.8662    702.2562 307.7700656  +6.3959851     696.4391     1205.324     1139.146     77.94123     155.2048     310.4405      1.735     6.22     842.9631     54.72019     99.55432        10     1.546     0.703  43.85   0
       201    919.5850    694.5007 307.5362345  +6.4180183     776.8316     1351.863     1631.191      77.8182     155.0195     310.1626      2.054     3.39     841.1568     54.72019     137.6606         7     0.892     0.653 -48.73   2
       202    732.8636    691.2282 307.6138887  +6.4131459     2916.641     5520.362     5749.477     77.44792     155.2048     310.3788      2.013     6.30     844.7379     54.72019     414.7045        29     1.865     0.924  40.47   0
       203    688.5161    691.6650 307.6322903  +6.4114853      866.272     1441.296     1839.698     77.94123     155.5132     310.5023      1.877     5.98     844.6628     54.72019     142.0457        11     1.268     0.793  30.30   0
       204    999.1775    687.8878 307.5034064  +6.4234010     6728.354     13392.06     14235.09     77.81819     155.0813     310.3479      2.061     5.97     840.3895     54.72019     864.5177        44     2.008     1.037  38.47   0
       205    937.6323    688.3071 307.5289512  +6.4211789     1868.247     3381.492      3512.69     77.94123     155.0813     310.4714      1.929     7.02     840.8042     54.72019     254.5685        21     1.716     0.806  37.12   0
       206     18.2430    687.7715 307.9107604  +6.3906435     1459.902     2971.328     4093.777     77.44792     155.3283     310.3479      2.329     7.36     841.9806     54.72019     213.6096        20     1.806     0.839  33.46   0
       207    987.4217    687.7682 307.5082925  +6.4230592     572.0728     989.6619     1146.164      77.3241     155.0813     310.2553      1.928     4.13     840.4711     54.72019     106.0901         5     1.155     0.423  30.61   0
       208     76.5134    682.6703 307.8867400  +6.3947091     19549.98     38124.24     41341.02     77.94123     155.5132     310.4714      2.055     6.42     841.8254     54.72019     2474.457        65     2.043     1.131  38.71   0
       209    539.2593    684.6335 307.6945138  +6.4094047     1348.801     1649.289     1638.721     77.69497     155.3283     310.3788      1.255     2.55     843.8055     54.72019     236.9822         9     0.851     0.649  53.92   3
       210    536.4756    682.4703 307.6957439  +6.4102055     1198.616     2019.886     2181.262     78.06407     155.3899     310.4405      2.033     3.60     843.7357     54.72019     185.6511        12     1.207     0.803  68.54   2
       211    506.6535    681.0793 307.7081759  +6.4097831     1005.806     1970.411     1972.442     77.81819     155.2666     310.4714      1.857     6.68     843.7125     54.72019      161.625        16     1.823     0.687  43.33   0
       212    927.7494    679.8494 307.5333443  +6.4243450     900.4442     1508.575     1645.363     77.81819     155.1431     310.3788      1.856     5.93     840.7863     54.72019     126.5459        13     1.629     0.608  37.19   0
       213    548.2457    678.9494 307.6909768  +6.4120541     648.6633     1123.422     1527.081     77.94122     155.1431     310.5023      2.354     5.35     843.7023     54.72019      122.296         8     1.157     0.698  42.08   2
       214    722.4720    674.9265 307.6187620  +6.4195359     2710.274      4884.49     5017.582     78.06406     155.3899     310.4714      1.907     7.28     844.3788     54.72019       390.37        25     1.779     0.834  41.01   0
       215    744.4937    673.1545 307.6096773  +6.4210031     3165.196     5664.109     5887.474     77.69497     155.2048      310.564      1.934     7.27     844.1624     54.72019     466.1807        25     1.797     0.837  36.83   0
       216    576.1512    671.1997 307.6796539  +6.4161894     2546.708     4934.998     4850.958     77.07587      154.834     310.0081      1.974     7.36     843.8279     54.72019     385.0198        25     1.723     0.880  38.88   0
       217    411.9583    671.6162 307.7478246  +6.4105252     935.1343     1727.291     1783.612      77.3241     155.0813     310.1935      1.869     6.03      842.336     54.72019      156.603        13     1.708     0.599  42.37   0
       218    236.7168    670.7018 307.8206274  +6.4050316     1427.446     2661.049      2916.93      77.8182     155.6364     310.5023      2.055     6.96      841.529     54.72019     195.2856        19     1.698     0.799  37.03   0
       219   1017.3270    669.2297 307.4965057  +6.4317156     3773.153     6991.999     7019.166     77.69497     155.2666     307.3385      1.921     6.33     839.8966     54.72019     479.2325        29     1.852     0.888  43.23  16
       220    982.8007    668.1432 307.5108815  +6.4310156      5959.22     11623.88     12187.97     77.07587     154.9577     310.1317      2.040     6.16     840.1284     54.72019     847.7089        39     1.956     0.972  39.19   0
       221    320.0061    669.9061 307.7860680  +6.4081523     1168.267     2277.598     2750.129     77.44792     154.9577     310.2553      2.569     6.80      841.671     54.72019     178.2675        16     1.756     0.738  40.26   0
       222    703.0536    666.8760 307.6271017  +6.4222148      670.197     1444.292     1283.691     77.81819     155.2666     310.4714      2.122     6.15     844.0495     54.72019     124.8995        12     1.806     0.589  31.41   0
       223     95.7689    665.7285 307.8793276  +6.4023568     624.2474     1355.915     2032.694     77.69497     155.2666     310.4097      2.789     4.67     841.4489     54.72019     126.2686         8     1.160     0.534  51.57   2
       224    141.2596    661.5929 307.8605799  +6.4055931      17996.4     35381.85     38425.03     77.20009     155.1431     310.1935      2.041     6.50     841.4109     54.72019     2287.988        62     2.000     1.154  38.42   0
       225    809.6691    662.2683 307.5829830  +6.4276757     997.4173     1856.782      1639.53      77.8182     155.3899     310.4097      1.924     6.87     842.4295     54.72019     134.7313        16     1.688     0.785  41.27   0
       226    429.5237    663.5076 307.7408085  +6.4144641     1922.545      2782.66     3716.328     77.69497     155.4516     310.4405      1.703     3.12     842.3924     54.72019     302.5729        14     1.060     0.836  11.89   3
       227    426.5610    661.4962 307.7421079  +6.4151961     1837.523     2498.122     3323.343      77.8182     155.1431      310.564      1.417     2.85      842.265     54.72019      299.842        12     0.924     0.798  63.56   3
       228    360.2057    656.3745 307.7698392  +6.4150909     588.0316     1097.057     1274.151      77.3241     155.0813     310.2862      2.051     6.77     841.3658     54.72019     94.79132         9     1.722     0.746  47.40   0
       229    602.4146    656.2399 307.6692598  +6.4232492     348.5924     540.6249     605.5043     77.44792     155.0813     310.2244      2.275     3.71     843.3066     54.72019     93.20642         5     1.481     0.268  44.18   0
       230    977.7626    651.1906 307.5135525  +6.4378538     5389.865     10544.68     11341.66     77.20009     155.0813     310.1626      2.085     5.87     839.3061     54.72019     698.7501        41     2.073     0.986  38.96   0
       231     22.3221    650.4201 307.9103535  +6.4062154     925.4207      1975.01     2004.886     77.44792     155.0195     310.4097      2.188     7.22     841.4005     54.72019     151.9262        15     1.946     0.751  38.10   0
       232    571.2462    646.4347 307.6825396  +6.4262597     36623.03     71263.12     76853.84     77.44792     155.2048      310.317      2.028     7.11     842.5482     54.72019     5182.652        81     2.066     1.124  39.05   0
       233    935.8100    647.8480 307.5310896  +6.4378384     411.9493     664.6392     683.0767      77.3241     155.1431     310.1317      1.824     5.83     840.2454     54.72019      93.0697         6     1.505     0.635  35.31   0
       234    530.5269    646.6456 307.6994425  +6.4248112     494.0097     1018.745     1294.675     77.69497     155.3283     310.4405      2.040     5.36     842.4729     54.72019     98.79156         6     1.734     0.468  55.63   0
       235    179.7187    644.3246 307.8452036  +6.4140197     1853.677     2399.726     2783.552     78.06406     155.5132     310.5023      1.565     3.10     841.0195     54.72019     299.2369        15     1.089     0.907 -19.97   3
       236    177.3101    641.7101 307.8462937  +6.4150193     1673.425     2117.014     2541.003      77.8182     155.7595     310.5331      1.298     3.72     841.0049     54.72019     295.7862        11     1.006     0.876   2.43   3
       237     72.6979    638.2943 307.8898525  +6.4129187     910.5239     1175.244     1804.786      77.8182      155.821     310.2862      1.414     3.81     841.2332     54.72019     144.1082         9     0.940     0.667  23.73   3
       238     69.9707    636.2476 307.8910555  +6.4136729     844.4775     1128.703     1252.085     77.44792     155.3283     310.3479      1.349     3.36     841.2238     54.72019     140.1867         7     0.767     0.711 -42.20   3
       239    468.5141    630.2156 307.7257590  +6.4295267     48200.86     92903.87     99722.89     77.44792     155.0195     310.3479      2.027     7.13     841.9218     54.72019     6916.541        81     2.053     1.124  38.76   0
       240     11.9399    631.9174 307.9153023  +6.4135124     1389.646     2621.238     2785.078     77.94123     155.3283     310.4714      1.954     7.02     841.3356     54.72019     162.7432        19     1.651     0.837  37.27   0
       241    654.0207    626.7959 307.6488368  +6.4371409     737.9057     1246.647     935.5467     77.44792     155.0195     310.2553      1.915     6.22     841.6844     54.72019     114.1469        11     1.678     0.648  47.90   0
       242    144.0489    626.2849 307.8606367  +6.4202773     1055.309     1944.371     2047.066     77.81819     155.2666     310.4714      2.162     4.98     840.9457     54.72019     168.5837         9     1.090     0.645  37.13   2
       243    614.3172    622.0295 307.6654888  +6.4377844     713.5755     1565.189     1731.611     77.69497     155.0813     310.4097      2.294     6.54     841.3942     54.72019     109.8005        11     1.496     0.803  41.86   0
       244    422.2492    622.8542 307.7452247  +6.4310205     566.2274     1218.358     1235.056     77.81819     155.2666     310.4714      2.480     4.85     841.2171     54.72019     87.37006         8     1.521     0.438  27.78   0
       245    313.9685    619.7370 307.7902989  +6.4286821     1714.124      3495.75     4248.616     77.57154     155.3283     310.4097      2.166     5.98     840.0825     54.72019     244.1171        23     1.648     1.060  43.18   0
       246    466.1709    618.0288 307.7271502  +6.4344845     686.6098     1428.677     2091.919      77.3241     155.0195     310.1935      2.288     5.18     841.5043     54.72019     118.1415         9     1.670     0.454  38.60   0
       247    740.4885    613.7539 307.6133730  +6.4454171     3985.562     7385.663     7354.418      77.8182     155.1431     310.5023      1.897     7.30     842.0172     54.72019     579.7028        29     1.924     0.847  40.15   0
       248    794.0921    608.9896 307.5912740  +6.4491741     10569.07     20478.96     22296.79     77.57154     154.8958     310.2244      2.029     7.82     841.5116     54.72019     1539.552        48     1.990     1.017  39.11   0
       249   1011.6398    609.4617 307.5009072  +6.4562262     943.5789     1567.019     2144.326      77.8182     155.2666     310.5023      2.026     6.34     835.1658     54.72019      147.915        15     1.638     0.690  29.91   0
       250    536.7148    609.0967 307.6981601  +6.4405352     919.6145     1847.458     2092.268     77.81819     155.6364     310.5023      2.024     6.56     840.8843     54.72019     135.4315        14     1.696     0.712  42.73   0
       251    618.1813    607.0877 307.6643959  +6.4440883     2175.179     4209.652     4441.239     77.57154     155.0195     310.3479      2.027     7.17     840.6021     54.72019      346.171        21     1.794     0.803  41.41   0
       252    935.3165    603.3033 307.5328159  +6.4562305     757.1458     1721.442     2108.817      77.8182     155.6364     310.5023      2.227     6.41     839.4026     54.72019     117.2195        15     1.902     0.607  33.79   0
       253    230.3527    600.6599 307.8256786  +6.4337623     957.6885     2025.653     2033.343      77.8182     155.2666     310.5023      2.246     7.50     839.5698     54.72019      134.757        19     1.811     0.869  29.26   0
       254    376.5870    600.5918 307.7649520  +6.4386915     677.6266     1258.854     1337.959     77.44792     155.0813     310.3479      2.126     5.36     839.9985     54.72019     109.8196         9     1.918     0.422  40.50   0
       255    871.3922    593.2073 307.5597097  +6.4582732     1830.869     2577.398     2626.294     77.20009     155.0813      310.317      1.527     4.29     839.9942     54.72019     300.7963        15     1.234     0.868  52.92   3
       256    868.6830    591.2990 307.5609001  +6.4589715       1547.6      2067.16     2412.039      77.8182     155.7595     310.5331      1.274     2.98     839.9551     54.72019     292.1186        12     1.036     0.791 -62.81   3
       257    165.5365    592.4181 307.8528789  +6.4349936      700.487      1181.26     1233.738     77.44792     155.2048      310.317      1.892     5.91     840.1733     54.72019     105.1823        10     1.534     0.640  39.09   0
       258    828.9876    589.7727 307.5774385  +6.4582792     1913.159      3776.43     4036.495     77.44792     155.0813     310.3788      2.019     5.83     840.3318     54.72019     282.5991        23     1.915     0.743  40.75   0
       259    799.8065    585.5913 307.5897010  +6.4590342     1972.702     4272.536     5589.348     77.07587     155.0195     310.2553      2.575     5.71     840.4341     54.72019     288.1371        28     1.801     1.087  39.81   0
       260    742.8267    586.0060 307.6133515  +6.4569620     604.1479     1155.071     1432.549      77.3241     155.0813     310.2553      2.612     6.29     840.9705     54.72019      94.3476        11     1.686     0.659  34.31   0
       261    256.9184    584.6280 307.8151975  +6.4412782     5978.456     11526.98     12208.99     77.69497     155.0813     310.3788      1.974     6.85     839.4326     54.72019     816.8545        36     1.913     0.937  40.04   0
       262    809.5022    580.8613 307.5858359  +6.4613122     121087.1       231194       249848     77.57154     155.2666     310.5331      2.013     7.18     840.1267     54.72019     17665.35       138     2.131     1.214  39.11   0
       263    191.1041    579.1917 307.8427162  +6.4413172     43601.77     87069.78      95741.6     77.57154     154.8958     310.2553      2.102     6.72     839.6403     54.72019     6034.727       101     2.114     1.267  40.51   0
       264    115.1445    575.4004 307.8743914  +6.4403343      4590.51     9363.951     10168.41     77.07587     154.9577     310.1008      2.112     6.73     840.2281     54.72019     606.8411        37     1.936     1.027  40.59   0
       265    980.5792    572.6801 307.5150629  +6.4703928     1143.787     1826.839     1616.701     77.57155     154.9577     310.4405      1.813     6.09      836.282     54.72019     144.3394        15     1.445     0.722  34.48   0
       266    999.9913    571.0143 307.5070573  +6.4717274     619.6874      1056.91     943.2244     77.57154     155.0195      310.317      1.869     3.82     835.5524     54.72019     107.2277         7     0.894     0.735   4.86   0
       267    229.3659    570.5067 307.8271253  +6.4461897     703.7624     1106.369      1285.67     77.94123     155.1431     310.5023      1.953     6.89     839.2608     54.72019     116.9153        11     1.755     0.758  38.98   0
       268    847.3897    569.1769 307.5704999  +6.4674040     2986.822     4209.359     4356.501     77.44792     155.0813     310.2862      1.460     5.13     839.4108     54.72019     513.9283        17     1.358     0.797  57.57   3
       269    844.6926    567.3017 307.5716841  +6.4680890     2359.171     2966.319     2822.122      77.8182      155.821     310.3788      1.250     2.64     839.3495     54.72019     447.6203        12     0.991     0.705  75.29   3
       270    364.5266    566.3376 307.7711369  +6.4524429      13055.9     25343.56     27142.26     77.94123     155.2666     310.4714      2.032     7.07     839.2267     54.72019     1737.031        51     1.975     1.076  40.04   0
       271    456.2645    567.3580 307.7330029  +6.4550926     563.4032     750.1716     545.9798      77.8182     155.2048     310.4714      1.322     3.48     839.9713     54.72019     100.7457         5     0.838     0.502  55.13   2
       272    453.1856    565.4115 307.7343483  +6.4557939     490.1978     745.1194     389.3562     77.57154     154.9577     310.3788      1.408     3.47     839.9082     54.72019     72.30566         5     0.774     0.450  18.44   3
       273    166.2915    565.1977 307.8535020  +6.4462674     1402.332     2777.627     3360.327      77.3241     154.9577     310.1935      2.006     6.43     839.5258     54.72019     216.7395        17     1.646     0.705  39.18   0
       274    801.2984    562.6107 307.5898673  +6.4685808     3790.276     4517.102     5339.358     77.57155     154.8958     310.2553      1.224     2.55     839.3788     54.72019     676.5749        15     0.962     0.803  54.19   3
       275    798.7107    560.3688 307.5910187  +6.4694210     3656.016     4944.168     5542.546     77.94123     155.0813     310.3788      1.362     3.03     839.2693     54.72019     594.2038        19     1.051     0.938 -84.68   3
       276    242.4818    564.4333 307.8218873  +6.4491394     539.2294     897.7262     1217.382     77.69497     155.2048     310.4097      1.265     3.48     839.1973     54.72019     97.97589         5     0.767     0.456 -69.87   2
       277    240.5135    561.5078 307.8228052  +6.4502823     654.3477     1034.542     1087.556     77.69497     155.6979     310.5331      1.913     5.62     839.1758     54.72019     85.31342         7     1.219     0.729  -4.21   2
       278    530.9743    561.3202 307.7021823  +6.4600869     4968.669     9552.438     10532.72     77.57154     155.0813     310.4405      2.015     6.61      839.767     54.72019     736.9818        33     1.904     0.910  38.96   0
       279    103.3788    562.1146 307.8797349  +6.4454293     755.4059     1496.269     1405.082     77.57154     155.0195     310.3788      1.986     7.09     840.1298     54.72019     126.8618        12     1.462     1.071  20.12   0
       280    390.3458    558.6846 307.7606770  +6.4564702     954.2087     1227.833     1768.152      77.8182     155.2666     310.5948      1.331     3.10     839.3846     54.72019     150.8081         9     0.942     0.689  77.46   3
       281    387.7527    556.8946 307.7618154  +6.4571230     931.4438     1217.839     1360.953     77.69497     155.1431      310.564      1.463     3.09      839.324     54.72019     142.8456         8     0.873     0.632 -84.36   3
       282    177.8631    554.3594 307.8490694  +6.4511345     5170.537     10200.61     11407.07     77.81819     155.2048     310.5023      2.091     6.51     839.2259     54.72019     725.6279        38     1.946     1.003  38.26   0
       283     49.4678    553.0381 307.9024359  +6.4473691     3896.184      7820.68     8380.897     77.69497     155.2666     310.5331      2.088     7.48     840.7188     54.72019     528.1553        41     1.997     1.111  40.90   0
       284    858.8257    554.2368 307.5662609  +6.4739593     392.0865     664.9126     580.8669     77.44792     155.0813     310.2553      1.882     4.47     838.8557     54.72019       82.203         5     1.644     0.346  46.30   0
       285    816.5071    553.6633 307.5838567  +6.4727856     1081.047      2051.85     2805.724      77.8182     155.3899     310.5023      2.037     6.51     838.9381     54.72019     161.7003        16     1.843     0.646  33.08   0
       286    577.4803    555.0070 307.6830841  +6.4642506      1399.93     2137.903     2333.456     77.44792      154.834     310.2553      1.583     3.09     839.6234     54.72019     248.4857        11     1.018     0.672  37.64   3
       287    574.7069    553.0229 307.6843040  +6.4649778     1430.147     2275.545     2405.069     77.81819     155.0813     310.2862      1.706     5.09     839.5812     54.72019     230.9099        14     1.294     0.961  75.26   3
       288    273.0859    550.8096 307.8096459  +6.4557954      64649.2     128424.6     138774.8     77.44792     154.9577     310.2862      2.054     6.70     839.0739     54.72019     8899.364       102     2.075     1.213  38.94   0
       289    564.0000    548.9929 307.6888889  +6.4662853     709.4668     1241.496     1547.462     77.07587     154.8958     310.2244      1.880     2.68     839.4893     54.72019     127.7217         5     0.777     0.500  66.09   2
       290    256.9170    545.7509 307.8165347  +6.4573438     1215.208     857.2567     601.5954     77.81819     155.2666     310.5023      1.110     6.77     839.0135     54.72019     169.6447        17     1.614     0.796  30.86   0
       291    972.7629    544.6282 307.5192670  +6.4817254     1205.584     2354.874     2633.597      77.3241     155.0195     310.2553      2.132     6.99     835.9049     54.72019     196.2009        18     1.716     0.797  42.23   0
       292    796.2339    543.2901 307.5926315  +6.4763963     12421.77     23772.92     25773.85     77.94123     155.1431     310.4405      2.031     7.11     838.6028     54.72019      1831.06        51     1.967     1.038  37.74   0
       293    499.8536    541.6345 307.7157823  +6.4671812     32060.48     63144.55     70957.45     77.69497     155.2666     310.4097      2.118     6.16     839.2486     54.72019     4455.112        88     2.139     1.298  36.00   0
       294    650.4539    540.0364 307.6532896  +6.4728754     882.2866     1793.289     1698.324     77.69497     155.2666     310.4714      2.072     5.91     839.2321     54.72019     148.0815        13     1.638     0.600  33.85   0
       295    659.7061    536.5569 307.6495661  +6.4746223     2403.479     4718.649     5086.973      77.8182     155.2048      310.564      2.040     7.35     839.1191     54.72019     377.4211        31     1.905     1.025  43.07   0
       296    212.1599    537.9570 307.8353904  +6.4590634     1219.029     2748.868     3095.745     77.57154     155.2666      310.317      2.327     7.66     838.7612     54.72019     170.8435        23     1.809     1.036  29.63   0
       297     48.2112    538.1852 307.9034694  +6.4534645     797.6973     1534.092     1626.492     77.57154     154.9577     310.3788      2.173     5.63     840.4688     54.72019     143.1982        11     1.705     0.525  40.97   0
       298    668.6161    535.8018 307.6458913  +6.4752319     890.8035     1727.024     1894.935     77.44792     154.8958     310.2244      2.246     3.99     839.0786     54.72019     158.5814         6     0.915     0.497  55.73   2
       299    722.1017    535.8307 307.6236761  +6.4770056     1021.316     2277.896     2316.996     77.81819     155.0195     310.5023      2.128     6.83     839.2283     54.72019     136.5889        15     1.751     0.746  40.47   0
       300    397.5604    532.4914 307.7585801  +6.4675360      1244.28     2357.786     2128.847      77.8182     155.2048     310.5023      1.955     6.54     838.6495     54.72019     177.1698        16     1.652     0.728  38.69   0
       301    144.2292    529.2184 307.8639026  +6.4603948     18988.54     37732.69     40503.65     77.44792     155.0813     310.3788      2.040     7.11       838.96     54.72019     2741.402        62     2.033     1.095  38.88   0
       302     76.7453    533.1918 307.8917915  +6.4564867     673.6608     891.8338     1024.551     77.20009     155.2048     310.1626      1.610     4.20     839.9615     54.72019     110.9244         6     0.938     0.597  26.05   0
       303    873.5197    530.0668 307.5609841  +6.4844374     1001.714     1545.365     1622.756     77.94122     155.5132     310.4405      1.455     4.41      837.925     54.72019     176.4922         9     1.368     0.541  75.32   3
       304    870.7111    528.3449 307.5622094  +6.4850554     925.2233     1339.881     1502.876      77.8182     155.1431      310.564      1.685     5.20     837.9489     54.72019     141.7913        10     1.139     0.672  67.93   3
       305    510.4676    531.0263 307.7117380  +6.4719200     1292.414     1831.934     2567.472     77.44792     155.1431     310.3479      1.455     2.94     838.8255     54.72019     263.5438        10     1.027     0.645  47.93   3
       306    507.7376    528.9488 307.7129431  +6.4726872     1204.344      1916.88     2634.706     77.81819     155.2048     310.4405      2.031     5.44     838.7444     54.72019     209.1357        11     1.286     0.866 -89.00   3
       307    329.0904    530.5305 307.7870839  +6.4660528     2811.989     5423.163     6052.224     77.81819     155.3899     310.4405      2.028     6.52     838.2303     54.72019     376.5954        28     1.828     0.901  40.35   0
       308    109.2969    527.4187 307.8784718  +6.4599656     1959.022     3997.624     4735.515     77.69497     155.1431     310.1935      2.219     6.50     839.4291     54.72019      261.806        25     1.740     0.992  40.71   0
       309    346.2450    525.2581 307.7801405  +6.4688063     811.4466     1498.791     1691.131     77.69497     155.2666     310.5331      1.843     6.50     837.9801     54.72019     121.8324        14     1.759     0.674  45.16   0
       310    969.7687    523.8845 307.5212189  +6.4901982     3701.279     7453.429      8295.57     77.81819     155.0813      310.317      2.078     7.14     835.7463     54.72019     543.5187        34     1.977     0.937  41.58   0
       311    542.6223    516.0573 307.6988967  +6.4791813     1184.257     2218.283      1980.49     77.44792     155.2048     310.2553      1.830     6.32     838.3251     54.72019     189.2606        15     1.719     0.653  37.36   0
       312      8.4894    513.5035 307.9208160  +6.4623288      19159.6     37096.55     40464.73      77.8182     155.6979     310.4405      2.034     6.50     840.0541     54.72019     2394.092        58     2.002     1.098  36.95  16
       313    649.2710    510.0052 307.6548095  +6.4852464     9108.561     17813.84     18687.38     77.44792     154.8958      310.317      2.008     7.87     838.1722     54.72019     1411.717        45     1.937     1.022  39.83   0
       314    441.1792    510.3110 307.7412258  +6.4781622     32362.38     62881.81     67607.99     77.69497     155.0195      310.317      2.032     6.78     837.8987     54.72019     4585.247        72     2.030     1.122  39.06   0
       315    289.8950    511.2375 307.8040252  +6.4727118     726.2971     1375.714     1673.948     77.94123     155.1431      310.564      1.827     5.18     837.1512     54.72019     119.1997         7     1.531     0.495  23.83   2
       316    206.3394    507.9056 307.8388414  +6.4712865     14940.14     29055.01     31803.37     77.69497     155.2666     310.4714      2.057     6.43     837.7827     54.72019     1862.903        59     2.121     1.077  38.16   0
       317    172.1340    509.1456 307.8530045  +6.4696263     1221.659     2390.834     2025.471     77.81819     155.2048     310.4097      1.948     6.06     838.1757     54.72019     194.8336        18     1.745     0.780  45.55   0
       318    983.5063    508.0727 307.5160529  +6.4971900     966.9113     1605.247     2260.811     77.69497     155.3899     310.4714      1.952     6.45      835.415     54.72019     143.6761        15     1.739     0.671  41.23   0
       319    911.9138    507.6071 307.5458047  +6.4949983     617.8817     1029.042     1478.884     77.44792     154.9577     310.1935      1.724     5.61     836.4534     54.72019     89.45056        10     1.456     0.610  50.42   0
       320    572.3191    507.6942 307.6868494  +6.4836301     1692.597     1872.219     2284.754     77.57155     155.5132     310.5331      1.243     3.84     838.0525     54.72019     294.0348        12     1.054     0.817  58.85   3
       321    569.6721    505.6634 307.6880184  +6.4843809     1544.385     1763.017     2012.553      77.8182     155.2666     310.5023      1.186     3.01     837.9781     54.72019      237.877        10     0.971     0.696  80.84   3
       322    823.4501    507.5642 307.5825494  +6.4920678     670.4698     1367.725      863.409     77.69497     155.2666     310.3788      1.905     6.72     837.8064     54.72019     101.3824        10     1.447     0.875  42.94   0
       323    944.9327    503.8937 307.5322172  +6.4976327     3568.058     6822.273     7163.757     77.69497     155.4516     310.4714      1.971     7.33     835.7991     54.72019     511.0242        27     1.880     0.800  39.05   0
       324    619.4664    503.4554 307.6674128  +6.4869574     4218.287     4964.538     4982.421     77.94123     155.1431     310.4405      1.209     2.77     837.8932     54.72019     711.9802        17     0.966     0.902  67.95   3
       325    616.7075    501.3496 307.6686308  +6.4877355     4164.195     5040.267     5086.588     77.69497     155.1431     310.6257      1.265     2.74     837.8171     54.72019     624.1075        14     0.920     0.853  45.91   3
       326    105.5961    502.6279 307.8808624  +6.4700858     788.5487     1663.418     1804.715      77.3241     155.0813     310.2862      2.045     5.69     839.0161     54.72019     142.4589        11     1.973     0.463  39.66   0
       327    517.2991    501.7661 307.7099043  +6.4842402      627.516     1136.746     957.8404      77.8182     155.1431     310.5948      1.621     4.09     837.7204     54.72019     97.85858         6     1.060     0.450  84.98   0
       328    967.3742    496.2106 307.5231584  +6.5015550      2525.75      4897.78     5588.185     77.44792     155.0813      310.317      2.087     7.09      835.476     54.72019     329.2886        26     1.961     0.793  40.97   0
       329    530.2083    493.5312 307.7048251  +6.4880750     5576.036      10908.8     12271.22      77.3241     155.0195     310.3479      2.047     6.39      837.468     54.72019     763.6415        40     1.987     1.016  38.00   0
       330    747.1729    494.9475 307.6146624  +6.4947375     477.2479     491.3143     387.6509     77.44792     155.3899     310.3788      1.183     2.44     837.9009     54.72019     113.4747         5     0.761     0.486  37.51   0
       331    376.2221    493.6674 307.7687755  +6.4828652     2027.198     3920.784     4050.333     77.44792     155.2048     310.3788      2.061     6.49     836.9354     54.72019     307.9817        22     1.866     0.755  42.10   0
       332    886.5445    489.4109 307.5569637  +6.5016728     2343.861      4527.51     4905.641     77.20009     155.2048     310.1317      2.070     7.44     836.5687     54.72019     330.6884        30     2.109     0.870  32.52   0
       333    538.9738    489.9430 307.7013075  +6.4898510     631.8585     1247.134     1710.639     77.44792     155.2666      310.317      2.446     5.65     837.3591     54.72019     87.36328         9     1.161     0.775  41.61   0
       334    933.6515    483.3332 307.5376052  +6.5057538     1013.325     1779.747     1863.452     77.69497     155.2048     310.4405      1.810     6.42     835.4993     54.72019     181.6519        16     1.743     0.664  41.37   0
       335    895.2975    484.6632 307.5534904  +6.5039265     1519.183     1835.616     1626.306     77.69497     155.3899     310.4714      1.299     2.92     836.2971     54.72019     233.1316        11     0.937     0.747  28.68   3
       336    892.7906    482.9850 307.5545890  +6.5045365     1374.181     1632.407     1661.391     77.57154     155.0195     310.3479      1.252     2.94     836.2913     54.72019     233.9155         9     0.941     0.661 -81.35   3
       337    112.7803    482.8469 307.8785599  +6.4785013     644.4772     1004.308     1047.264     77.44792     155.2666     310.2553      1.573     5.05     838.5222     54.72019     101.2644         9     1.412     0.510  24.53   0
       338    719.3099    480.6911 307.6267232  +6.4996991     1929.115     2487.375     3059.698      77.8182     155.7595     310.5331      1.424     2.68     837.3995     54.72019     334.6356        12     0.978     0.719  41.40   3
       339    716.7198    478.6421 307.6278691  +6.5004594     1855.439     2431.107     2797.911      77.8182     155.2666     310.4097      1.298     2.55      837.304     54.72019     308.2162        11     0.836     0.759  -9.69   3
       340    388.9619    477.9094 307.7640255  +6.4898038     2712.477     5246.128      5317.42     77.94123     155.2048     310.4714      1.995     6.54     836.3212     54.72019     393.5883        30     1.905     0.899  39.37   0
       341     81.2034    479.6138 307.8917854  +6.4787766     1412.703     2105.067     2379.096     77.44792     154.9577      310.317      1.569     3.14     838.7247     54.72019     194.6272        10     0.920     0.804  77.75   3
       342     78.3502    477.7247 307.8930354  +6.4794615     1203.795     1712.021     2084.088      77.8182     155.3283     310.4405      1.580     3.56     838.6872     54.72019     194.6385        11     1.056     0.673  39.28   3
       343    428.9556    478.0829 307.7474089  +6.4910712     722.7689     1608.054     1440.672     77.81819     155.2666     310.4405      2.482     6.48     836.4831     54.72019     116.2167        13     1.939     0.607  33.97   0
       344    616.6855    474.5156 307.6695594  +6.4988239     7660.524     14641.16      15613.6     77.57155     155.3899     310.4714      1.988     6.83     836.8148     54.72019     1050.333        41     2.000     0.928  40.32   0
       345    779.4417    471.1307 307.6020745  +6.5056565     12466.41     23516.09     26081.84     77.69497     155.2666     310.5023      1.976     7.10     837.0384     54.72019      1898.51        45     1.947     0.972  38.84   0
       346    299.0552    471.4966 307.8015868  +6.4894414     1946.725     3652.477     3508.583     77.69497     155.2666     310.6257      1.953     6.93     835.2805     54.72019     256.0391        23     1.873     0.801  34.96   0
       347    808.6147    468.3037 307.5900539  +6.5077977     923.2379     1764.965     1558.331     77.57155     155.0195     310.2244      1.943     6.39     836.8296     54.72019     147.5974        15     1.672     0.686  38.53   0
       348    382.0197    467.9529 307.7672508  +6.4936857     1300.258     2539.576      2733.96     77.44792     155.2666     310.2553      2.232     7.18     835.7261     54.72019     172.4948        20     1.762     0.819  36.24   0
       349    909.1304    468.3824 307.5483011  +6.5111155     508.8671     918.9658     1124.258      77.3241     155.1431     310.3479      1.796     3.50     835.3617     54.72019      84.4635         5     0.834     0.424  19.29   0
       350    784.3015    467.0175 307.6001966  +6.5075184     1072.456     2276.928      3280.54     77.81819     155.0813     310.2244      2.290     5.11     836.8626     54.72019     190.3763        10     1.483     0.497  32.33   2
       351    964.4387    466.0085 307.5254091  +6.5139386     1445.768     2781.287     3102.546     77.07587     155.0195     310.1626      2.034     6.54     834.7296     54.72019     236.2125        19     1.884     0.725  39.01   0
       352    370.6724    463.9991 307.7720995  +6.4949395     534.3996     1157.631     1365.367     77.20009      154.834     310.2862      2.363     4.26       835.48     54.72019     118.8973         5     1.561     0.331  44.50   0
       353    116.6902    462.9442 307.8776213  +6.4868571     3503.769     6831.367     7293.045     77.69497     155.1431      310.564      2.029     6.56     837.9633     54.72019      501.337        30     1.871     0.933  38.03   0
       354   1018.5571    460.8197 307.5031073  +6.5178842     3338.009     6208.514     6728.629      77.3241     155.1431     298.4815      2.024     6.43     834.3538     54.72019     416.7651        33     2.026     0.882  37.24  16
       355    756.2637    462.9857 307.6119803  +6.5082492      1640.33     2200.142     2486.586      77.3241     155.1431      310.317      1.360     3.16     836.6868     54.72019      243.058        12     1.101     0.680  13.24   3
       356    753.5359    460.5989 307.6131949  +6.5091445     1333.975     1630.906     2294.918     77.20009     155.0195     310.1935      1.387     2.90     836.5989     54.72019     236.6391        12     0.954     0.856 -59.58   3
       357    274.8507    460.0588 307.8120328  +6.4933566     1185.602     2336.908     2180.069     77.81819     155.2666     310.4405      2.026     7.08     835.0773     54.72019     165.0239        19     1.735     0.810  31.68   0
       358    352.8641    457.8400 307.7797075  +6.4968882     2475.962     4661.737      5174.75     77.81819     155.2048     310.5023      1.980     5.81     835.1483     54.72019     321.1751        29     1.878     0.879  40.26   0
       359    708.6630    455.4124 307.6320107  +6.5097902     1281.785     2198.045     2469.782      77.3241     155.0813     310.2244      1.787     5.79     836.2338     54.72019     211.0365        14     1.706     0.553  37.16   0
       360    982.6259    454.5750 307.5182452  +6.5192690     532.8661     1089.021     1619.033      77.3241     155.0813     310.3479      1.835     4.33     834.2427     54.72019     92.96399         6     1.565     0.341  37.09   0
       361    241.6473    454.6274 307.8260099  +6.4944876     698.1852     1324.509      1559.41     77.44792     155.3283     310.3788      1.879     4.28     835.4785     54.72019     112.8976         6     0.878     0.594  52.10   2
       362    550.1539    448.5773 307.6980824  +6.5073191     754.4611      1632.69     2015.186     77.44792     155.2666      310.317      2.349     7.22     835.1481     54.72019     119.9089        13     1.800     0.810  42.93   0
       363    472.6466    446.7021 307.7303393  +6.5055015     1062.272     1914.226     2206.322      77.8182     155.0813     310.6257      1.926     6.59      834.515     54.72019     172.0173        17     1.783     0.787  38.57   0
       364    834.8956    445.8865 307.5799045  +6.5179381     981.4727     1961.488     2472.839     77.81819     155.6364     310.5023      2.101     6.32     835.6385     54.72019      184.913        14     1.877     0.598  38.52   0
       365    820.4769    444.5856 307.5859381  +6.5179949     1632.446     3235.177     3747.234     77.44792     154.9577     310.2862      2.101     7.01     835.7281     54.72019     235.5327        19     1.931     0.713  40.09   0
       366    717.8408    442.8219 307.6286297  +6.5152996     11212.45     21815.98     24054.63     77.44792     155.0813     310.2553      2.040     8.18     835.7455     54.72019     1659.366        53     2.057     1.024  39.52   0
       367    620.4636    445.0257 307.6690007  +6.5111369      704.988     1224.235     1203.345     77.44792     155.2666     310.3788      1.782     6.28     835.5126     54.72019     101.1539        11     1.568     0.706  47.37   0
       368    640.3629    439.7035 307.6609178  +6.5140011     1853.837     2239.729     2444.159      77.8182     155.1431     310.5948      1.220     2.64     835.3612     54.72019     304.6961        11     0.907     0.719  27.25   3
       369    637.7119    437.6780 307.6620883  +6.5147496     1584.072     2421.511     2906.822     77.69497     155.5132      310.564      1.603     3.97     835.2682     54.72019     269.6143        13     1.112     0.908 -47.99   3
       370    611.2912    433.9543 307.6731900  +6.5154057     12046.55     24398.26     30356.04     77.81819     155.2048      310.564      2.389     8.26      835.001     54.72019     1708.739        68     2.769     1.035  35.95   0
       371    943.2157    432.7323 307.5353611  +6.5269835     2764.615     5401.376     5316.485      77.3241     155.1431     310.3479      1.989     7.31     833.4576     54.72019     407.7291        27     1.917     0.832  39.56   0
       372    382.2691    428.6916 307.7684957  +6.5099186     21927.73     42429.04     46230.32      77.8182     155.3899     310.4405      2.043     6.54     833.5525     54.72019     2916.267        64     2.042     1.094  40.12   0
       373    898.5092    428.0051 307.5540926  +6.5274479     1263.846     2761.436     3151.188     77.44792     154.9577     310.1626      2.416     8.82     833.9019     54.72019     196.1816        24     2.437     0.892  43.37   2
       374    128.2894    428.1156 307.8740031  +6.5016389     1892.699     3314.053     3650.191     77.57154     155.5132     310.5331      1.885     6.25     836.7783     54.72019      263.912        23     1.856     0.760  33.87   0
       375    912.0685    423.1758 307.5486254  +6.5298954     3772.702     7219.567     7816.175     77.44792     155.1431     310.3788      1.995     7.40     833.4176     54.72019     540.1589        31     1.936     0.847  39.43   0
       376     61.8242    423.7645 307.9017579  +6.5012043      1275.22     2574.442     3138.218      77.3241     155.0813     310.2244      2.088     6.30     837.7693     54.72019     183.2055        16     1.848     0.603  33.85   0
       377    239.8458    419.2190 307.8279759  +6.5090593     10310.22     20259.56     21907.81     77.44792     155.1431     310.2244      2.033     6.71     834.4233     54.72019     1412.791        45     1.978     1.019  38.29   0
       378     74.6898    413.0733 307.8967827  +6.5060546     691.0308     1282.612     1241.897     77.81819     155.5132     310.4714      1.713     5.37     837.4087     54.72019     128.6483         8     1.405     0.580  41.77   0
       379    734.2324    412.8412 307.6228475  +6.5282364     605.0281      1034.95     1219.308     77.44792     155.2048      310.317      1.978     6.15     834.4686     54.72019     98.81189         9     1.536     0.693  30.57   0
       380    963.7110    411.4886 307.5275734  +6.5364451     762.2928     1058.107     939.9464     77.57155     155.7595     310.5331      1.726     5.87     832.6329     54.72019     117.3643        10     1.435     0.677  36.22   0
       381    351.7071    407.6513 307.7819124  +6.5175895     894.0841     1825.125     2062.253     77.69497     155.1431     310.6257      2.210     5.03     832.6583     54.72019     140.8414        11     1.238     0.840  20.84   2
       382    185.3023    408.6066 307.8509952  +6.5116147     674.6144     1337.338      1124.09     77.57155     154.8958     310.2244      2.087     5.85     835.0257     54.72019     100.2051         9     1.512     0.637  42.69   0
       383    140.0351    407.8600 307.8698221  +6.5104036     3856.855     7574.442     7904.185     77.81819     155.2666     310.4097      2.039     7.02     835.9253     54.72019      520.391        32     1.879     0.929  38.04   0
       384    380.1798    408.3923 307.7700607  +6.5182371     394.4883     693.4889     484.5777     77.44792     155.0195     310.2553      1.333     5.04     832.4266     54.72019     78.10925         8     1.622     0.443  40.57   0
       385    245.9903    407.7377 307.8258188  +6.5140099     847.9303     1265.161     1457.867     77.20009     155.0813     310.2553      1.734     4.54     834.0184     54.72019     104.7752         9     0.938     0.688  71.26   3
       386    243.6781    405.4383 307.8268582  +6.5148825     864.4669     1092.596      1409.37     77.69497     155.3283     310.4405      1.288     3.68     833.9781     54.72019     167.1835         8     0.954     0.696 -71.43   3
       387    634.0022    406.8499 307.6646854  +6.5273654     353.1146     437.0241     731.2753     77.20009     154.8958      310.039      1.445     4.38     833.7982     54.72019      74.2113         5     1.074     0.508  38.00   0
       388    163.3283    404.6630 307.8602576  +6.5125068     1756.415     2357.994     2815.295      77.8182     155.2666     310.5023      1.448     2.97     835.2836     54.72019      247.316        13     0.999     0.805  66.65   3
       389    160.6607    402.7436 307.8614317  +6.5132104     1448.224     2394.926     2978.269     77.94123     155.2666     310.4714      1.880     4.45     835.2827     54.72019     244.7049        16     1.270     1.018 -56.01   3
       390    826.5609    404.5016 307.5847818  +6.5347627      676.688     1063.555     1278.667      77.8182     155.1431     310.6565      1.899     5.24     834.1422     54.72019      86.1687         8     1.405     0.551  31.43   0
       391    557.8163    402.5898 307.6964766  +6.5265796     726.4382     1308.814     1440.634     77.57154     155.0195      310.317      1.982     6.89      832.622     54.72019     123.4409        13     1.823     0.730  31.49   0
       392    385.4763    398.4398 307.7682026  +6.5225273     1599.267      3240.44     3044.424     77.69497     155.2666     310.5023      2.115     7.35     831.8612     54.72019     206.7421        21     1.821     0.831  37.64   0
       393    975.3898    398.6718 307.5231599  +6.5421306     544.1713     1212.157     1481.731      77.3241     154.8958     310.2862      2.940     4.88     832.2509     54.72019     97.77069         7     1.172     0.576  70.05   2
       394    273.9721    399.0149 307.8144966  +6.5185529     521.0696     1075.198     925.4763     77.44792     155.0813     310.3479      2.012     4.10     833.2068     54.72019     84.35431         7     1.467     0.327  29.00   0
       395    320.4663    397.6582 307.7952317  +6.5206722     555.7863     839.6938     1051.897     77.94123     155.2048     310.4405      1.781     3.38     832.4965     54.72019     99.73914         5     1.032     0.321  67.10   0
       396     35.9333    392.9118 307.9135743  +6.5130835     2442.826     5302.852     5692.676     77.94123     155.4516     310.4097      2.258     6.87     836.8909     54.72019     386.6955        34     1.843     1.286  27.28   0
       397    439.5060    392.1044 307.7459783  +6.5269545      5577.18     10906.76     11723.42     77.81819     155.8824     310.3788      2.019     7.40     831.3793     54.72019     762.4789        41     1.958     1.033  39.50   0
       398    773.3516    391.7306 307.6073208  +6.5382657     1284.309     1868.656      2436.66      77.8182     155.2048     310.4714      1.684     2.98     833.7413     54.72019     228.6965        11     1.043     0.705  63.00   2
       399    770.7369    390.2963 307.6084560  +6.5387712     1027.107     1342.919     1698.546     77.69497     155.3899     310.5023      1.231     2.75      833.652     54.72019     232.2926         6     0.949     0.415  76.43   3
       400    781.4745    390.4694 307.6039899  +6.5390579     8392.896     10523.26     11269.18     77.94123     155.3899     310.4405      1.299     2.64     833.7284     54.72019     1435.377        24     1.107     0.942  66.42   3
       401    778.7295    388.3607 307.6052022  +6.5398378     7984.283     9911.332     10710.97     77.69497     155.2666     310.5023      1.237     2.59     833.6426     54.72019     1357.623        21     0.999     0.908 -70.32   3
       402    343.3713    387.6315 307.7860626  +6.5255832     874.5293      1546.14     1870.592      77.3241     155.0195     310.2244      2.127     5.57     831.7086     54.72019     128.6225        11     1.673     0.522  44.55   0
       403   1022.8622    383.8932 307.5039449  +6.5498181     2362.816     3161.663     2831.493     75.94879     134.7851     246.2384      1.437     3.92      831.431     54.72019     315.2948        15     1.213     0.813  60.64  24
       404    954.3873    380.3167 307.5325110  +6.5490167     608.2551     1055.093     1035.839     77.44792     155.0813     310.2862      1.504     5.84     831.8499     54.72019     111.6449         8     1.967     0.488  43.29   0
       405    188.5308    380.5236 307.8506207  +6.5233279     528.7565     1278.883      538.548     77.94123     155.3899     310.4714      2.239     5.31     834.4384     54.72019     87.47241         6     1.597     0.499  -0.35   0
       406    459.8583    376.3719 307.7380647  +6.5341371     1869.881     3466.095     3648.357     77.44792     155.3283     310.3479      1.868     6.08     830.7018     54.72019     249.2308        23     1.787     0.811  35.75   0
       407    487.6715    375.7772 307.7265324  +6.5353137     2339.783     4465.708     4881.494     77.44792     155.0813     310.4405      1.999     7.03     830.8148     54.72019     352.4584        26     1.882     0.829  37.01   0
       408    916.1089    375.5024 307.5485761  +6.5497313     474.9858     742.2696     894.3093     77.81819     155.7595     310.4405      2.017     4.24     832.2327     54.72019     128.1838         6     1.495     0.343  43.46   0
       409    845.3975    372.3714 307.5780561  +6.5486687     24768.44     49272.97     53651.54      77.3241     155.0195     310.2553      2.056     6.54     833.2004     54.72019     3160.522        71     2.046     1.177  42.78   0
       410    339.3361    368.9900 307.7883792  +6.5331514     524.1296     639.2479      407.444      77.3241     155.0813     310.2862      1.415     3.92     830.8198     54.72019     85.76025         5     0.893     0.493  85.73   2
       411    336.7439    367.6573 307.7895017  +6.5336153     640.4791     1083.237     822.5441     77.94123     155.3283     310.5023      1.493     4.55     830.8138     54.72019     112.4092         7     1.147     0.513  46.50   2
       412    617.2532    364.7027 307.6730869  +6.5442231     2017.129     3973.482     4107.433     77.69497     155.2666     310.6565      2.042     6.98     831.2979     54.72019     303.4382        23     1.880     0.762  37.04   0
       413     26.3423    365.6643 307.9184969  +6.5240206     638.9702     1212.012     1558.052     77.94123     155.2048     310.4714      1.786     3.96     835.8504     54.72019     106.6817         7     1.270     0.354  44.45   2
       414     24.0000    363.8886 307.9195310  +6.5246756      667.187     1080.058     1597.335     77.07587     154.7721     310.1008      1.704     2.31      835.775     54.72019      134.011         5     0.745     0.483  71.96   3
       415    703.2997    359.5972 307.6375193  +6.5492070     49418.11     59296.46     61997.18     77.57155     155.0195     310.1317      1.231     2.89     831.8316     54.72019     8899.475        46     1.133     1.001 -59.13   3
       416    700.6666    357.3221 307.6386910  +6.5500593     51833.16     67672.77     70760.06     77.94123     155.3283     310.4097      1.352     2.63     831.6782     54.72019      7801.84        52     1.230     1.108 -73.53   3
       417    860.3246    360.0378 307.5722772  +6.5542632     921.4017      1600.38     2140.383     77.69497     155.3283     310.4714      2.047     5.67     832.8651     54.72019     135.1755        12     1.559     0.580  37.12   0
       418     81.3827    357.7867 307.8959076  +6.5291256     1078.624      2093.86     1881.582     77.57155     154.9577     310.3479      2.019     6.75      835.403     54.72019     176.9726        17     1.842     0.722  36.18   0
       419    564.4385    355.0479 307.6953562  +6.5464476     2047.574     3877.476     4347.162     77.69497     155.3283     310.2862      1.933     6.82     830.1127     54.72019     264.2051        20     1.781     0.752  38.68   0
       420    944.5597    356.5022 307.5374070  +6.5585309      604.686     830.9116     676.7238      77.8182     155.1431     310.6565      1.314     0.98     831.3802     54.72019     103.1821         4     0.517     0.479 -47.73   2
       421    101.5887    353.7722 307.8876532  +6.5314634      4793.17     9150.065     9478.671     77.44792     155.0813      310.317      1.992     6.26     835.1746     54.72019     624.2419        35     1.919     0.953  39.55   0
       422    763.1259    353.5685 307.6128744  +6.5536952     458.2441      790.603     1475.318     77.69497     155.2666     310.4405      2.023     6.01     832.1588     54.72019     88.67761         7     2.014     0.504  40.50   0
       423    547.6803    351.2753 307.7024466  +6.5474463     5505.281        10415     10642.27     78.06406     155.5132     310.5331      1.972     7.09     829.7591     54.72019     792.6882        34     1.901     0.935  39.14   0
       424    410.5027    346.4167 307.7595942  +6.5448636     19993.65     38403.61     41623.84     77.69497     155.0813     310.2244      2.026     6.63     829.1455     54.72019     2594.508        62     2.057     1.074  39.70   0
       425    276.4265    348.7626 307.8152050  +6.5394014     1892.779     3685.566     3933.875     77.44792     155.0813     310.2553      2.061     5.92     831.5925     54.72019     273.4956        25     1.851     0.832  39.43   0
       426    390.9977    345.1056 307.7677411  +6.5447522     862.3212     1696.079     2386.897     77.44792     154.9577     310.1008      2.423     6.02     829.2173     54.72019     167.9455        12     1.626     0.627  46.48   0
       427    518.2136    345.0179 307.7149012  +6.5490466     928.6785     1633.388     1830.058     77.44792     154.9577     310.3479      1.949     6.12      829.494     54.72019     167.1936        14     1.851     0.569  35.66   0
       428    489.6038    341.4596 307.7269073  +6.5495599     866.7862      1450.77     2084.316     77.20009     155.1431     310.1935      1.818     5.54     829.2988     54.72019     166.5331        10     1.536     0.564  36.29   0
       429    806.7000    340.2628 307.5952291  +6.5606474     466.5994     842.1559      887.501     77.57155     155.2666     310.4714      2.512     3.65     832.2147     54.72019     118.2213         5     0.925     0.492  31.91   3
       430    804.2915    338.2641 307.5962980  +6.5613930      645.901     1203.958     1244.377      77.8182     155.4516     310.5023      1.947     1.97     832.1325     54.72019     130.8935         5     0.681     0.459  70.52   3
       431    387.2886    338.4419 307.7695107  +6.5473817     549.5112     1074.423     1721.118      77.8182     155.2048     310.4714      2.352     6.62     829.0152     54.72019     101.8398         8     2.210     0.556  39.27   0
       432    641.4283    339.0394 307.6639243  +6.5556362     497.7861     833.2669     756.4133     77.44792     155.0195      310.317      1.895     4.53     830.3743     54.72019     80.07495         6     1.268     0.459  33.51   0
       433    499.5923    336.8152 307.7229177  +6.5518134     6631.523     12703.06     13989.37     77.44792     155.0195     310.2862      2.021     6.66     829.1555     54.72019     891.4143        37     1.914     0.961  37.40   0
       434    925.4933    336.7301 307.5460027  +6.5660668     603.0144     997.7986     954.4968      77.8182     155.3899     310.4405      1.774     3.41     830.9436     54.72019     94.22156         5     0.747     0.451 -68.72   0
       435    768.6282    335.4823 307.6112077  +6.5613529       2290.6     4399.458     4861.889     77.69497     155.0813     310.3788      2.073     6.93     831.5901     54.72019     335.9661        25     1.843     0.842  41.34   0
       436    716.4664    335.1768 307.6328861  +6.5597383     559.6463     1074.669     991.3202     77.44792     155.2666     310.3788      2.115     6.80      830.973     54.72019     110.2517         9     1.997     0.649  42.33   0
       437    325.6655    333.0958 307.7952912  +6.5475262     817.6912     1383.843     1301.498     77.81819     155.3899     310.4714      2.038     6.87     829.7877     54.72019     121.7998        12     1.766     0.750  36.92   0
       438    161.6932    327.3530 307.8635980  +6.5443991     853.2996      1538.25     2189.934     77.69497     155.2048      310.564      2.022     5.60      833.917     54.72019     152.5873        10     1.545     0.573  47.11   0
       439    389.5128    321.0337 307.7691848  +6.5546500      5662.96     11041.01     12267.48     77.81819     155.1431     310.4405      2.037     6.79     828.4473     54.72019     805.6876        38     1.908     0.999  37.93   0
       440    245.4961    321.3647 307.8289949  +6.5496859     1690.472     3069.893     3216.422     77.94123     155.1431     310.5948      1.921     5.69     831.1995     54.72019     240.9082        22     1.700     0.856  45.39   0
       441    757.3650    316.8980 307.6165226  +6.5686571     41662.54     78762.92     84064.93     77.81819     155.1431     310.5948      1.992     7.27     830.8576     54.72019     6372.211        76     2.012     1.091  38.80   0
       442    429.0867    316.2838 307.7529095  +6.5579381     1606.632     3209.011     3452.281     77.57154     155.4516     310.4714      2.067     6.58      828.076     54.72019     251.9343        22     1.949     0.819  39.48   0
       443    992.2187    313.9031 307.5190640  +6.5777221     1217.265     2217.598     2153.608     77.69497     155.1431     310.1935      1.846     6.16     828.4156     54.72019     217.3232        15     1.750     0.610  36.55   0
       444    574.9400    313.6640 307.6924130  +6.5639004     1063.042     1835.343     1470.425     77.81819     155.2048     310.4714      1.800     6.47     828.7823     54.72019     143.8455        15     1.628     0.721  40.82   0
       445    933.4551    313.1387 307.5435015  +6.5760813     1742.509     3362.839     3155.943     77.94123     155.2666     310.4097      1.977     7.32     829.8177     54.72019      267.986        24     1.889     0.795  31.69   0
       446    466.2071    312.6392 307.7376152  +6.5606868     860.6141     1393.679     1512.964     77.20009     154.9577     310.1626      1.840     5.02      828.058     54.72019     141.3857        10     1.509     0.630  32.89   0
       447    415.6356    312.0315 307.7586429  +6.5592449     1516.239     2939.663     3321.593     77.44792     155.0195     310.1935      2.174     6.80     827.9086     54.72019     234.6826        20     1.783     0.789  35.58   0
       448    465.9896    307.0344 307.7378979  +6.5629957     676.4424     1182.273     1473.707      77.3241     155.0195     310.2553      2.028     5.05     827.8127     54.72019     134.6699         7     1.428     0.621  45.51   0
       449    836.5929    306.3967 307.5839699  +6.5756395     941.0524     1539.229     1300.725     77.20009     154.9577     310.2862      1.843     6.22     830.5853     54.72019     162.5796        12     1.529     0.711  36.36   0
       450    192.1523    303.4625 307.8517686  +6.5552939     1719.222     3479.047     3321.905     77.69497     155.1431     310.5023      2.016     6.32     832.1091     54.72019     243.4662        23     1.816     0.827  38.38   0
       451    446.3050    303.6590 307.7461906  +6.5637316     885.8909     1643.787     1814.751     77.69497     155.2666      310.564      1.695     5.74     827.6587     54.72019     137.2294        11     1.475     0.629  46.84   0
       452    755.6963    301.4433 307.6177448  +6.5749881     4755.425     8964.422      9499.44      77.8182     155.2048     310.5948      1.961     6.61     830.3419     54.72019     637.0721        33     1.905     0.915  37.45   0
       453    743.3384    321.0325 307.6222077  +6.5664804     746.3567     1429.544     1356.343     77.57154     155.3283     310.3788      1.842     5.71     830.8591     54.72019     131.0665        10     1.650     0.557  37.32   0
       454    772.2802    299.3970 307.6109257  +6.5763871     2026.397     3570.402     4376.796     77.20009     154.7721     310.1935      1.989     6.23     830.3236     54.72019     340.4729        20     1.769     0.703  37.86   0
       455     87.8764    300.0660 307.8951989  +6.5531957     884.1093     1703.839     1479.728     77.94123     155.3283     310.4097      2.014     6.58     834.0154     54.72019     127.3604        13     1.666     0.729  35.54   0
       456    361.8130    294.2639 307.7816106  +6.5647844     1564.953     3214.411     3561.218      77.3241     155.0813     310.2553      2.198     8.25     827.9064     54.72019     199.4376        28     2.062     0.945  27.10   0
       457     75.2803    294.6064 307.9006190  +6.5550286     916.4115     1870.855     1845.867     77.44792      154.834     310.1935      1.926     6.52     833.9047     54.72019     129.8814        15     1.822     0.654  39.57   0
       458   1010.4628    290.3003 307.5122910  +6.5880834     4623.826       8678.7     9141.823     77.57155     155.2666     310.4714      1.961     6.56     826.5192     54.72019     668.0889        32     1.900     0.895  38.99   0
       459    488.3240    289.8946 307.7292086  +6.5708260     1526.747     2857.026     3193.857     77.57154     155.4516     310.4714      1.983     6.65     827.1791     54.72019     234.5962        17     1.731     0.718  38.31   0
       460    251.0268    285.7485 307.8279227  +6.5645893     4285.311     8524.482      9406.98     77.44792     155.3899     310.3788      2.063     6.58     829.7251     54.72019     577.2538        36     1.933     0.988  38.40   0
       461    815.6892    284.8512 307.5933906  +6.5838462     498.4536     1025.414     804.9385     77.81819     155.0813      310.564      1.976     6.83     829.6766     54.72019     88.25427         8     1.812     0.721  67.26   0
       462    770.4898    279.0871 307.6123645  +6.5847204      767.726     1130.392     553.3951     77.57154     155.6979      310.564      1.591     4.97     829.3859     54.72019     116.0423         9     1.149     0.609  26.62   0
       463    228.2610    278.6586 307.8376232  +6.5667554     632.7893     1246.438     1275.153      77.8182     155.2048     310.4714      1.814     5.67     829.9129     54.72019     88.72839         8     1.613     0.562  38.49   0
       464    385.3087    276.4938 307.7724612  +6.5729149     1306.727     2552.077     2984.092      77.8182     155.7595     310.4405      1.987     7.23      827.279     54.72019     201.5123        19     1.780     0.825  46.33   0
       465    970.7511    274.4025 307.5293313  +6.5933313     784.5111     1609.311     2070.585     77.20009     154.8958      310.039      2.287     4.22     827.1065     54.72019     137.1503        10     1.242     0.565  45.00   2
       466    307.5930    272.4242 307.8048839  +6.5719923     944.2546     1545.985     1412.842      77.3241     155.0813     310.2862      1.774     6.21     828.7419     54.72019     128.0463        15     1.804     0.601  40.77   0
       467    154.8084    272.3318 307.8683521  +6.5669045      1504.52     2951.287     2838.905      77.3241     155.0195     310.3479      1.991     6.70     832.5809     54.72019     208.9782        18     1.631     0.771  38.68   0
       468    564.5150    267.9003 307.6983129  +6.5824636     1724.464     3391.986     3823.267     77.81819     155.7595     310.5331      2.073     7.33     826.9921     54.72019     243.8418        24     1.899     0.842  42.62   0
       469    908.3279    267.2224 307.5555091  +6.5942193     1326.357      2702.76     3283.976     77.44792     155.0813     310.4405      2.121     7.00     828.1086     54.72019     205.5704        19     1.830     0.751  34.47   0
       470    728.2167    265.6217 307.6303865  +6.5888742     3910.427     7272.856     7702.709     77.57155     155.0195     310.3788      1.956     7.67     828.4308     54.72019     575.1237        31     1.946     0.847  41.03   0
       471    669.0176    265.5672 307.6549809  +6.5869201     1662.995     3325.822     3308.815     77.44792     155.0813      310.317      2.062     6.39     827.6107     54.72019     222.4749        22     1.893     0.825  41.68   0
       472    966.0424    265.1863 307.5316023  +6.5969831     569.4175     1010.784      779.185     77.20009     155.0813     310.1935      1.653     5.44     826.9025     54.72019     108.6152         8     1.725     0.485  37.64   0
       473    925.5168    259.0823 307.5486465  +6.5981559     787.3526     1494.565     1808.328     77.57154     155.5132     310.5331      2.280     5.54     827.5988     54.72019     147.8267        11     1.327     0.658  38.16   2
       474    383.4275    259.1852 307.7738373  +6.5800044     549.6996     863.5363     395.3967     77.44792     155.0813     310.3479      1.914     4.51     827.0514     54.72019     107.1813         6     1.090     0.531  27.69   0
       475    227.6818    250.8933 307.8388191  +6.5782095     1842.536     3506.862     3519.008     77.57154     155.5132     310.5331      2.006     6.22     829.7197     54.72019     260.9028        24     1.748     0.882  35.96   0
       476    870.6066    249.9046 307.5717717  +6.6001189     1242.999     2397.608     2469.097     77.57154     154.9577     310.2553      1.907     6.92     827.4498     54.72019     249.2777        19     1.898     0.707  31.45   0
       477    760.7936    249.3412 307.6174107  +6.5966894     1171.108      2140.78     2471.868     77.20009     155.1431     310.1626      1.944     6.00      827.624     54.72019     194.1008        14     1.746     0.580  37.86   0
       478    461.6616    240.7201 307.7419722  +6.5902547      17703.8     34359.61     36805.79     77.94123     155.3283     310.4405      2.037     6.76     825.3297     54.72019     2219.989        57     1.996     1.083  39.82   0
       479    322.7482    242.0899 307.7996312  +6.5850356     628.7584     1261.468     1246.016     77.81819     155.0813      310.564      1.978     6.56     828.0455     54.72019     89.54199         9     1.614     0.747  39.87   0
       480    787.7252    239.8952 307.6065458  +6.6014915     10206.56      19733.5     22507.01     77.57154     155.4516     310.4405      2.104     7.25     827.2327     54.72019     1536.822        57     2.044     1.173  32.14   0
       481    467.3439    235.2323 307.7398001  +6.5927127     1028.615     2323.655     2804.228     77.69497     155.2666     310.4097      2.183     7.63     824.9999     54.72019      173.278        20     1.965     0.828  43.58   0
       482    725.9413    235.5522 307.6323615  +6.6012245     435.7992     1019.462      1171.79     77.81819     155.2666     310.5331      1.710     3.48     826.6898     54.72019     74.73181         5     1.748     0.200  35.70   0
       483    149.7747    234.0037 307.8717628  +6.5825738     1818.004     3757.899     4145.044      77.3241     154.9577     310.2862      2.224     6.25     831.3817     54.72019     254.4829        24     1.802     0.911  31.86   0
       484    124.5873    233.3394 307.8822484  +6.5820025     805.5269     1781.721     2076.195     77.20009     155.0813     310.1626      2.131     6.64     832.2285     54.72019     132.8531        13     1.926     0.642  39.89   0
       485    924.3153    230.5304 307.5501214  +6.6099150     1035.719     1925.369     2094.799     77.94123     155.5132     310.4714      2.123     7.13     826.3036     54.72019     176.3101        19     2.047     0.696  42.44   0
       486    585.6931    226.4337 307.6909371  +6.6003075     3723.661     6840.925      7302.42     77.94123     155.1431     310.5023      1.922     6.48      825.421     54.72019     532.6703        34     1.887     1.021  40.86   0
       487    548.3748    226.5541 307.7064360  +6.5990100     1609.021     3180.921      3058.32     77.44792     155.3283      310.317      1.954     6.24     825.2902     54.72019     239.7321        22     1.889     0.814  41.69   0
       488    305.4641    226.3403 307.8073527  +6.5909644      905.068     1640.474     1596.343     77.94123     155.2048     310.4714      2.063     5.76     828.3317     54.72019     140.4202        12     1.519     0.615  27.67   2
       489    390.1639    225.4992 307.7721962  +6.5941505     1184.354     2171.441     1966.572      77.8182     155.1431     310.6257      1.908     6.97     826.4171     54.72019     183.2752        18     1.565     0.870  41.31   0
       490    892.7785    223.1258 307.5634762  +6.6119242     8582.889     16142.12     17341.82     77.44792     155.1431     310.3788      1.961     7.17     825.9697     54.72019     1283.789        40     1.913     0.935  39.38   0
       491    946.6975    223.6904 307.5410566  +6.6134872     2111.123     3736.968     3968.677      77.8182     155.6979     310.4405      1.918     7.04     825.6747     54.72019     314.6558        21     1.815     0.766  34.52   0
       492    320.5644    223.5060 307.8011773  +6.5926419     733.5778      1519.11     1609.573     77.94123     155.1431     310.5331      2.062     6.31     827.8916     54.72019     119.9833        10     1.889     0.593  33.10   0
       493    979.4434    220.9682 307.5275455  +6.6157027     7405.708     14154.22     15177.39      77.3241     155.2666     310.2862      1.992     7.19     825.0423     54.72019      1112.41        38     2.003     0.906  38.31   0
       494    690.8833    221.0200 307.6474234  +6.6060593     2039.308     4088.004     4967.468     77.44792     154.9577     310.3788      2.058     6.47      825.988     54.72019     295.5009        24     2.019     0.771  39.83   0
       495    567.4892    222.5594 307.6986324  +6.6012999     592.6808     1024.335     1299.651      77.8182     155.2048     310.4714      2.011     6.28     825.2277     54.72019     83.38879         9     1.563     0.708  36.21   0
       496     18.8848    219.6245 307.9266290  +6.5841176     19359.62     38404.25     41780.96     77.81819     155.0195      310.317      2.084     6.70     833.4426     54.72019     2371.054        65     2.075     1.134  39.20   0
       497    265.0121    220.3561 307.8243626  +6.5920809     902.8633     1830.719     1628.798      77.3241     155.1431     310.1626      1.961     6.47     829.0043     54.72019     151.8337        15     1.800     0.660  41.86   0
       498    499.2419    215.8029 307.7272159  +6.6018092     1571.993     2943.854      2929.27     77.20009     154.9577     310.1626      2.007     7.06     824.2288     54.72019     219.9506        20     1.780     0.853  32.20   0
       499    832.5949    213.3267 307.5888143  +6.6139675     1385.291     1586.181     1470.127     77.44792      154.834     310.3479      1.253     2.84     825.8402     54.72019     234.5569        11     0.915     0.789  44.96   3
       500    830.2869    211.3709 307.5898400  +6.6146988     1363.668     1840.864     1742.761     77.94123     155.0195      310.317      1.387     3.44       825.79     54.72019     219.0657        10     0.935     0.821  57.88   3
       501    883.5444    211.6342 307.5677054  +6.6163654     1552.465     3155.172     3536.198     77.69497     155.2666     310.4405      2.099     6.65     825.5581     54.72019     215.7192        19     1.898     0.654  39.96   0
       502    511.4608    211.6655 307.7222818  +6.6039278     2086.594     3713.242     4115.528      77.8182     155.2048     310.4405      1.930     6.48     824.2446     54.72019     259.4152        25     1.807     0.865  37.05   0
       503    742.9343    209.0344 307.6262100  +6.6127501     30760.22     58906.25     63249.38     77.69497     155.2666     310.4714      2.008     8.10     825.7336     54.72019     4575.666        71     2.023     1.075  39.33   0
       504    345.5713    209.8146 307.7912597  +6.5991379     3077.048     6061.608      6844.24     77.44792     155.0813     310.3479      2.032     6.75     827.0006     54.72019     432.9531        23     1.990     0.817  40.88   3
       505    346.4575    207.2189 307.7909808  +6.6002402     3910.112     7483.942     8072.751     77.44792     155.2048     310.2553      1.990     7.61     826.9491     54.72019     531.1837        32     1.988     1.035  44.70   3
       506    976.5923    207.7608 307.5291811  +6.6210657     2245.377     4072.733     4467.785     77.20009     155.0195     310.1317      1.912     7.18      824.697     54.72019     316.1987        24     1.832     0.788  38.56   0
       507    910.8729    206.1442 307.5565395  +6.6195449     5826.059     11187.52     12343.83     77.69497     155.1431     310.4097      1.993     7.56     825.3131     54.72019     839.5372        37     1.951     0.906  39.60   0
       508   1014.9100    206.4101 307.5133081  +6.6228995     1318.071     2429.143     2465.694     77.57154     154.9577     310.2553      1.970     6.52      824.114     54.72019     211.2741        18     1.746     0.684  34.46  16
       509    454.3611    205.1633 307.7462258  +6.6047039     3868.767     7681.145     8382.467     77.57154     155.1431      310.317      2.044     7.08     824.4067     54.72019     531.8594        30     1.891     0.910  41.14   0
       510    229.0960    202.1174 307.8399100  +6.5984128     584.6814     1296.567      1258.79     77.69497     155.6364     310.5331      2.061     4.78     829.3855     54.72019     106.6849         8     1.701     0.380  34.49   0
       511    111.7371    196.6053 307.8888517  +6.5967504     3624.218     7115.199     7277.352     77.20009     155.0813     310.2244      2.006     7.16     831.6107     54.72019     476.6448        31     1.886     0.945  38.05   0
       512    932.7197    196.9520 307.5477774  +6.6240714     623.5862     956.4598     1433.841     77.81819     155.2666     310.4714      1.781     3.92      824.913     54.72019     111.9912         6     1.000     0.439  70.83   2
       513    282.0119    193.1730 307.8182356  +6.6038840     25798.18     50784.05     55534.53     77.44792     155.0813     310.3788      2.064     6.45      828.468     54.72019     3517.219        68     2.063     1.123  39.93   0
       514    608.7253    196.0368 307.6824111  +6.6136388     513.9517     877.0117     986.5056     77.69497     155.3283     310.4714      1.519     4.45     824.9206     54.72019     87.46149         5     1.018     0.554 -15.58   0
       515    257.2867    194.2441 307.8284700  +6.6026121     5056.388     9837.542     10587.35      77.8182     155.1431     310.4405      2.048     6.70     828.8835     54.72019     699.6973        37     1.945     0.964  41.25   0
       516    406.0400    188.6741 307.7668660  +6.6098999     38219.53     74782.59     80801.11     77.69497     155.2666     310.4714      2.054     6.39     825.1957     54.72019     4995.882        80     2.069     1.147  39.21   0
       517    162.0534    190.0238 307.8681766  +6.6011600     3028.093     6327.547     6556.393      77.3241     155.2666     310.2553      2.075     6.93     830.0538     54.72019     422.0336        31     1.886     0.994  39.12   0
       518    423.4146    189.4472 307.7596215  +6.6101622     1182.349     2099.841      2116.49     77.20009     155.0813     310.1935      1.889     6.79     824.7807     54.72019     142.4036        17     1.768     0.730  37.34   0
       519    745.3775    184.9251 307.6260204  +6.6227948     25755.04     48452.92     51781.58     77.44792     155.1431     310.3788      1.971     6.96      825.175     54.72019     3901.789        70     2.006     1.077  40.71   0
       520    310.1083    186.3489 307.8067984  +6.6076461     13783.49     27104.65     29180.54     77.69497     155.1431     310.6257      2.060     6.44     827.6508     54.72019     1826.387        55     2.010     1.077  39.47   2
       521    317.2660    186.3963 307.8038233  +6.6078664     1538.405     3428.901     4555.312     77.20009     155.0195     310.2244      2.865     8.47     827.4441     54.72019      201.957        31     2.267     1.451  51.50   3
       522    694.9514    187.7006 307.6468748  +6.6199643     689.2369     1083.502     1326.886     77.81819     155.2048     310.6257      1.762     3.52     825.4513     54.72019      115.186         5     0.749     0.477  15.64   2
       523    793.7180    185.3171 307.6059240  +6.6242458     845.9654     1777.487     2274.935     77.57155     155.5132     310.5331      2.080     6.57      825.122     54.72019     140.0541        13     1.942     0.624  31.96   0
       524     33.2458    185.6049 307.9218364  +6.5986582      520.326     1089.761     1509.578     77.20009     154.9577     310.1317      2.308     6.35     833.3497     54.72019     80.38904        10     1.643     0.690  35.02   0
       525     62.2093    182.0816 307.9099263  +6.6010877     6787.326     13758.55     15190.19     77.44792     154.8958     310.2862      2.090     7.26     832.4957     54.72019     871.7666        45     2.009     1.052  38.78   0
       526     97.2091    181.2106 307.8954171  +6.6026238     1149.377     2166.231     1870.744     77.44792     155.0813     310.3788      2.093     6.86     831.4265     54.72019      164.258        13     1.556     0.898  22.55   2
       527   1003.6319    179.1734 307.5189238  +6.6337797     816.9849       1490.1     2046.269      77.3241     155.0195     310.2553      2.203     6.53     823.6121     54.72019     142.1118        12     2.074     0.577  40.15   0
       528    728.7172    171.9962 307.6333847  +6.6275815     495.8108     913.5642     1299.359      77.3241     154.8958     310.1317      2.092     3.82     824.9531     54.72019     90.73523         5     0.657     0.636  -0.27   2
       529    578.1779    168.2542 307.6960544  +6.6240986     453.1916     842.0326     1069.525      77.3241     155.2666     310.2553      2.862     5.27     823.6061     54.72019     84.54144         6     1.141     0.687  44.43   2
       530   1004.6633    165.5198 307.5189616  +6.6394565     1693.955     3102.624     3557.108     77.94123     155.3283     310.4405      1.997     6.21     823.2907     54.72019     226.0005        23     1.945     0.750  37.78   0
       531    588.0304    163.2810 307.6921318  +6.6264831     669.5406     1241.378     1633.028     77.69497     155.1431     310.4097      2.002     5.56     823.7215     54.72019     117.0697        10     1.827     0.477  40.85   0
       532    596.2000    161.3476 307.6888040  +6.6275552      1503.04     2859.799     3178.372     77.07587     154.7721     309.9772      2.016     6.74     823.8878     54.72019     219.8248        20     1.892     0.702  34.68   0
       533    282.3066    160.6171 307.8192329  +6.6173471     19632.67     24873.24     26131.91     77.57155     155.0813      310.317      1.315     2.92     828.1077     54.72019     3115.173        32     1.119     1.004 -86.53   3
       534    279.6964    158.3474 307.8203953  +6.6181975     19673.44     26070.37     28180.71     77.69497     155.2666     310.6873      1.395     2.83     828.1461     54.72019     2837.062        34     1.213     1.018 -84.16   3
       535     26.1566    157.9683 307.9257341  +6.6098400     3252.633     6661.412     7511.675      77.3241     155.2666      310.317      2.077     6.44     833.6276     54.72019     434.7415        33     1.938     0.954  38.45   0
       536    189.7734    157.2331 307.8577901  +6.6156407     690.7187     1513.187     1476.544      77.3241     155.0195     310.2244      2.030     5.75     829.3561     54.72019     114.1794        11     1.829     0.508  51.47   0
       537    123.3201    153.1263 307.8855377  +6.6151063     3855.026     7516.061     7852.532     78.06406     155.5132     310.5023      2.028     6.66     829.9631     54.72019      522.356        34     1.913     0.968  42.50   0
       538    340.5016    161.1630 307.7950381  +6.6190726     764.8874     1490.557     1444.994      77.8182     155.1431     310.6257      2.156     7.18     826.3175     54.72019     113.2985        14     1.876     0.770  25.66   0
       539    649.7839    149.7004 307.6669417  +6.6341591     531.7512     1012.803     964.5261      77.8182     155.0195     310.2553      1.873     5.18     824.3464     54.72019     97.43451         7     0.907     0.835  13.49   2
       540    584.1606    150.9594 307.6941620  +6.6314456     636.1988     880.5535     817.5237     77.57154     155.3899      310.317      1.381     3.74     823.3354     54.72019     91.51416         5     0.822     0.490 -30.38   0
       541    462.3649    150.3100 307.7447841  +6.6276394     1058.245     1826.534     1625.221     77.94123     155.2048     310.4405      1.872     6.69     822.9293     54.72019     144.1317        16     1.712     0.735  40.40   0
       542    394.0285    149.1264 307.7732147  +6.6258401     3111.917     6301.652     6573.818     77.69497     155.2666     310.4097      2.141     6.30     824.7686     54.72019     401.8959        34     2.017     1.056  45.13   0
       543    633.9927    149.3856 307.6735130  +6.6337615     431.0353      596.131     165.9171     77.44792     155.0195     310.2862      1.358     4.92     824.1254     54.72019     67.11157         5     1.209     0.568 -50.16   0
       544    358.5686    148.1958 307.7879781  +6.6250366     2482.282     4928.467     5101.565     77.20009     155.1431     310.2244      2.041     7.52     825.7645     54.72019     348.2216        27     1.918     0.839  39.94   0
       545    112.7408    147.9545 307.8901108  +6.6168880      1227.56     2505.478     2824.225     77.69497     155.2666     310.5331      2.190     6.94     829.9512     54.72019     176.4821        20     1.923     0.752  44.52   0
       546    674.4535    146.2956 307.6568092  +6.6363902     629.7004     1222.667     1039.576     77.69497     155.2666     310.6873      1.928     5.70     824.3818     54.72019     108.3475         9     1.656     0.553  24.85   0
       547   1006.6796    143.3022 307.5188827  +6.6487051      946.684     1338.201     1723.652     77.69497     155.5748     310.4714      1.340     3.51     821.8334     54.72019     170.5571         8     1.022     0.666  79.44   2
       548   1003.6532    141.2862 307.5202090  +6.6494375     929.9522     1266.371     1736.849      77.8182     155.2048      310.564      1.548     3.23     821.7362     54.72019     163.3851         6     0.816     0.628  21.48   3
       549    730.8372    142.4526 307.6335157  +6.6398611     472.6903     735.1887     1027.724     77.69497     155.2666     310.4714      1.798     5.55     823.8236     54.72019     93.82312         7     1.483     0.586  40.46   0
       550    210.2940    136.9546 307.8499633  +6.6247092     4192.338     8192.681     8319.676     77.69497     155.2048      310.564      2.019     6.49     829.1415     54.72019     608.0851        33     1.928     0.956  37.13   0
       551     94.3852    137.6468 307.8980913  +6.6205307     1345.335     2116.496      2801.99     77.20009     155.0813     310.1935      1.723     4.12      829.982     54.72019     218.5936        12     1.209     0.668  50.89   3
       552     91.6870    135.6253 307.8992818  +6.6212754     1185.594     1678.614     2449.286     77.94123     155.0813      310.317      1.282     3.02      830.019     54.72019      205.666        10     1.057     0.602 -77.88   3
       553    672.1716    135.8441 307.6581154  +6.6406330     4720.209      9039.63     9666.482     77.44792     155.3283     310.3479      2.005     6.60     823.8402     54.72019      752.433        36     1.922     0.938  40.81   0
       554    820.3670    135.6971 307.5965503  +6.6456401     746.8553     1529.419     1189.089     77.94123     155.1431      310.564      2.033     6.29     823.1359     54.72019     146.5359        13     1.936     0.574  40.46   0
       555    624.3538    133.0997 307.6780759  +6.6401695      7222.07     14106.31      15583.1     77.81819     155.1431     310.6565      2.044     7.59     823.4123     54.72019     1150.671        43     1.933     1.016  37.67   0
       556    258.6062    133.3422 307.8300171  +6.6278231     512.4599     1202.241     993.2725      77.3241     155.1431     310.1626      2.078     5.66     828.5425     54.72019     78.86584         7     1.632     0.553  34.88   0
       557    562.7122    132.2611 307.7037142  +6.6384553     588.6998     1163.158      1348.69      77.8182     155.4516     310.4714      1.946     6.25     822.5912     54.72019     111.5789        10     1.672     0.826  45.69   0
       558    351.4361    128.8182 307.7916073  +6.6328051     2815.911     6061.015     6268.894      77.3241     155.0813     310.2244      2.152     6.57     825.9993     54.72019     388.7289        37     1.818     1.291  41.47   0
       559    712.5485    156.0723 307.6406475  +6.6336222     6354.639     11841.54     13132.98     77.81819     155.2666     310.4714      2.019     6.69     824.6151     54.72019     915.5168        36     1.911     0.933  41.82   0
       560    533.1459    128.1969 307.7161371  +6.6391460     1292.944     2781.971     2795.337     77.20009     155.0195     310.0699      2.039     6.56     822.2957     54.72019     216.2961        16     1.791     0.675  37.15   0
       561    627.8123    124.6389 307.6769291  +6.6437814     40826.11     79013.75     85541.49      77.3241     155.0813     310.2244      2.020     6.62     823.1218     54.72019      5522.15        81     2.060     1.122  39.73   0
       562    306.9511    118.3084 307.8104497  +6.6356569     2651.577     5319.883     6287.207     77.81819     155.1431     310.5948      2.222     6.43     827.3995     54.72019     375.0127        30     1.910     0.974  40.50   0
       563    705.5239    112.0021 307.6450755  +6.6515995      625.787     1059.099     856.9224      77.3241     154.7721     310.3479      1.911     3.50      822.481     54.72019     100.5178         5     1.006     0.351  45.45   2
       564    678.1831    111.9189 307.6564377  +6.6507208     1152.915     2223.073     2232.441     77.44792     154.9577      310.317      1.971     6.95      822.537     54.72019     171.9009        19     1.821     0.744  38.65   0
       565      4.5742    101.3917 307.9366510  +6.6324929     705119.1      1714724      1911893     77.44792     155.0813     279.1395      2.408     7.91     834.7744     54.72019     61697.08       353     2.410     1.752  43.14  28
       566    692.2695    108.6156 307.6506983  +6.6525563     2517.558     4555.185     4924.933      77.3241     155.1431     310.3479      1.890     6.92     822.3541     54.72019     348.1263        23     1.730     0.785  40.60   0
       567    239.5932    104.6649 307.8389026  +6.6390355     781.1321     905.0092     741.0343      77.3241     155.0195     310.2553      0.927     2.26      828.887     54.72019     224.6262         5     0.693     0.400 -59.77   0
       568    434.0595     99.6981 307.7582818  +6.6476065     2957.647     5903.037     5973.115     77.57154     155.2048      310.564      2.026     6.73     823.4499     54.72019     388.4529        33     1.925     1.013  38.50   0
       569    906.5248     95.0225 307.5621449  +6.6653211     3008.513     5867.021     6138.021     77.44792     155.1431     310.3788      2.049     7.34     821.5225     54.72019     424.2442        28     1.842     0.900  38.45   0
       570    888.5722     95.9992 307.5695706  +6.6643192      1440.81     2601.361     2479.959      77.3241     155.0195     310.2553      1.898     6.83     821.5817     54.72019     256.7949        20     1.789     0.730  40.18   0
       571    598.5886     93.5207 307.6901376  +6.6556640     1330.357     2495.068     2318.224     77.44792     154.9577     310.2862      1.956     6.59     822.0599     54.72019      190.878        17     1.793     0.680  39.43   0
       572    586.2007     94.9491 307.6952354  +6.6546596     594.9275     772.1052     759.9954     77.20009     154.8958     310.0081      1.360     4.83     822.0748     54.72019     114.1579         7     1.258     0.526  27.08   0
       573    244.6711     92.5930 307.8372084  +6.6441944      782.723     1307.525     1423.803      77.3241     154.8958     310.3788      1.689     5.51     828.6523     54.72019     100.0724        10     1.242     0.690  50.12   0
       574    397.3680     91.2535 307.7738157  +6.6498672     1561.275     2933.343     2715.006     77.69497     155.3283     310.3788      1.908     6.71     824.5931     54.72019     241.6014        21     1.803     0.855  44.97   0
       575    145.3412     88.3088 307.8786222  +6.6426303     2466.604     4772.476     4570.044     77.69497     155.2048      310.564      2.051     6.69     827.8699     54.72019     349.4697        25     1.798     0.891  42.83   0
       576     27.0703     86.0729 307.9278337  +6.6395795     9594.785     18717.21     20425.23     77.94123     155.3899     310.4405      2.079     6.37     832.1508     54.72019      1303.21        51     1.996     1.112  41.91   0
       577    949.6064     87.1901 307.5445128  +6.6699931     470.1544     651.0586     1186.158      77.3241     155.0813      310.317      1.592     5.09      820.191     54.72019     72.02832         5     1.235     0.593 -62.09   0
       578    293.6041     87.0053 307.8170713  +6.6481448     1000.722     2065.884     2351.097     77.20009     154.9577      310.317      2.131     6.72     827.6216     54.72019     171.4251        15     1.776     0.713  35.20   0
       579    760.7920     84.1079 307.6230682  +6.6649717     509.6388     1193.367     2137.408     77.44792     154.9577     310.2553      3.114     3.82     820.9674     54.72019     99.50549         5     0.827     0.506  59.16   2
       580    554.0941     85.7688 307.7088897  +6.6573796     590.0385     1130.943     1169.554     77.94122     155.0813     310.4714      2.182     5.04     821.7069     54.72019     113.6679         8     1.769     0.406  32.28   0
       581    828.9183     80.8087 307.5948756  +6.6686078     4665.984     9051.959     9509.812     77.44792     154.8958     310.2862      1.997     7.44     820.7387     54.72019     686.3749        35     1.875     0.920  40.41   0
       582    773.9847     81.1693 307.6176874  +6.6666262      2482.17     4803.019     5094.518     77.44792     155.0195     310.3788      1.988     7.20     820.7682     54.72019      382.762        24     1.868     0.777  40.94   0
       583    419.4203     81.7938 307.7649788  +6.6545149     779.4779     1720.391     1396.844     77.44792     155.0195     310.2553      2.037     5.65     823.9673     54.72019     148.2112        11     1.593     0.564  39.06   0
       584    536.4709     79.2530 307.7164352  +6.6594828     930.3295     1522.382     1507.208     77.69497     155.2048     310.3788      1.777     5.88     821.4124     54.72019     152.0429        13     1.602     0.608  38.18   0
       585     67.5462     78.0104 307.9112964  +6.6442720      2448.72     4804.943     5041.229     77.20009     155.2048     310.1626      2.010     6.56     829.3336     54.72019     328.1689        29     1.860     0.931  39.88   0
       586     53.3507     80.2190 307.9171176  +6.6428821     600.0293     1051.345     1161.857      77.3241     155.3283     310.2862      1.557     2.19     830.2146     54.72019     123.4935         5     0.705     0.445  71.64   0
       587    430.2452     78.3251 307.7606006  +6.6563108      570.991     579.0043      416.948     77.69497     155.3283     310.4714      1.258     2.69     823.5377     54.72019     108.1199         5     0.804     0.452 -15.68   3
       588    427.6742     76.5461 307.7617299  +6.6569599     590.6458     706.5392     501.2174     77.69497     155.2666     310.4405      1.372     5.50     823.6227     54.72019     87.23657         7     1.217     0.701 -74.16   2
       589    591.5117     75.0791 307.6937103  +6.6630483      1004.96     1736.314     1478.552     77.57154     155.5132      310.564      1.797     6.40     821.4888     54.72019     174.4517        13     1.535     0.749  40.24   0
       590      9.8455     73.5218 307.9354223  +6.6441867      1997.19      3789.54     4551.292     77.69497     155.2666     310.4405      2.022     7.37     831.7108     54.72019     253.3423        24     1.832     0.831  35.50  16
       591    768.5022     68.5185 307.6203985  +6.6716712     1595.136      3118.31     3726.322     77.69497     155.6364     310.5331      2.141     6.41     820.1004     54.72019     225.6465        23     1.790     0.933  42.90   0
       592    408.8719     68.6051 307.7698144  +6.6596117     679.4949       1122.5     842.8984     77.44792      154.834     310.3479      1.812     5.01     824.4204     54.72019     123.7319        10     1.598     0.444  37.47   0
       593     82.1790     69.2061 307.9055208  +6.6484019     627.3176     839.5445     110.7539     77.44792     155.0813     310.2553      1.614     4.38     828.2849     54.72019     111.4489         7     1.194     0.458  32.91   0
       594     95.1842     62.2592 307.9003572  +6.6517096     7138.796     14004.04     14676.15      77.3241     155.2048     310.1935      2.036     6.61     827.5927     54.72019      946.275        44     2.026     1.022  39.75   0
       595    424.2588     61.9708 307.7636496  +6.6628686     1988.419     3901.785     4258.619     77.44792     155.3283     310.3479      2.008     5.73     823.8562     54.72019     294.5837        25     1.855     0.921  35.67   0
       596    263.2304     57.0017 307.8307225  +6.6595245     952.7381     1618.107     2544.046     77.20009     155.0813     310.2553      2.609     7.17     827.2925     54.72019     157.3982        12     1.579     0.988 -58.55   2
       597    260.4586     55.2074 307.8319358  +6.6601729     1095.679     1718.793     2868.226     77.20009     155.1431     310.1935      1.780     2.99     827.2536     54.72019     165.8755         9     0.888     0.681  19.82   3
       598    639.4697     55.4710 307.6744569  +6.6727541     12008.48     14879.52     16452.78      77.8182     155.3899     310.4097      1.309     3.00     820.9832     54.72019     1985.957        28     1.127     1.003  79.05   3
       599    636.6989     53.3391 307.6756812  +6.6735425     11993.74     15205.67     16668.16     77.57155     155.2048      310.564      1.312     2.73      820.941     54.72019     1906.158        22     1.042     0.908  63.57   3
       600    255.9429     50.8529 307.8339618  +6.6618209     1597.053     3262.824     5034.683     77.81819     155.2666     310.4405      2.753     7.42     827.1547     54.72019     221.4869        22     1.694     0.911  41.44   1
       601    537.8021     50.3890 307.7168726  +6.6714550      4001.96     7607.196     7836.652     77.44792     154.9577     310.2244      1.939     6.74     820.2778     54.72019     527.7987        29     1.847     0.868  37.42   0
       602    443.3023     46.0190 307.7562854  +6.6700981     17547.74     34101.66     36346.02     77.69497     155.1431     310.1935      2.029     7.29     822.6582     54.72019     2483.068        58     2.010     1.080  39.32   0
       603      6.3237     49.6493 307.9377088  +6.6539328     793.9258     1395.212     1773.797     77.69497     155.3283     297.5168      2.039     4.75      828.936     54.72019     124.5278         8     1.115     0.574  56.16  18
       604    624.5273     44.9998 307.6810243  +6.6765819     2498.161     5054.114     6225.846     77.07587     154.7721     310.2553      2.269     8.33     820.7687     54.72019     378.4651        33     2.217     0.994  57.86   0
       605    263.8732     46.4049 307.8308200  +6.6639249     7076.771     13870.02     15761.99     77.44792      154.834     310.3479      2.063     6.40     826.9691     54.72019     945.2368        42     1.967     1.009  38.78   0
       606    920.9865     46.0562 307.5578103  +6.6860382     1521.257     2808.494     2532.314     77.20009     155.2048     310.1626      1.866     5.92     818.6338     54.72019     301.8926        20     1.831     0.761  42.22   0
       607    323.9111     46.7536 307.8058642  +6.6657943      783.054     1797.581     2194.608     77.81819     155.1431      310.564      2.382     7.79     826.6081     54.72019     126.8354        15     2.032     0.834  45.04   0
       608     30.3001     47.0449 307.9278377  +6.6558154     1603.892     1917.105     2270.581     77.81819     155.1431     310.6565      1.530     3.68     828.1996     54.72019     232.8376        14     1.142     0.887  27.57   2
       609     27.7172     44.7087 307.9289913  +6.6566939     1271.773     1551.586     1881.353     77.57155     155.5748     310.5023      1.235     2.51     828.0321     54.72019     244.2976         8     0.754     0.698 -34.94   3
       610    557.0433     46.0544 307.7090269  +6.6738898     612.0597     980.8725     748.7106     77.81819     155.2666     310.4405      1.695     4.06     820.2507     54.72019      91.5777         7     1.405     0.336  27.99   0
       611    251.9013     43.0882 307.8359081  +6.6648939     2453.821     5048.884     6269.072     77.81819     155.6979     310.4714      2.261     5.92     826.9176     54.72019     327.7217        31     1.909     0.965  39.99   0
       612    304.8316     41.2729 307.8139797  +6.6674194     804.5291     1778.427     2768.047     77.69497     155.2666     310.4405      2.479     6.05     826.6807     54.72019     135.1536        12     1.699     0.605  35.76   0
       613    940.5269     35.4076 307.5500552  +6.6910897     826.9653     1273.525     1537.836     77.44792      154.834      310.317      1.829     2.88     817.4808     54.72019     127.9236         8     0.808     0.742  65.99   2
       614    692.9915     35.5131 307.6529031  +6.6827896      1462.06     2748.935     2372.498     77.44792     154.9577     310.2553      1.890     6.91     819.8606     54.72019     205.3384        20     1.777     0.752  43.08   0
       615     97.2986     35.5976 307.9003976  +6.6627979     497.6008     691.9551     512.2422      77.3241     155.0195     310.1317      1.609     3.92     826.9146     54.72019     110.7999         6     1.401     0.314  41.67   0
       616    259.6013     30.9053 307.8331282  +6.6701865     613.8111      1347.88     1771.836      77.3241     154.8958     310.0699      2.819     6.44     826.5352     54.72019     79.52069        11     1.689     0.690  34.58   0
       617    181.3932     28.4126 307.8657070  +6.6685917     8265.153     16299.84     17489.42     77.44792     155.0813     310.3479      2.036     6.76     826.4584     54.72019     1117.999        45     1.966     1.057  38.62   0
       618    927.0981     26.2286 307.5559488  +6.6944355     2989.683     5959.826     6355.151     77.94122     155.0195     310.4405      2.082     6.50     817.4144     54.72019     451.3283        30     1.958     0.890  40.22   0
       619    525.5178     26.5940 307.7227931  +6.6808771     2231.108     4283.278      4364.01     77.44792     154.8958     310.2244      1.934     6.29     819.3781     54.72019      275.616        25     1.838     0.836  41.86   0
       620    728.0345     24.9105 307.6387060  +6.6883412     1419.034     2927.003     2892.217     77.94123     155.2048     310.4405      2.139     6.90     818.1339     54.72019     204.4512        20     1.930     0.731  34.75   0
       621    463.9453     25.0030 307.7484304  +6.6794738     1403.662     2876.772      2839.92     77.20009     155.0813     310.1008      2.022     6.72     820.7021     54.72019     226.5591        17     1.805     0.701  36.48   0
       622    993.2921     23.6452 307.5285327  +6.6977077     1183.529     1505.156     1899.214      77.8182     155.2048      310.564      1.230     3.35     814.8768     54.72019     198.6866         8     0.806     0.712  -4.91   3
       623    990.5203     21.5408 307.5297563  +6.6984850     1303.878     2084.726     2731.857     77.94123     155.2666     310.3788      1.785     6.21     814.8383     54.72019     217.5141        13     1.331     0.890  -7.89   2
       624    365.9834   1020.2088 307.7549496  +6.2649314     1393.534     2831.461     3140.331     77.57154     155.0195     281.7362      2.184     6.98     851.4926     54.72019     202.7422        19     1.587     0.860  42.13  16
       625    752.7122   1009.9842 307.5947444  +6.2820802     5692.792     11551.52     12778.58     77.57154     155.0195      310.317      2.123     5.94     850.9097     54.72019     679.2456        43     2.034     1.095  39.14   0
       626    333.4079     17.7355 307.8029163  +6.6781039     733.6716     1326.176     1927.566      77.3241     154.9577      310.317      2.012     4.74     826.5119     54.72019     121.1852         8     1.453     0.439  40.16   1
       627    548.2781   1010.5820 307.6795987  +6.2750076     3305.354     6387.674      7751.95      77.3241     154.9577     310.3788      2.131     5.82     853.1467     54.72019     430.0274        33     1.925     0.977  44.19   3
       628    545.3047   1002.7557 307.6811013  +6.2781424     6246.167     12448.99     14576.82      77.8182     155.2048      310.564      2.187     6.28     853.0284     54.72019      730.371        46     2.023     1.138  35.58   3
       629    518.4265   1011.6861 307.6919542  +6.2735535      908.452     1596.154     1466.973     77.94123     155.0195      310.317      1.865     6.15     852.8184     54.72019     114.8392        14     1.545     0.687  31.02   0
       630    298.3879   1009.1155 307.7833927  +6.2672518     11217.43     22855.99     26173.36     77.44792     155.0813     310.2862      2.171     6.29     851.5718     54.72019     1401.884        71     2.069     1.510  25.31   0
       631    814.0358   1009.4506 307.5693026  +6.2843455     789.1293     1714.878     1363.838     77.69497     155.2048     310.3479      2.086     7.18     850.7616     54.72019     113.2736        15     1.892     0.764  35.14   0
       632    422.4823   1009.7437 307.7318529  +6.2711471      843.945     1555.851     1975.673      77.8182     155.2666     310.5331      2.153     6.11     851.4681     54.72019     123.5541        14     1.558     0.674  39.62   0
       633    913.8777   1003.3752 307.5280576  +6.2901827     6187.515     12985.41      14580.8     77.44792     155.1431     310.4097      2.242     5.86     848.7039     54.72019      689.012        47     2.085     1.190  38.50   0
       634    269.3216   1006.2123 307.7955593  +6.2674776      734.003     1296.891     1678.971     77.44792     154.9577     310.2862      1.956     4.64     851.6076     54.72019     130.4473         8     1.205     0.507  28.29   0
       635    887.6380    999.5464 307.5390827  +6.2908911     8997.373     18604.43     21562.01     77.69497     155.3283     310.4405      2.245     5.72     848.6842     54.72019     984.5789        64     2.128     1.351  37.02   0
       636   1009.3828    998.9790 307.4885553  +6.2951784     3428.408     7187.325     7570.385     77.57154     155.0813     310.3479      2.217     5.80     847.1871     54.72019     389.2351        38     1.995     1.124  38.43   0
       637    600.2586    999.9165 307.6583834  +6.2811519     1108.495     2147.134     2079.692     77.81819     155.2666     310.5023      2.048     7.17     853.0918     54.72019     146.0289        18     1.515     0.950  55.50   0
       638    531.8634    998.4655 307.6868287  +6.2794661     3141.681     6359.222     7031.362     77.81819     155.2666     310.4405      2.146     5.98     852.8038     54.72019     381.7294        36     1.942     1.046  34.99   0
       639    641.7468    997.9423 307.6412263  +6.2833533     1221.339     2186.929     2238.013     77.94123     155.2666     310.4405      1.934     5.69      852.327     54.72019     151.6495        17     1.486     0.862  43.29   0
       640     65.9731    996.4933 307.8803122  +6.2646724     756.7344     1412.728       1996.6     77.94122     155.0195     310.2862      2.004     6.53     848.3199     54.72019     117.0449        11     1.603     0.746  29.74   0
       641    484.8120    995.0347 307.7064804  +6.2793107     1704.468     3352.805     3684.573      77.3241     155.0813     310.2862      2.105     6.49     852.1854     54.72019     202.6557        24     1.779     0.884  33.70   0
