#   1 NUMBER                 Running object number                                     
#   2 X_IMAGE                Object position along x                                    [pixel]
#   3 Y_IMAGE                Object position along y                                    [pixel]
#   4 ALPHA_J2000            Right ascension of barycenter (J2000)                      [deg]
#   5 DELTA_J2000            Declination of barycenter (J2000)                          [deg]
#   6 FLUX_APER              Flux vector within fixed circular aperture(s)              [count]
#   9 FLUXERR_APER           RMS error vector for aperture flux(es)                     [count]
#  12 FLUX_RADIUS            Fraction-of-light radii                                    [pixel]
#  13 FWHM_IMAGE             FWHM assuming a gaussian core                              [pixel]
#  14 BACKGROUND             Background at centroid position                            [count]
#  15 THRESHOLD              Detection threshold above background                       [count]
#  16 FLUX_MAX               Peak flux above background                                 [count]
#  17 ISOAREA_IMAGE          Isophotal area above Analysis threshold                    [pixel**2]
#  18 A_IMAGE                Profile RMS along major axis                               [pixel]
#  19 B_IMAGE                Profile RMS along minor axis                               [pixel]
#  20 THETA_IMAGE            Position angle (CCW/x)                                     [deg]
#  21 FLAGS                  Extraction flags                                          
         1    328.6748     22.1128 307.8045952  +6.6808863     12791.55     19929.54     21078.37     79.67042     159.2778     317.8928      1.669     4.22     872.5938     56.02264     1634.629        41     1.658     0.967  47.18   0
         2    394.9047     20.1237 307.7771420  +6.6839350       2331.6     3597.724     3609.261      79.4179     159.0885     317.8928      1.567     4.42     867.2829     56.02264     336.0786        19     1.439     0.839  46.78   0
         3    655.6557     15.6434 307.6689404  +6.6945400     11122.11     16728.03      18460.2     79.67042     158.9622     317.8296      1.631     4.12      857.311     56.02264     1613.592        37     1.598     0.909  43.82   0
         4    820.3043     15.1395 307.6005371  +6.7002643     1598.215     2436.841     2458.194      79.4179     158.9622     317.9244      1.565     4.58     855.2355     56.02264     253.5037        15     1.442     0.652  47.48   0
         5    890.8085     12.9900 307.5713107  +6.7035109     1243.156     1863.607     2183.381     79.16457     158.7726     317.7348      1.611     4.72     854.0769     56.02264     207.2382        14     1.560     0.579  46.36   0
         6    417.1019     11.1473 307.7682215  +6.6883870     8099.823     12689.03     12934.32     79.54426     158.9622     318.0508      1.648     4.18     865.0531     56.02264     1090.302        35     1.557     1.011  44.61   0
         7    255.6858     12.4433 307.8352511  +6.6824214     6394.056     10544.95      12030.4     79.67043     158.8358     317.8296      1.865     4.16     874.2277     56.02264     859.0441        39     1.647     1.280  28.69   2
         8    647.2620     11.0439 307.6725835  +6.6961573     9170.746     13837.82     15286.51     79.67042      158.899      317.956      1.600     4.08     857.4209     56.02264     1369.684        32     1.527     0.888  44.85   0
         9    676.9843     10.3009 307.6602573  +6.6974606     8176.237     12695.82     14702.98     79.67042     158.7093     317.6083      1.653     4.12     856.3082     56.02264     1190.543        32     1.593     0.911  46.62  19
        10    680.5341      7.7819 307.6588671  +6.6986195     13057.55     20372.69     22304.21     79.29134     158.9622     315.1641      1.661     4.18     856.0992     56.02264      1934.52        36     1.611     0.888  46.00  19
        11    732.8096      9.9236 307.6370717  +6.6994874      1919.12     2958.598     3357.105     79.29134     158.5827       317.64      1.662     4.50     854.8982     56.02264     273.5494        18     1.395     0.823  46.12   0
        12    656.5141      7.1770 307.6688690  +6.6980639     3144.996     5008.466      6990.03     79.67042     158.7726     311.3488      1.973     4.49     856.8719     56.02264     474.0057        28     1.647     1.111  32.81  16
        13    196.3728      7.6051 307.8600608  +6.6824209     994.9974     1915.032     2124.658     79.16457     158.7726     314.2386      2.055     7.66     874.0091     56.02264     159.6854        17     1.736     0.945   8.76  16
        14     63.4480      4.1685 307.9154098  +6.6793580     3050.237     4815.473     4830.496      79.4179     157.8209     280.8919      1.673     4.19     873.6251     56.02264     405.6661        24     1.542     0.865  42.00  16
        15    945.6562      3.7358 307.5488290  +6.7091655     797.0878     1228.121     1282.628     79.79638     154.9307     275.2577      1.473     3.41     852.0847     56.02264     130.3718         7     0.961     0.548  21.36  16
        16    154.4130      2.0280 307.8776848  +6.6833092     4777.526     6492.629     7321.792     76.71625      136.309     250.2601      1.454     4.14     873.6959     56.02264     746.6982        20     1.316     0.810  25.77  24
        17     85.9697      2.0995 307.9061218  +6.6809718     683.4576     1144.966     1424.045     77.49776     137.2635      251.541      1.844     4.94     873.0577     56.02264     101.1935         8     1.193     0.580  16.37  24
        18    552.3162    990.7346 307.6790158  +6.2885209     946.9904     1737.748     1687.329     79.79638     159.2147     317.8928      1.958     5.26      893.571     56.02264     136.4757        11     1.417     0.659  51.36   0
        19    752.8920   1022.4385 307.5946662  +6.2821531     7327.768     10800.21     11065.52     79.79638     143.2778     258.5504      1.593     4.33     888.9938     56.02264     905.4885        29     1.478     0.959  33.38  24
        20    548.3536   1022.9003 307.6795778  +6.2751088     3831.887     5363.658     5761.389     77.49776     137.3366     251.7007      1.505     4.10     894.4221     56.02264     534.8625        22     1.441     0.845  22.23  26
        21    545.6373   1015.4771 307.6809556  +6.2780823     8215.123     12861.35     14203.05     79.54426     159.0254     317.8296      1.748     4.21     894.2722     56.02264     1051.676        37     1.704     0.969  47.76  18
        22    517.8668   1023.3616 307.6922206  +6.2738956     763.9334     846.3923     1108.929      72.9586     131.1265     244.3717      1.075     3.78     894.5903     56.02264     152.8441         7     0.874     0.569  38.92  24
        23    422.9963   1022.2574 307.7316484  +6.2711669     940.4402      1500.27     1155.758     79.03761     145.0889     261.1016      1.605     4.83     894.7974     56.02264     132.1295         9     1.109     0.596  53.11  24
        24    298.5048   1021.9156 307.7833485  +6.2671247     14473.99     21948.77     23142.96     79.67042     149.4535       266.47      1.628     4.09     894.7604     56.02264     1851.273        38     1.570     0.984  39.50  26
        25    303.1209   1019.0197 307.7815297  +6.2684755     860.6093     1697.683     2211.778     79.29134      158.646     301.2497      2.106     5.51     894.8074     56.02264     142.4769        12     1.577     0.542  44.43  18
        26    235.2678    990.3885 307.8106691  +6.2780132     1557.291     2506.675     2638.759     79.16457     158.7726     317.7032      1.779     4.88     894.4325     56.02264     191.5226        18     1.462     0.808  26.67   0
        27    199.3179    990.1099 307.8256049  +6.2769185     1000.821     1459.443     1666.376      79.4179     159.2147     317.8928      1.547     5.17     894.4086     56.02264     127.3019        13     1.308     0.738  56.33   0
        28     60.0638    988.5305 307.8834756  +6.2728805     2757.145     4409.589     4431.002     79.67042     158.9622     317.8928      1.675     4.10     893.9732     56.02264     331.7235        26     1.495     1.029  53.54   0
        29    954.0439    986.6853 307.5123426  +6.3036406     6054.027     10321.39     11281.88     79.67042     158.8358      317.798      1.833     4.32     884.4022     56.02264     828.1429        38     1.698     1.118  42.80   0
        30    209.8653    982.2072 307.8214927  +6.2805359     659.0994     875.5315     971.0518     79.16457     158.7093     317.6716      1.374     2.24     894.3326     56.02264     118.8931         6     0.721     0.545 -50.57   0
        31    927.6467    978.2106 307.5235881  +6.3062573     1799.232     3019.291     2949.373     79.16457     158.7726     317.4818      1.762     4.79       885.11     56.02264      249.211        22     1.629     0.854  41.63   0
        32    648.5179    974.2365 307.6396259  +6.2985572     4526.117     6901.889     7301.424     79.67042     158.9622      317.798      1.672     4.06     890.5331     56.02264     609.6566        25     1.515     0.908  42.51   0
        33    787.1082    974.7005 307.5820630  +6.3030067     1373.305     2334.745     2096.347     79.67042     159.4039      317.798      1.778     4.38     887.9802     56.02264     201.7744        17     1.421     0.841  55.97   0
        34    260.7249    974.3418 307.8006413  +6.2854941     4439.663     6948.358      6798.65     79.79638     158.9622      317.798      1.672     4.08     894.3574     56.02264     610.6549        30     1.578     0.950  43.32   0
        35    997.2021    972.8347 307.4948860  +6.3108004     598.6401     1078.501     873.0967     78.78305     158.7726     317.6083      1.833     6.47     882.3675     56.02264     97.50952         7     1.198     0.981  77.86   0
        36    470.6446    972.6401 307.7135371  +6.2932505     1035.158     1903.697     1811.353      79.4179     158.9622     317.7348      1.901     5.99     893.8229     56.02264     152.7928        14     1.444     0.715  57.46   0
        37     29.4825    971.7076 307.8967420  +6.2787946     2150.794     3380.498      3958.58      79.4179     159.2778     317.9244      1.712     4.73     893.2062     56.02264     269.7068        21     1.551     0.851  43.85   0
        38    880.1723    970.6294 307.5435559  +6.3078003     1014.899     1618.611     1717.254     79.16457     158.7093     317.6083      1.645     4.72      886.248     56.02264       144.89        10     1.104     0.635  35.88   0
        39    972.5585    969.4392 307.5052331  +6.3113791     553.7562     847.8807     770.6332      79.4179     159.0254     317.7032      1.613     4.92     883.1649     56.02264     72.24915         5     1.160     0.591 -59.16   0
        40   1004.4632    967.1150 307.4920627  +6.3134042     861.3572     1675.595     1918.615     79.79638     159.0885      317.798      2.338     6.05     881.7125     56.02264     114.6172         8     1.155     0.891  47.63   0
        41    952.4460    968.1874 307.5136267  +6.3112241     585.2053     664.0641     230.7846     79.03761     158.7726     317.6083      1.392     3.37     884.0416     56.02264      85.1156         5     0.759     0.434  67.12   0
        42    573.0007    966.6855 307.6712370  +6.2991430     1661.261     2493.706     2566.884     78.91043      158.456     317.5135      1.535     4.19     892.4136     56.02264     227.2223        16     1.289     0.816  37.36   0
        43    296.4389    967.7866 307.7860339  +6.2894014     866.8295     1483.612     1581.807     79.16457     158.7726     317.5767      1.900     4.90     894.4244     56.02264     145.9293         9     1.044     0.652  56.66   0
        44    612.5056    963.2556 307.6549489  +6.3018836      1318.28     1788.252     1323.903     79.54426     158.9622     318.0508      1.532     4.05     891.1966     56.02264     194.7682        14     1.315     0.720  47.95   0
        45     62.0004    963.7006 307.8835118  +6.2831961     766.5292     1176.655     1819.577     79.16457     158.5827     317.4185      2.206     5.60      893.317     56.02264      110.688        10     1.321     0.794  24.89   0
        46    292.1567    960.5682 307.7880557  +6.2922374     1365.454     2129.966     2230.613     79.16457     158.9622     317.6716      1.632     5.04     894.3807     56.02264     222.5716        15     1.447     0.704  41.68   0
        47    560.0944    959.0240 307.6768541  +6.3018731     551.7252     929.3586     650.6347     79.79638     158.7093     317.7032      1.566     4.41     892.5644     56.02264     93.19043         6     1.148     0.482  59.85   0
        48    759.3165    957.0842 307.5941952  +6.3093493     854.4182     1443.244     1236.934      79.4179     159.1516     317.9244      1.819     5.37     888.5762     56.02264     112.3711        10     1.567     0.520  30.67   0
        49    896.7737    953.5862 307.5372344  +6.3153916     6609.808      10519.4     10739.59      79.4179     158.7726     317.7664      1.715     4.15     885.5546     56.02264     852.4543        38     1.696     1.030  45.69   0
        50    432.5970    950.7034 307.7300750  +6.3010293     2084.825     3053.807     2955.077      79.4179      158.646     317.5135      1.569     4.49     893.8466     56.02264     302.9295        17     1.363     0.768  48.52   0
        51    334.2837    949.0042 307.7709543  +6.2984277     9481.018     14893.45     15547.81     79.16457     158.5827     317.5451      1.639     4.16     894.2737     56.02264     1318.259        41     1.582     1.060  49.45   0
        52    254.3752    948.0065 307.8041674  +6.2961525       7138.3     11163.75     11419.38     79.16457     158.8358       317.64      1.641     4.06     894.1676     56.02264     923.3549        35     1.593     0.989  45.26   0
        53    582.2341    942.1856 307.6682280  +6.3095672     1159.059      1922.87     1688.186     79.29134     158.7093     317.7032      1.708     5.85     891.4401     56.02264     149.3754        16     1.379     0.982  50.46   0
        54    912.7930    938.7177 307.5310814  +6.3220655     1008.364     1689.711     2275.634     79.29134      158.646     317.6716      1.685     5.40     885.1194     56.02264     131.4714        13     1.324     0.705  39.57   0
        55    144.5383    938.6721 307.8500886  +6.2963091     538.4649     612.0067    -217.7589     79.79639     158.9622     317.8928      1.251     4.34      893.523     56.02264     96.10321         6     1.079     0.497  35.30   0
        56    868.5282    937.3206 307.5495094  +6.3211624     805.6392     1501.312     967.5651     79.92214     159.2147      317.798      1.781     5.44     885.5822     56.02264     125.9085         8     1.407     0.689  26.69   0
        57    411.2914    937.0643 307.7393817  +6.3059445     633.2378        786.1     821.5522     79.67042     159.1516     317.8928      1.276     3.95     893.8895     56.02264     114.8166         6     1.183     0.377  57.92   0
        58    215.9485    937.7695 307.8204686  +6.2990857     423.8423     760.1492     1116.519      79.4179     159.0885     317.7664      1.711     3.86      893.903     56.02264     81.04004         5     0.850     0.503  53.57   0
        59    980.2945    934.4091 307.5031956  +6.3260997     693.3695      1114.37     1405.802     79.29134     158.5827     317.6083      1.724     5.24     881.3244     56.02264      107.559         6     1.501     0.517  36.02   0
        60    572.4727    932.1974 307.6726177  +6.3133634     710.8279     921.3663     427.4101     79.16457     158.5193     317.6716      1.690     5.38     891.4785     56.02264     141.5991        10     1.403     0.581  45.18   0
        61    748.7061    931.3749 307.5994654  +6.3196080      1604.28     2291.859     2465.987     79.79638     158.7093     317.6716      1.505     4.97     888.7399     56.02264     274.3275        17     1.561     0.691  43.11   0
        62    613.2095    928.2141 307.6558362  +6.3163737     810.6274     1318.954     976.1794      79.4179     158.7093     317.7664      1.721     5.90       890.09     56.02264     139.3485        10     1.294     0.756  31.02   0
        63    980.3967    927.4052 307.5033881  +6.3289947     1267.425     1932.329     2345.154     79.03761     158.5827     317.6716      1.613     4.74     881.0733     56.02264     190.3083        16     1.383     0.811  28.11   0
        64    624.5554    928.1913 307.6511256  +6.3167634     529.9826     907.0832     890.2806     79.16457     158.8358     317.5451      1.412     3.32     889.9238     56.02264     116.4337         5     1.184     0.269  34.62   0
        65    533.9076    927.4172 307.6887924  +6.3140433     1187.844     1904.578     1808.988      79.4179     158.7726     317.7032      1.641     5.39      892.322     56.02264     178.7279        14     1.545     0.639  37.59   0
        66    667.1089    924.8531 307.6335678  +6.3195677       2375.1     3752.943     4296.758     79.54426     158.7726      317.956      1.626     4.17       889.33     56.02264     341.5575        20     1.525     0.748  43.52   0
        67     63.8701    920.9994 307.8841807  +6.3008872     2845.551     4847.254     5459.743     79.16457     158.4559       317.64      1.866     4.19      892.344     56.02264     384.6071        27     1.621     0.954  48.47   0
        68    958.3013    923.1511 307.5127061  +6.3300128     649.8843     1055.159     1280.769     79.67042      158.899     318.0192      1.806     4.68     882.5998     56.02264     94.41064         8     1.125     0.552  37.01   0
        69    828.0491    921.0186 307.5668660  +6.3265388     845.1251      1299.34     1326.914     79.16457     159.0254     317.6083      1.583     5.25     886.3177     56.02264     143.9109        11     1.398     0.558  43.10   0
        70     81.5885    920.3321 307.8768465  +6.3017597     1990.131     3120.755     3379.656     79.16457     158.7726     317.7032      1.707     4.67     892.5137     56.02264     300.2099        18     1.470     0.770  53.76   0
        71    945.5479    920.4041 307.5180943  +6.3307208     686.6066     1169.639     1374.923     79.03761     158.7726     317.4502      1.925     5.52     883.3845     56.02264     92.99872         9     1.366     0.629  33.82   0
        72    207.5945    919.9352 307.8245401  +6.3061671     2167.133     3469.743     3089.846     79.16457     158.7093     317.6083      1.635     4.60     893.7463     56.02264     348.8321        17     1.426     0.734  44.54   0
        73    241.5605    916.8342 307.8105414  +6.3085903     808.1602     1254.607       1420.2      79.4179     158.8358       317.64      1.770     5.79     893.9641     56.02264     116.4225        11     1.203     0.786  27.91   0
        74    662.0174    914.1057 307.6360437  +6.3238341     6881.014     10530.83     11656.67     79.54426     158.7726     317.7032      1.608     4.23     889.3434     56.02264     958.7567        30     1.540     0.891  41.47   0
        75    346.0422    915.3123 307.7672090  +6.3127321     992.4924     1707.565     2250.325     79.67042      158.899     317.8612      2.116     4.46     893.7332     56.02264     154.8643        13     1.292     0.698  47.96   0
        76    800.0051    915.2233 307.5787062  +6.3279931     685.9506     1104.881     861.6661     79.16457     158.7093     317.6716      1.541     4.73      886.872     56.02264     96.00012         8     1.247     0.509  23.64   0
        77     22.1222    912.3893 307.9018064  +6.3030342     1260.819     1974.737     2032.815     79.29134     158.5827     317.6716      1.632     5.51     891.9263     56.02264     165.9408        15     1.424     0.767  35.04   0
        78    899.7286    910.3198 307.5374597  +6.3333528     2733.358     4086.747     4123.594     79.92214     159.2147     317.8612      1.624     4.18     884.7348     56.02264     412.1257        20     1.457     0.796  46.95   0
        79    451.3136    911.3574 307.7236300  +6.3179013     501.0097     777.4722      592.506     79.67042     158.8358     317.8296      1.683     4.33       892.93     56.02264     81.14105         6     1.431     0.373  39.86   0
        80     35.2286    910.9151 307.8964144  +6.3040847     1067.023     1722.142     1888.097     79.79638      158.646     317.7032      1.743     6.34     892.0361     56.02264     138.1631        14     1.416     0.802  39.43   0
        81    344.9815    907.2465 307.7679217  +6.3160262     16113.18     24821.04     26547.08     79.16457      158.899       317.64      1.617     4.18     893.6484     56.02264     2323.647        39     1.584     0.942  44.76   0
        82     79.5285    908.1498 307.8781141  +6.3067195     1435.627     2441.389     2259.514     79.67042     158.9622     317.8612      1.652     4.99     892.3909     56.02264     196.1124        16     1.609     0.688  48.34   0
        83    930.4442    907.8809 307.5247865  +6.3353863     488.1639     682.8798      527.809     79.67042     158.9622      317.798      1.230     4.94     884.1297     56.02264     91.58221         5     0.988     0.699 -19.38   0
        84    215.7971    906.6246 307.8215840  +6.3119381     1207.847      2141.46     2058.067     79.29134      158.646       317.64      1.779     5.67     893.7753     56.02264     160.6395        16     1.495     0.813  56.85   0
        85    395.6031    906.3882 307.7469308  +6.3180816      507.952     715.4009     334.1162     79.29134      158.646     317.7032      1.425     4.62     893.3727     56.02264     108.0426         6     1.284     0.472  39.35   0
        86    674.5168    898.9554 307.6313630  +6.3305075     534.4401     762.6847     1157.236     79.67042     158.9622     317.8296      1.533     5.00     889.1362     56.02264     83.99713         6     1.035     0.683  35.31   0
        87    108.1640    897.8660 307.8665720  +6.3119297     1774.995     2654.684     2957.172     79.54426     158.9622     317.8928      1.593     4.20     892.5458     56.02264     268.5662        17     1.426     0.754  49.42   0
        88    422.5726    897.7123 307.7360246  +6.3225693     1051.999     1626.293     1851.261     79.79638     158.7093     317.7032      1.706     4.42     893.0343     56.02264      181.846        11     1.233     0.710  43.10   0
        89    676.2303    894.1917 307.6308117  +6.3325316     742.4186     1267.302      1716.47     79.16457     158.7726     317.6083      1.799     4.36     889.0948     56.02264     153.2538         9     1.312     0.588  37.13   0
        90    890.1506    892.1362 307.5420475  +6.3405396     1946.843     3072.616     3447.472     79.54426      158.899     317.8928      1.747     3.95     884.6129     56.02264     280.7768        19     1.390     0.806  53.44   0
        91    502.8782    894.1147 307.7027993  +6.3267506     585.9999     825.0545     527.7838     79.67042     159.2778      317.956      1.487     5.43     891.7569     56.02264     85.64893         8     1.436     0.580  24.06   0
        92    860.8514    891.6170 307.5542320  +6.3397743     2023.518     3270.562     3206.278     79.16457     159.0254     317.5767      1.667     4.06     885.2792     56.02264     280.3257        19     1.445     0.781  41.02   0
        93     91.7822    891.3922 307.8735932  +6.3140503     2541.939     3846.684     4646.036     79.29134     158.7093     317.6716      1.616     4.28      892.311     56.02264     350.6509        19     1.425     0.782  44.97   0
        94    824.0761    891.0193 307.5695236  +6.3387910     3037.356     4617.705     4741.613     79.29134      158.646     317.7664      1.561     4.14      885.813     56.02264     436.9915        21     1.477     0.806  42.37   0
        95    560.1043    882.4709 307.6794284  +6.3334776     338397.4     514667.4     540999.4     79.54426     159.0254     317.8296      1.654     4.12     890.2166     56.02264     47188.71       176     1.788     1.226  46.50   0
        96    339.7703    889.2629 307.7706927  +6.3232753     643.1705     967.5982     996.6931      79.4179     158.9622     317.7664      1.758     4.87     893.5103     56.02264     96.87646         8     1.366     0.491  30.86   0
        97    404.3830    885.0257 307.7440057  +6.3271958     7671.478     11991.44     12342.24     79.29134     158.7726     317.7664      1.627     4.16     892.9178     56.02264     1077.323        34     1.590     0.947  44.81   0
        98    647.7534    885.4689 307.6429305  +6.3351785     1293.632     1818.587     2455.196     79.67042      158.899     317.8296      1.689     3.85     889.2928     56.02264     190.0208        12     1.251     0.642  42.38   0
        99    347.5351    883.4005 307.7676663  +6.3259565     12648.34     19456.59     20398.64     78.91043     158.5827     317.5767      1.680     4.08     893.3184     56.02264     1849.665        39     1.600     0.978  43.18   0
       100    898.4612    878.6019 307.5390508  +6.3464051     5203.691     7898.667     8357.629     79.03761     158.7726     317.5451      1.644     4.01     884.1671     56.02264     727.9224        28     1.577     0.877  47.83   0
       101    665.9411    879.7002 307.6355720  +6.3381696     3448.774     5253.336     5426.265      79.4179     158.9622     317.9876      1.642     4.33     889.1569     56.02264     508.4256        22     1.481     0.785  46.43   0
       102    601.0933    880.4099 307.6624768  +6.3357031     3874.867     5155.896     5321.477     79.29134     158.5827       317.64      1.425     5.09     889.5826     56.02264     894.8537        11     1.488     0.492   0.29   0
       103    829.2916    873.2961 307.5679532  +6.3462824     1521.963     2745.241     2601.827     79.67042     159.4668      317.798      1.802     6.40     885.4089     56.02264      230.111        21     1.861     0.993  61.10   0
       104    737.3591    876.0805 307.6060364  +6.3420561     787.4461     1221.277     359.4834     79.67042     158.9622     317.7664      1.513     4.70     887.1235     56.02264     140.3423         8     1.286     0.488  55.78   0
       105    640.9548    873.8542 307.6461446  +6.3397457     3387.716     5212.501     5476.004     79.67042     158.9622     317.8612      1.602     4.62     889.2443     56.02264     487.7844        23     1.555     0.825  39.33   0
       106    631.1519    872.8343 307.6502497  +6.3398382     1076.502     1720.724     2193.489      79.4179     158.9622     317.7664      1.711     5.40      889.279     56.02264      145.642        13     1.568     0.597  46.94   0
       107    183.9578    872.6577 307.8359528  +6.3248889      529.966     838.0392     161.4227     79.54426     158.9622     317.8928      1.497     3.87     893.2175     56.02264     73.87695         5     1.290     0.332 -49.15   0
       108    956.4906    871.6948 307.5151844  +6.3511960     759.4693     1157.992     989.4581     79.67042     159.4668     317.8296      1.699     5.14     881.5316     56.02264     116.0437        10     1.261     0.593  36.03   0
       109    633.8030    868.5078 307.6492944  +6.3417132     2129.561     3476.274     3958.864     79.29134      158.646     317.5767      1.757     4.83     889.2272     56.02264     322.4854        18     1.545     0.683  46.55   0
       110    327.4597    867.1701 307.7765504  +6.3319821     1102.679     1633.162     1816.585      79.4179     158.9622      317.798      1.728     5.75     893.5254     56.02264     153.3987        16     1.521     0.783  56.43   0
       111    917.4185    866.4363 307.5315867  +6.3520613     3198.269     5044.322     5139.173     79.16457     158.7726     317.6083      1.719     4.12     883.2352     56.02264     448.2061        27     1.548     0.958  41.51   0
       112    375.4964    862.4725 307.7567618  +6.3355360     2634.151      4146.53     4335.539      79.4179     159.1516      317.798      1.681     4.60      892.718     56.02264     388.7428        23     1.596     0.820  38.35   0
       113    511.5956    852.1575 307.7005934  +6.3443647     3107.971     4703.729     5057.718     79.03761      158.646     317.5451      1.613     4.35     890.2635     56.02264     453.0211        24     1.530     0.881  42.49   0
       114    856.3698    851.1840 307.5574510  +6.3563170      1104.18     1614.366     1813.968     79.29134     158.7093     317.7664      1.565     3.31       884.71     56.02264     186.7886        14     1.140     0.891  19.47   0
       115    558.4756    848.2167 307.6812586  +6.3475645      6301.33     9647.032      10681.8     79.16457     158.7093     317.7348      1.660     4.21     889.2209     56.02264     886.5083        31     1.571     0.893  47.44   0
       116    577.2015    850.0510 307.6734205  +6.3474353     809.7264     960.1004     911.4254     79.03761     158.5827     317.4185      1.268     3.64     889.0849     56.02264     137.7207         8     1.045     0.493  35.85   0
       117    269.8943    848.4431 307.8010867  +6.3377774     692.9438     1157.095     901.3803     79.67042      158.899      317.956      1.837     4.94     893.6295     56.02264     138.3238         8     1.457     0.475  43.41   0
       118    565.4742    847.9867 307.6783600  +6.3478942     1160.546     2061.395     2366.426     79.16457     158.7093       317.64      2.041     4.64     889.1498     56.02264     220.5605        13     1.379     0.679  25.93   0
       119    476.1873    846.9669 307.7154721  +6.3453191     1540.626         2426     2243.873     79.16457     158.7093     317.7032      1.453     3.92     890.8619     56.02264      302.659        14     1.438     0.615  49.76   0
       120    894.0645    846.3247 307.5419603  +6.3595836     1418.466     1943.477     1804.116     79.79638     158.9622      317.798      1.521     3.91       883.36     56.02264     202.5388        13     1.153     0.738  50.48   0
       121    118.1622    846.2035 307.8641683  +6.3335941     1341.083      2032.49     1829.331     78.78305     158.7726     317.6083      1.613     4.89     892.2141     56.02264     189.1682        16     1.397     0.881  39.20   0
       122    693.7493    845.0334 307.6251905  +6.3534131     861.3349     1054.454     936.3431     79.54426     159.0254     317.7664      1.415     4.25     887.4695     56.02264     121.7999         7     1.142     0.451  34.74   0
       123    529.1876    842.0906 307.6936273  +6.3491110      19728.1     30034.89     31094.47      79.4179     158.7093       317.64      1.582     4.02     889.5427     56.02264     2896.298        45     1.621     0.957  43.07   0
       124    370.1624    843.6962 307.7596104  +6.3431082     726.6805     1224.549     1068.894     79.67042     158.8358      317.956      1.760     4.95     892.3678     56.02264      118.791         7     1.197     0.579  17.57   0
       125    176.9850    842.4600 307.8398692  +6.3371206     627.8034     1108.779     765.7021     79.16457      158.899     317.5767      1.888     5.42     892.7117     56.02264     102.7064         8     1.515     0.547  57.36   0
       126    942.8195    840.5671 307.5219063  +6.3635902     3744.315     6155.523     6290.215     79.16457     158.7726       317.64      1.788     4.46     881.2789     56.02264     460.9646        29     1.635     0.947  46.01   0
       127     62.8457    838.0066 307.8874153  +6.3351140     672.2985      1106.16      880.148     79.16457     158.7093     317.4818      1.519     3.93     892.0011     56.02264     125.3516         6     1.045     0.473  61.86   0
       128     39.4185    832.2651 307.8973375  +6.3366944     1629.416     2362.093     2498.061     79.29134     158.9622     317.7032      1.553     4.01     891.9831     56.02264     224.1437        16     1.270     0.791  46.45   0
       129    584.3940    831.9907 307.6710419  +6.3551325     421.7855     700.9043     713.0593     79.03761     158.7726     317.6716      1.637     3.91      888.486     56.02264     74.37134         5     1.331     0.329  40.06   0
       130    321.8173    830.8206 307.7801207  +6.3467987      3304.74     4984.006     4657.675      79.4179     158.7726     317.7348      1.560     4.05     892.7833     56.02264     464.8677        21     1.435     0.775  45.21   0
       131    787.3998    826.7441 307.5869143  +6.3640995     55304.39     84554.06      88261.4     78.91043     158.5827     317.5451      1.644     4.12     885.2905     56.02264     7747.641        64     1.671     1.018  43.91   0
       132     21.6996    828.7839 307.9048129  +6.3375341     2199.117     3464.894     3341.971     79.67042     158.7093       317.64      1.644     4.63     891.9732     56.02264     295.2477        19     1.481     0.797  38.04   0
       133    430.2714    825.2990 307.7352701  +6.3527226     796.4829      1061.45      1064.25      79.4179     159.1516     317.8296      1.465     3.83     890.7059     56.02264     141.1473         7     0.953     0.538  56.91   0
       134    244.5471    824.3852 307.8124250  +6.3468564     5168.953     8616.146     10793.65     79.03761      158.899     317.5451      1.945     4.35     892.8386     56.02264      736.587        39     1.754     1.045  46.84   0
       135    912.6620    821.9882 307.5350540  +6.3702526     8349.818      12863.8     13703.27     79.16457     158.7726     317.6083      1.631     4.19     881.7592     56.02264     1136.692        32     1.593     0.890  44.89   0
       136    715.6072    821.2812 307.6169123  +6.3639512     21826.53     34627.96      36636.2     79.29134     158.5193     317.6716      1.685     4.17     886.1632     56.02264     3071.097        43     1.627     0.969  46.28   3
       137    709.3418    817.7914 307.6196316  +6.3651821      88457.8     135746.1     143986.4     79.03761      158.899     317.5451      1.653     4.15     886.1598     56.02264     12229.41        89     1.755     1.097  47.04   3
       138    354.1909    818.6326 307.7670886  +6.3529185     20882.57     32234.16     33663.59     79.16457     158.7726     317.6716      1.659     4.22     892.1739     56.02264     2920.497        51     1.681     0.989  45.04   0
       139    403.4906    818.9130 307.7466067  +6.3544594     1496.582     2519.128     2607.342      79.4179     159.4039      317.956      1.737     4.87     891.0591     56.02264     209.1294        18     1.548     0.759  37.18   0
       140    642.8607    818.0017 307.6472330  +6.3628678     797.5452     1449.885     1865.979     79.03761     158.7726     317.5451      2.043     5.23     887.1279     56.02264     135.2089        10     1.385     0.557  50.02   0
       141    416.0833    816.4849 307.7414592  +6.3558848     22437.23     34187.95     35763.05      79.4179     159.0885     317.8928      1.635     4.14     890.6564     56.02264     3111.019        44     1.612     0.970  45.83   0
       142    953.2901    815.6373 307.5183945  +6.3742323     2089.664     2991.901     3125.155     79.79638      158.899     317.8612      1.556     4.08     880.1802     56.02264     265.4773        18     1.361     0.820  37.75   0
       143    244.1841    802.9673 307.8132995  +6.3556862     745767.6      1689827      1887730     79.29134     158.7093     317.7032      2.289     8.69      892.252     56.02264     63185.79       625     2.578     2.084  60.91   4
       144    909.6075    813.4423 307.5366094  +6.3736786     6762.689     10347.05     11143.83     79.16457     158.7726     317.5451      1.651     4.15     881.5444     56.02264     933.3749        31     1.628     0.867  44.68   0
       145    882.6453    814.2615 307.5477791  +6.3724390     791.6804     1292.133     1141.484     79.54426     158.8358     317.9244      1.662     3.95     882.6475     56.02264     134.7314         7     1.296     0.344  45.38   0
       146    650.0305    812.4009 307.6444441  +6.3654204     6434.845     9884.077      10668.3     79.03761     158.7726       317.64      1.596     4.21      886.734     56.02264       977.76        30     1.546     0.892  38.81   0
       147    438.6724    810.4128 307.7322835  +6.3591503     1590.133     2354.113     2342.811     79.16457      158.646       317.64      1.599     5.18       889.93     56.02264     205.8532        14     1.534     0.597  40.09   0
       148    164.0742    809.8161 307.8463343  +6.3501622     775.4712     1094.183     1184.186     79.16457     158.7093     317.7032      1.339     3.96     892.2224     56.02264     122.9111         6     0.961     0.467  39.49   0
       149    603.4080    804.6393 307.6640669  +6.3670618     999.2825     1393.955     1806.392     79.03761     158.7093     317.5135      1.475     3.87     887.3863     56.02264     179.0524        11     1.293     0.577  52.01   0
       150    878.0936    804.1279 307.5500097  +6.3764705     789.3307     1078.039     1100.487     79.54426     159.0254     317.8928      1.467     4.82     882.4967     56.02264     122.3669         8     1.108     0.594  25.10   0
       151    685.2858    802.4460 307.6301380  +6.3707115     2472.285     3759.451     3961.657     79.67043     158.8358     317.8296      1.636     4.51     885.7184     56.02264      351.554        19     1.517     0.764  45.08   0
       152    129.3914    803.0859 307.8609641  +6.3517724     1036.245     1290.137      1306.81     79.29134      158.646     317.6716      1.442     6.04     892.0795     56.02264     130.6929        14     1.387     0.740  36.40   0
       153    419.0032    799.1542 307.7408313  +6.3631376     53367.26     82661.23     87182.25     79.03761     158.7093     317.4818      1.628     4.03     889.9641     56.02264     7813.812        77     1.696     1.120  44.36   0
       154    154.0811    802.8910 307.8507182  +6.3526845     993.3047      1477.31     1604.836      79.4179     159.2147     317.8928      1.542     3.82     892.1293     56.02264     146.4315         8     0.851     0.651  44.15   0
       155    961.8608    800.6729 307.5153372  +6.3806967     760.0471     1121.166     1489.775     79.79638     158.9622     317.8612      1.711     4.64     879.5573     56.02264     142.3615         8     1.292     0.474  37.69   0
       156     71.0754    800.2679 307.8852754  +6.3509708     547.2992     878.2341      701.167     79.79638     159.0885     317.8296      1.821     5.40      892.004     56.02264     93.83875         7     1.221     0.675  44.46   0
       157    536.7822    798.1520 307.6919540  +6.3675054     6948.804     10843.42     11140.09     79.16457     159.0254     317.6083      1.631     4.10     888.1256     56.02264     989.7686        29     1.534     0.896  48.03   0
       158    453.6141    796.8798 307.7265350  +6.3652390      4657.53     6984.102     7978.151     79.29134     158.7093     317.6083      1.607     4.19     889.0888     56.02264     708.0838        28     1.515     0.893  47.67   2
       159    450.1840    790.3574 307.7281794  +6.3678165     2185.737     3679.199     4141.142     79.16457     158.7726     317.6083      1.874     4.48     888.9586     56.02264     321.8283        22     1.636     0.786  47.52   3
       160    781.9608    794.8293 307.5902458  +6.3770933     11572.73     17549.02     17971.52     79.16457      158.646     317.6716      1.580     4.05     884.8419     56.02264     1692.237        38     1.577     0.930  42.32   0
       161     11.4383    790.8854 307.9103574  +6.3528334     1006.267     1535.302     1462.946     79.67042     158.9622     317.8296      1.537     5.59     891.9185     56.02264      137.447        13     1.366     0.651  46.34   0
       162    803.5927    788.9294 307.5814604  +6.3802530     1271.081     1900.916     1879.563     79.16457     158.5827     317.7348      1.584     4.16     884.3256     56.02264      217.231        13     1.366     0.596  53.96   0
       163    139.7436    786.7051 307.8572195  +6.3588836     11794.28     18152.06     19538.13     79.54426     158.9622     318.0508      1.670     4.11     891.7625     56.02264     1612.856        40     1.596     0.991  42.82   3
       164    131.9552    784.0983 307.8605419  +6.3596974     2796.212     4671.078     4957.306     79.67042      158.899     318.0508      1.767     4.89     891.7179     56.02264     369.7257        24     1.905     0.811  42.09   3
       165    147.8168    786.9357 307.8538592  +6.3590603     2914.952     4488.807      4753.07     79.16457      158.899     317.7032      1.598     3.91     891.7441     56.02264     366.0255        23     1.457     0.883  48.67   0
       166    927.4868    783.4334 307.5301915  +6.3866653     6449.879     9841.049     10341.32     79.67043     158.8358     317.8296      1.705     4.43     879.9825     56.02264     929.6243        31     1.555     0.927  42.90   0
       167    976.5435    783.0937 307.5098293  +6.3884448     1444.243     1960.136     2195.596     79.54426     158.9622     318.0192      1.499     4.39     878.6763     56.02264     199.5021        10     1.071     0.602  30.00   0
       168    683.1107    781.1270 307.6317586  +6.3794401     1786.255     2551.376     2817.655     79.67042     159.2147     317.8296      1.553     4.37     885.1341     56.02264     283.6424        15     1.349     0.726  47.15   0
       169    570.0003    780.2592 307.6787618  +6.3760066     2290.938     3649.319      3911.69     78.91043      158.646     317.5135      1.646     4.33      886.795     56.02264     317.0573        19     1.514     0.793  40.27   0
       170    417.8885    780.1129 307.7419366  +6.3709611     1140.937     1920.068     2406.396      79.4179     159.4039     317.9244      2.222     5.04     889.2003     56.02264      164.384        15     1.402     0.756  36.34   0
       171    701.1719    778.6061 307.6243427  +6.3810858     766.9459     1157.273     1125.325     79.16457     158.7726       317.64      1.647     5.32     884.9699     56.02264     117.8553         8     1.102     0.725  78.97   0
       172    132.0694    777.6586 307.8607123  +6.3623597     2044.486      3118.68     3843.155     79.79638     158.9622     317.8296      1.749     4.32     891.5922     56.02264     282.8778        18     1.502     0.723  44.73   0
       173    921.7293    775.3619 307.5328535  +6.3898052     3028.878     4698.135     4979.911     79.54426     158.9622     317.8928      1.703     4.50     879.9572     56.02264     421.7205        20     1.457     0.785  46.04   0
       174    673.9279    774.5955 307.6357920  +6.3818289     1469.051     2399.131     2225.772     79.29134     158.5193     317.6716      1.685     5.74     885.0294     56.02264     237.0234        18     1.812     0.705  40.31   0
       175    981.8999    774.7097 307.5078860  +6.3920851     1799.725     2879.187     2991.545     79.67042     159.3408      317.798      1.729     4.12     878.3087     56.02264     253.5565        17     1.361     0.751  46.69   0
       176    951.2267    774.8837 307.5206190  +6.3909884     2921.571     4616.824     4932.447     79.67042     158.7093     317.7664      1.681     4.16     879.1356     56.02264     407.2174        26     1.561     0.911  41.72   0
       177    821.3644    772.9506 307.5746167  +6.3874444      977.017      1543.68     1188.685     79.54426     158.9622     317.7664      1.515     4.30     883.1624     56.02264     173.7131        11     1.308     0.589  53.16   0
       178    896.9933    770.8437 307.5432783  +6.3908437     738.9388     1101.006     1399.614     79.16457     158.7093     317.5135      1.657     5.07     880.6674     56.02264     112.0682         9     1.280     0.567  46.64   0
       179    246.6416    769.5004 307.8134100  +6.3695850     2026.553     3173.048     4268.644     79.67043     158.8358     318.0508      1.764     4.51     891.2426     56.02264     326.8427        17     1.473     0.704  43.54   0
       180    939.4396    764.9810 307.5258467  +6.3946829      953.582     1380.527     1499.472     79.29134     158.7726     317.5451      1.537     4.76     879.2079     56.02264     133.6171        12     1.365     0.651  40.83   0
       181    913.4497    763.9902 307.5366739  +6.3942232     1054.938     1576.681     1510.669     79.16457     158.8358     317.5135      1.443     4.74     879.9533     56.02264     166.3392        10     1.443     0.559  55.13   0
       182    162.0090    764.5702 307.8487222  +6.3687713     767.4781     1103.376     1208.141     79.16457     158.7726       317.64      1.645     5.22     891.0721     56.02264     110.6598        11     1.293     0.595  64.41   0
       183    966.0897    762.7169 307.5148545  +6.3965081     2453.906     3566.311     3581.196      79.4179     159.2147     317.8928      1.594     4.41     878.3998     56.02264     337.9145        21     1.539     0.807  43.99   0
       184    267.0084    765.1970 307.8050976  +6.3720468     677.8977     1092.551     1383.562     79.03761      158.646     317.6716      1.812     5.25     891.0772     56.02264     92.77808         8     1.248     0.624  21.79   0
       185    685.7861    761.8212 307.6312971  +6.3874999     978.2872     1788.725     2811.536      79.4179     158.7093     317.7348      1.723     5.46      884.592     56.02264     175.0439        12     1.585     0.539  44.66   0
       186   1008.0814    756.3969 307.4976267  +6.4005199     1662.014     2713.447     2729.256     79.03761     158.5193     317.5451      1.660     4.79     876.9893     56.02264     204.3903        19     1.474     0.835  44.40   0
       187    476.7132    757.5354 307.7182690  +6.3822574     823.9174     1119.286     1160.445     79.67042     159.1516     317.8296      1.677     5.52     887.6625     56.02264     114.1025         9     1.206     0.713  73.95   0
       188    809.6055    754.8111 307.5801099  +6.3945398      1207.26      2111.66     2179.037     79.29134     158.7093     317.7348      1.734     5.37     882.7935     56.02264     194.7288        13     1.418     0.661  48.56   0
       189    634.1061    755.6057 307.6529691  +6.3883341     657.7468     936.2192     1088.714     79.29134      158.646     317.6083      1.614     3.77     884.8807     56.02264     112.4817         6     1.184     0.345  48.87   0
       190    895.3295    751.9782 307.5446028  +6.3985766     1440.823     2383.545     2515.052     79.29134     158.8358     317.8296      1.623     4.57     880.1152     56.02264     239.6454        15     1.532     0.614  50.48   0
       191    869.5750    746.9285 307.5554686  +6.3998002     913.8239     1329.269     1660.485     79.29134     158.8358     317.7664      1.475     5.38     880.6082     56.02264     183.7648        11     1.515     0.539  41.09   0
       192    655.9666    746.7853 307.6441873  +6.3927082     553.8862     680.8562      976.316     79.29134     158.7093     317.7032      1.235     4.78     884.4058     56.02264     106.2851         7     0.914     0.709  -5.76   0
       193    852.1394    743.3217 307.5628310  +6.4007061     1431.761     2146.948     1896.376     79.79638     159.0254      317.798      1.657     4.36     880.9894     56.02264     244.0414        17     1.409     0.809  38.46   0
       194    115.4213    740.8922 307.8688697  +6.3769769     911.3276     1605.887       1463.7     79.54426     158.7726       317.64      1.967     6.92     891.0786     56.02264     116.6785        15     1.762     0.763  68.43   0
       195     51.3450    742.1087 307.8954376  +6.3743151     2513.123     3652.144     3494.619     79.54426     158.8358      317.956      1.509     3.72     891.4098     56.02264     366.3026        17     1.294     0.761  48.33   0
       196    664.0643    730.6976 307.6413657  +6.3996212     6303.808     9603.379     9566.545     79.67042     159.0254     317.8612      1.593     4.31     883.8068     56.02264     907.4334        32     1.558     0.945  42.13   0
       197    611.1531    730.2754 307.6633545  +6.3980220     1482.284     2539.013     2566.341     79.54426     159.0254     317.8296      1.927     4.70      884.023     56.02264     202.3879        18     1.476     0.872  52.39   0
       198    532.4124    730.3797 307.6960526  +6.3953378      671.218     922.6722     973.5927      79.4179      158.646     317.7348      1.590     4.91     885.3206     56.02264     102.4182         8     1.058     0.648  51.94   0
       199    521.6851    730.2028 307.7005136  +6.3950509     732.2761     1114.768     1311.634     79.03761     158.5827     317.5451      1.862     4.76     885.6195     56.02264     104.3443         7     1.117     0.576  40.85   0
       200    637.8227    726.3502 307.6524105  +6.4005365     2184.799     3462.416     3252.483     79.29134     159.0254     317.7348      1.625     4.59     883.7452     56.02264     299.2499        21     1.525     0.868  40.95   0
       201    127.0764    726.4081 307.8645197  +6.3833490     3738.515     5833.624     6017.024     79.29134     158.4559     317.6083      1.602     4.16     890.6288     56.02264     536.7682        24     1.456     0.868  46.27   0
       202   1001.0471    726.1967 307.5015612  +6.4127531     2593.205     3953.998     3911.037     79.03761     158.7093     317.4818      1.630     4.44      876.283     56.02264     342.7656        22     1.572     0.832  42.62   0
       203    313.6421    726.1991 307.7870487  +6.3897149     734.7495     1175.464     1259.049     79.03761      158.646     317.4502      1.856     5.35     889.5018     56.02264     111.8589         9     1.269     0.636  20.64   0
       204    249.3085    725.9302 307.8137749  +6.3876618     763.8665     1076.847     1217.288     79.67042     159.0885     317.8612      1.490     3.12     890.0634     56.02264     124.4542         7     0.849     0.576  55.62   0
       205    781.0045    722.8345 307.5930632  +6.4067840     20261.99     30916.26     32157.22     78.91043     158.8358     317.6083      1.577     4.10     882.1041     56.02264     2985.651        46     1.617     0.960  43.50   0
       206    911.0203    722.6355 307.5390713  +6.4112152     3714.538     6076.995     6540.686     79.16457     158.7726     317.6083      1.729     4.44     878.9528     56.02264     538.9532        26     1.584     0.858  42.43   0
       207    479.9983    723.0865 307.7180662  +6.3965895     1320.045     1819.047     1438.373     78.91043     158.5827     317.5451      1.460     4.92      886.541     56.02264     204.9922        14     1.351     0.713  28.38   0
       208    462.9442    723.7827 307.7251254  +6.3957295     503.5755     733.5527     1159.645     79.16457      158.899     317.5767      1.404     3.88     886.7401     56.02264     111.3501         6     1.176     0.419  52.28   0
       209    508.6234    722.7248 307.7061902  +6.3976997     779.6304     1189.613     1219.116     79.29134     158.8358     317.7664      1.570     4.78     885.7839     56.02264     144.9407         8     1.195     0.543  34.88   0
       210    325.6897    722.5563 307.7821684  +6.3916239     789.0777     1230.172     1314.877     79.67043     158.8358     317.8612      1.548     4.66     889.2101     56.02264     108.4419         9     1.234     0.498  50.59   0
       211    282.0129    722.6692 307.8003032  +6.3901083     669.6022     944.3967     1087.145     79.16457     158.7726     317.7032      1.633     4.26     889.9347     56.02264     107.0748         7     1.171     0.442  56.16   0
       212    254.4310    716.3781 307.8119703  +6.3917775     6068.258     9043.444      9351.57     79.16457     158.7726     317.6716      1.607     4.17     889.9052     56.02264     826.5532        27     1.535     0.848  44.39   0
       213    661.5632    715.6486 307.6429110  +6.4057503     7033.671     10609.34     10742.02     79.54426      158.899     317.7348      1.636     4.40     883.1697     56.02264     1031.435        28     1.511     0.871  40.10   0
       214    644.1091    716.8848 307.6501184  +6.4046549     776.8739     1035.216     1202.332      79.4179     159.2778      317.956      1.558     4.24     883.3667     56.02264     104.6876         7     1.137     0.452  33.38   0
       215    356.4146    715.0547 307.7696617  +6.3957537     694.9326     1089.206     935.0196     79.03761      158.899     317.5451      1.598     5.69     888.4071     56.02264     96.46283        11     1.385     0.659  21.75   0
       216    921.3535    708.1827 307.5352649  +6.4175275     1207.361     1641.224     1599.725     79.16457     158.8358     317.5767      1.339     4.06     878.3931     56.02264     247.8802         9     1.210     0.469  39.74   0
       217    733.2739    704.0477 307.6135184  +6.4129420     3716.291     5776.693      6298.45     79.54426     159.0254     317.8296      1.614     4.10     881.9689     56.02264     533.3521        25     1.545     0.861  49.11   0
       218    688.6494    704.3813 307.6320408  +6.4113095      1021.01     1666.229     1877.777     79.16457     159.0254       317.64      1.860     5.55     882.3719     56.02264     170.3168        12     1.359     0.640  41.10   0
       219    999.6002    700.7524 307.5030157  +6.4232095     8724.125     13329.56      13694.5     78.91043     158.5827     317.3869      1.646     4.18     875.6383     56.02264     1187.086        41     1.665     0.987  41.43   0
       220    937.8508    700.9424 307.5286560  +6.4210680      2460.88     3899.568      4227.84     79.67042     158.9622     317.8296      1.642     3.95     877.7438     56.02264     378.0283        18     1.464     0.718  40.47   0
       221    741.0706    701.2401 307.6103747  +6.4143621     528.8933     644.4268      924.034     79.54426     158.9622     317.8928      1.495     4.32      881.749     56.02264     90.15863         5     1.016     0.523  33.91   0
       222     18.4152    700.1372 307.9105339  +6.3905315     1768.833     2980.242     3152.472     79.16457      158.899       317.64      1.779     5.16     891.5411     56.02264     246.5451        20     1.594     0.792  35.82   0
       223     76.8876    695.3752 307.8864126  +6.3944688      25548.6     39296.34     41092.15     79.79638     158.7726     317.7032      1.641     4.10     890.6678     56.02264     3337.584        50     1.636     1.021  44.17   0
       224    538.2771    696.4601 307.6947600  +6.4095379     2108.826     3053.971     2788.781     79.79638     159.0254      317.798      1.595     4.64      884.502     56.02264     283.7607        19     1.419     0.781  40.22   0
       225    506.9767    693.7116 307.7078522  +6.4096222     1359.586     2102.504     2146.372     79.67042     158.7726     317.7032      1.589     5.73     884.8823     56.02264     202.7281        15     1.493     0.655  42.23   0
       226    928.2599    692.4860 307.5329234  +6.4242386     1072.398     1742.344     2230.922     79.67042     159.0885     317.9244      1.720     5.20     877.8798     56.02264     150.3337        12     1.291     0.698  48.12   0
       227    547.4950    690.2308 307.6911416  +6.4124189     1147.104     1479.942     1683.374     79.79638     158.7726     317.8612      1.622     5.43     884.2637     56.02264     153.2776        12     1.301     0.673  39.93   0
       228    722.8816    687.7795 307.6183819  +6.4193101     3587.937     5676.266     5698.429      79.4179      158.646     317.7664      1.654     4.26     881.3611     56.02264     504.7679        25     1.591     0.810  46.10   0
       229    744.9545    685.9667 307.6092753  +6.4207978     3939.036     6171.554     6603.963     79.29134     158.9622     317.7032      1.571     4.21     881.0557     56.02264     566.7716        24     1.477     0.845  43.29   0
       230   1017.8416    682.1774 307.4960624  +6.4314873     5041.096     7796.487     7956.141     79.29134     158.7726     311.1875      1.606     4.22     874.4862     56.02264      722.428        28     1.570     0.887  45.93  16
       231    576.3534    683.7763 307.6793736  +6.4160516     3147.574     4839.173     4903.805     79.29134     158.9622     317.7032      1.605     4.29     883.4974     56.02264     445.7358        21     1.592     0.698  44.51   0
       232    412.5473    684.3309 307.7473864  +6.4103239     1245.887     1774.027     1854.252     79.54426     158.8358     317.7664      1.586     4.20     886.4244     56.02264     208.1972        14     1.352     0.712  46.02   0
       233    237.0010    683.3770 307.8203243  +6.4048148     1599.654     2572.192     2488.855     79.29134      158.646     317.6083      1.572     4.41     889.5103     56.02264     288.3236        18     1.682     0.660  47.88   0
       234    320.5422    682.8801 307.7856461  +6.4078304     1395.836     2087.432     1921.624     79.67042     158.9622      317.798      1.540     4.27     888.4259     56.02264     215.7347        16     1.338     0.836  43.44   0
       235    983.2007    681.0422 307.5104884  +6.4307990     7931.044     12175.52     12953.76     79.03761      158.646     317.4502      1.581     3.90     875.7007     56.02264     1279.599        32     1.568     0.880  44.68   0
       236    703.3244    679.6769 307.6267771  +6.4220002       935.41     1341.892      743.231     79.92214     159.2147     317.8928      1.481     4.46      881.171     56.02264     132.5746         8     0.976     0.580  24.02   0
       237     94.7708    677.7114 307.8795838  +6.4023636     847.6163     1219.654      867.921     79.79638     158.7093     317.7032      1.724     5.92     890.0236     56.02264     124.6381        11     1.383     0.713  57.06   0
       238    428.4861    675.3369 307.7410703  +6.4145724     2846.907     4541.737     4724.599     79.79639     159.0885     317.8612      1.725     4.03     885.8546     56.02264     421.8333        22     1.494     0.826  44.31   0
       239    141.6679    674.2877 307.8602235  +6.4053572     24309.36     37194.19     38618.66     79.79638     159.2147     317.8612      1.673     4.13      889.672     56.02264     3250.577        50     1.614     1.032  43.39   0
       240    810.2126    675.2488 307.5825318  +6.4274070      1194.95     1755.488     1562.512     79.03761      158.899     317.5135      1.483     4.20     879.7867     56.02264     191.2982        11     1.329     0.517  40.93   0
       241    361.0697    669.2507 307.7692748  +6.4148196     680.2516     1083.026     929.0333     79.54426      158.899     317.8612      1.645     4.89     887.0002     56.02264     116.5475         8     1.283     0.528  50.48   0
       242    978.0864    663.9742 307.5131853  +6.4376747     6907.116     11414.93     12110.33     79.79638     158.7726     317.7032      1.759     4.44     875.4832     56.02264     1072.321        41     1.815     0.970  35.83   0
       243     22.9342    663.0379 307.9099139  +6.4059992     1113.467     1524.388     1624.255     79.54426      158.899     317.9244      1.517     5.46     891.2933     56.02264     154.0679        14     1.313     0.800  31.26   0
       244    571.6934    659.1911 307.6821373  +6.4260451     47836.82     73014.08     76373.84     79.29134     158.5827       317.64      1.623     4.17     882.8802     56.02264      6473.59        66     1.662     1.052  43.86   0
       245    936.1457    660.7134 307.5307147  +6.4376195     668.9346     767.4241     344.1232     79.67042     158.8358     317.9876      1.318     5.09     876.7847     56.02264      93.2735         8     1.114     0.658  45.99   0
       246    214.9085    660.6639 307.8302673  +6.4134478     666.1324     908.0635     914.3166     79.67042     159.1516     317.8928      1.650     3.82     889.0905     56.02264     106.3953         5     0.846     0.496  53.88   0
       247    530.9780    659.0372 307.6990528  +6.4247426     859.3729     1292.318     1125.894     79.29134     158.7093     317.6083      1.536     3.96     883.7206     56.02264     149.8062         7     0.925     0.486  44.88   0
       248    179.0880    655.6726 307.8453126  +6.4143023     2726.302     4105.743     3817.735     79.79638     159.2147     317.8296      1.594     4.12     889.1237     56.02264     384.7588        19     1.491     0.742  48.37   0
       249    501.6204    655.7544 307.7113564  +6.4251125      637.384     1012.585      892.551     79.29134      158.899     317.6716      1.731     4.34     883.9428     56.02264     94.77643         7     0.982     0.546  32.05   0
       250    982.7175    655.6313 307.5115417  +6.4412737     637.5635     1139.097     1341.667     79.54426     158.7726     317.7348      1.787     3.46     875.1573     56.02264      121.701         5     0.732     0.473  10.04   0
       251     71.9945    649.8092 307.8899873  +6.4131146     1287.602     2127.822     2551.824     79.03761     158.7726     317.6716      1.947     4.73     889.8851     56.02264     205.8008        18     1.487     0.904  54.36   0
       252    468.9349    642.9885 307.7253622  +6.4292854     60925.32     94355.31     99212.09     79.16457     158.7726     317.6716      1.616     3.97     884.2877     56.02264     8940.882        77     1.687     1.102  43.35   0
       253     12.4682    644.4052 307.9148915  +6.4133382     1899.729     3044.845     3558.037     79.16457      158.646       317.64      1.796     4.92     891.0746     56.02264     245.2897        18     1.543     0.750  47.11   0
       254    655.0547    640.4937 307.6481440  +6.4365592       801.67     1244.481       1293.1     79.54426     158.9622     318.0508      1.661     5.64     880.6799     56.02264     125.0148        11     1.594     0.562  40.32   0
       255    143.2702    637.8566 307.8607907  +6.4204509      1567.09      2231.13     1566.022     79.79638     158.9622      317.798      1.537     4.84     888.9028     56.02264     214.6767        14     1.312     0.698  46.32   0
       256    938.1985    636.1664 307.5306861  +6.4478222     660.9045     888.0541     817.5782     78.91043     158.7726     317.5767      1.416     4.42     875.8842     56.02264     104.4248         5     0.780     0.712  80.71   0
       257    615.0899    634.8434 307.6649333  +6.4375521     898.5954     1556.739      1750.56     79.67042     158.8358     317.8612      1.856     5.19     880.9602     56.02264     143.7262        10     1.253     0.608  53.10   0
       258    422.7223    635.6187 307.7448043  +6.4307758     789.4041     1287.513     1229.523     79.16457     158.7093      317.798      1.877     4.80     884.9643     56.02264     105.9073         9     1.277     0.512  48.63   0
       259    496.9400    633.6083 307.7140471  +6.4340981     600.2289     1019.422     1750.142     79.03761     158.7726     317.5767      2.925     5.55     883.6913     56.02264     89.97687         7     1.163     0.746  86.08   0
       260    314.4480    632.2148 307.7898884  +6.4285417     2165.508      3663.26     4529.339     79.03761      158.899     317.5451      1.853     4.19     886.3989     56.02264     281.1736        23     1.473     0.940  49.26   0
       261     15.0983    633.1696 307.9141799  +6.4180652     548.6456     874.5538     911.9124     79.67042     158.7093     317.8612      1.718     4.67      890.739     56.02264     89.45667         6     1.094     0.565  24.27   0
       262    466.0031    630.7656 307.7269921  +6.4342330      835.623     1472.685      2064.69     78.91043     158.7726     317.5767      1.974     6.02     884.1934     56.02264     132.5115        10     1.151     0.887  41.25   0
       263    740.9843    626.5497 307.6129228  +6.4451947     5270.981     7690.488     7529.236     79.03761     159.0254     317.5451      1.538     4.04     879.6632     56.02264     694.4591        23     1.503     0.794  45.28   0
       264    794.5440    621.8420 307.5908349  +6.4489314     14169.69     21174.73     21802.01     79.54426      158.899     317.8296      1.569     4.21     879.2256     56.02264     2021.003        37     1.563     0.894  44.08   0
       265    537.0307    622.3351 307.6977759  +6.4400977     1212.697     2016.452     2521.214      79.4179     159.0885     317.7664      1.945     5.81     882.5849     56.02264     191.9911        13     1.431     0.664  54.25   0
       266   1011.8736    622.1836 307.5005537  +6.4560564     956.0242     1487.251      939.876     79.16457     158.7093     317.7348      1.465     5.12     873.8806     56.02264     133.0654        10     1.232     0.602  49.15   0
       267    618.3948    619.8832 307.6640645  +6.4438391     3018.391     4543.424     4674.106     79.16457     158.5827     317.5767      1.617     4.23     880.4148     56.02264     388.2908        23     1.557     0.793  46.52   0
       268    935.7469    616.1477 307.5323765  +6.4560049     1182.722     1987.097     2370.036     79.92214     158.8358     317.8612      1.860     5.12     875.2537     56.02264     207.6945        13     1.352     0.656  30.90   0
       269    377.0192    613.8053 307.7645224  +6.4382454     802.1009     1340.161     930.5503     79.29134     158.5827       317.64      1.753     5.37     884.4523     56.02264     144.4789         9     1.391     0.585  42.70   0
       270    230.8073    613.4549 307.8252603  +6.4334722     1355.315     1974.077     1916.865     79.16457     158.7726     317.5451      1.438     4.40     887.3399     56.02264     197.6216        13     1.377     0.611  40.16   0
       271    870.3986    605.0543 307.5598923  +6.4584000     2792.493     4024.403     4350.861     79.03761     158.7093     317.4502      1.550     4.21     877.1221     56.02264     444.0085        19     1.434     0.725  48.11   0
       272    165.9668    604.9828 307.8524766  +6.4347865     710.0045     1055.786     1574.978     79.29134     158.7726     317.7032      1.615     5.68     888.0862     56.02264     127.5294        10     1.497     0.608  30.61   0
       273    829.4012    602.5172 307.5770063  +6.4580760     2496.781     3815.996     4073.823     78.91043     158.5193     317.5451      1.684     4.96     878.0994     56.02264     366.0629        20     1.493     0.865  38.89   0
       274    800.2626    598.4952 307.5892446  +6.4587613     2401.399     3791.541     4855.915     79.54426     159.0254     317.8612      1.773     4.47     878.5889     56.02264     370.2689        19     1.464     0.746  45.81   0
       275    809.9187    593.6907 307.5853953  +6.4610680     158169.9     238849.3     251408.3      79.4179     159.2147     317.8612      1.613     4.04     878.2018     56.02264     23302.81       128     1.764     1.138  46.07   0
       276    742.9998    598.8083 307.6130188  +6.4567150     755.4479     1281.581      1539.32     79.03761      158.646       317.64      1.767     3.98     879.0147     56.02264     114.4013         6     0.947     0.478  38.05   0
       277    257.2721    597.4042 307.8148113  +6.4409891     7618.523     11901.85     12593.71     79.29134     158.5193     317.6716      1.651     4.29     886.1859     56.02264     1031.564        33     1.508     1.012  43.83   0
       278    191.5165    591.8992 307.8423077  +6.4410482     58363.18     90485.06     95678.32     79.67042     159.4668     317.9244      1.663     4.09     887.2242     56.02264      7743.01        76     1.700     1.135  45.41   0
       279    739.6406    593.6842 307.6145864  +6.4587180     686.4889      1132.38     1053.839     79.67042      158.899     317.7664      1.743     4.26      878.892     56.02264     108.5627         7     1.112     0.466  60.19   0
       280    115.4767    588.0859 307.8740181  +6.4400610     6147.319     9678.209     9865.971     79.67042     159.2778     317.9244      1.693     3.95     888.0328     56.02264     869.3806        33     1.574     0.998  45.42   0
       281    980.8894    585.4286 307.5146568  +6.4701957     1481.594     2209.186     2718.587     79.79638     158.7093     317.7348      1.581     4.72      873.205     56.02264     202.5806        14     1.274     0.817  50.73   0
       282   1001.5758    584.3764 307.5060995  +6.4713211     729.6943     1073.463     721.3531     79.16457     158.7726     317.7664      1.572     4.45     872.6196     56.02264     113.7383         7     1.036     0.545  31.22   0
       283    846.3389    580.9886 307.5706944  +6.4675306     4446.761     6871.168     6963.808     79.03761     158.7726     317.5451      1.615     4.19     876.8091     56.02264     662.4628        28     1.583     0.848  44.37   0
       284    230.1374    583.2944 307.8265582  +6.4459007     918.0867     1401.557     2246.437     79.54426     159.0254     317.8928      1.651     4.09     886.0017     56.02264     154.4507         9     1.018     0.681  18.72   0
       285    364.9183    579.0867 307.7707205  +6.4521716     17080.09     26289.79      27093.6      79.4179     159.2147     317.9244      1.615     3.97     883.6399     56.02264     2440.577        40     1.585     0.980  43.43   0
       286    455.1507    579.9535 307.7332135  +6.4548456     826.0764     1191.307      940.633     79.67042     158.8358     317.8612      1.547     5.32     882.7793     56.02264     127.4512        10     1.167     0.848  33.47   0
       287    166.6687    577.9132 307.8531009  +6.4459852      1744.39     2841.937     3441.346     79.67042     159.2147     317.8612      1.810     4.28     887.4462     56.02264     255.7151        17     1.424     0.767  44.42   0
       288    241.8453    575.9026 307.8219454  +6.4493464     991.2176     1838.088      2326.14     79.67042     158.8358     317.9876      2.321     5.01     885.5444     56.02264     142.6041        14     1.222     1.058  43.04   0
       289    800.3629    574.2053 307.5900195  +6.4687927      5879.29     8886.018     9900.933     78.78305     158.7093     317.6083      1.600     4.22     877.6265     56.02264     928.8622        26     1.507     0.825  43.55   0
       290    531.2830    574.0098 307.7017921  +6.4598553     6344.795     9924.601     10450.47     79.29134      158.646     317.6716      1.636     4.20      881.153     56.02264     930.3104        32     1.528     0.980  44.07   0
       291    172.2632    575.3824 307.8508629  +6.4472184     686.2816     1196.457     2599.156     79.29134      158.899     317.6716      3.117     6.16     887.2303     56.02264     91.57892         9     1.523     0.700  40.29   0
       292    104.0535    574.8352 307.8792110  +6.4451462     816.0927     1385.126     1622.784     79.54426     158.9622     317.8612      1.813     4.71     887.9186     56.02264      114.396         9     1.172     0.563  46.99   0
       293    389.2473    570.3544 307.7609104  +6.4565943     1259.447     2036.863     2590.945     79.67042     158.8358     317.8612      1.783     4.96     883.1035     56.02264     199.0356        15     1.523     0.667  36.95   0
       294    817.0379    566.7531 307.5833437  +6.4724273     1454.032     2360.473     2751.404     79.54426      158.899     317.6716      1.622     4.32     876.9486     56.02264     228.6451        16     1.394     0.824  52.25   0
       295    178.2404    567.0950 307.8486607  +6.4508410     6681.174     10690.58     11560.29     79.67042      158.899     317.9244      1.688     3.92      886.831     56.02264     921.2388        35     1.605     0.996  48.20   0
       296    575.9351    567.1304 307.6834774  +6.4641935     2337.789     3751.321      4265.24     79.67042     159.0254     317.8296      1.791     4.11     880.1085     56.02264     284.6416        21     1.251     1.093  23.15   0
       297    273.5423    563.5396 307.8091982  +6.4555168     86599.51       132257     139207.3     79.79639      158.899     317.8612      1.700     4.19       884.81     56.02264     11688.24        98     1.725     1.191  44.31   0
       298     49.9525    565.7953 307.9019867  +6.4470542     4891.184      8022.65     8466.635     79.03761     158.7726     317.5135      1.713     4.23     888.9648     56.02264      674.916        32     1.637     0.946  45.50   0
       299    562.9743    561.1000 307.6890640  +6.4662484     970.2415     1678.246     2066.345     79.67042     158.7093     317.7348      2.084     5.54     880.1546     56.02264      143.475        13     1.499     0.658  18.73   0
       300    257.5064    558.6252 307.8160248  +6.4570060     1537.922     2355.764     2689.941     79.79639     158.7093     317.6716      1.667     4.83     884.7294     56.02264      206.519        12     1.327     0.598  42.16   0
       301    973.0134    557.3980 307.5188691  +6.4815049     1639.853     2065.125     1916.424     79.29134      158.646     317.6083      1.443     3.69     872.2602     56.02264     233.8351        14     1.236     0.663  40.83   0
       302    796.6598    556.0869 307.5921669  +6.4761488     15879.46     23884.01     24820.84     79.67042     159.0885      317.956      1.591     4.09     876.9497     56.02264     2328.808        44     1.599     0.972  43.16   0
       303    500.2878    554.4277 307.7153265  +6.4668992     40564.04     65666.06     70754.44     79.79638     158.7093     317.7032      1.775     4.35     881.0709     56.02264     5516.045        72     1.799     1.192  37.84   0
       304    651.0281    552.8931 307.6527658  +6.4725893     956.2513     1523.878     1385.843     79.79638     158.7093     317.7348      1.769     5.93     879.4069     56.02264      143.522        11     1.285     0.770  41.25   0
       305    212.9606    551.1849 307.8347781  +6.4585782     1802.466     3224.725     4424.798      79.4179     158.7726     317.5767      2.157     5.09     884.9891     56.02264     278.7264        22     1.603     1.035  46.61   0
       306     48.4703    550.8965 307.9031069  +6.4531548     1158.886     1854.404     1621.129     79.54426     159.0885     317.8296      1.648     5.13     888.8652     56.02264     173.6686        15     1.428     0.748  58.57   0
       307    722.8318    548.8909 307.6230753  +6.4766476     1274.941     1913.801     1989.326     79.79638     158.7726     317.8612      1.673     5.05     878.0276     56.02264     199.4207        12     1.488     0.607  56.04   0
       308    660.1976    549.5128 307.6490709  +6.4742922     2938.145     4522.827     4449.723     79.03761     158.5827     317.5451      1.635     4.15     879.3745     56.02264     439.6431        22     1.555     0.781  48.73   0
       309    670.4744    549.3452 307.6448078  +6.4747058     1530.182     2318.218     2283.317     79.54426      158.899      317.798      1.586     4.95      879.362     56.02264     216.0389        17     1.379     0.959  43.92   0
       310     79.4930    546.7998 307.8903609  +6.4558920     658.0093     1365.193     1586.107     79.16457     158.5193     317.4818      2.681     6.21     888.0718     56.02264     83.00867         8     1.384     0.783  27.08   0
       311    397.9478    544.9323 307.7581548  +6.4673818     1764.018      2711.59     2885.794     79.54426      158.899      317.798      1.698     4.24     882.1348     56.02264     261.7788        19     1.448     0.877  49.33   0
       312    329.4485    543.3691 307.7866592  +6.4657244     3847.394      5840.82     5818.841     79.29134     158.9622     317.7348      1.645     4.03     883.5067     56.02264      561.039        24     1.492     0.860  43.66   0
       313    144.6099    541.9227 307.8634804  +6.4600999     25344.18     39487.74     40992.84     79.29134      158.646     317.6716      1.654     4.13     887.0364     56.02264      3504.35        50     1.652     1.022  44.97   0
       314    509.4427    542.7263 307.7119185  +6.4720372     2068.292     3199.969     3281.427     79.54426     159.0254     317.8612      1.674     4.53     880.4768     56.02264     276.2717        16     1.388     0.719  47.07   0
       315    872.6508    542.0966 307.5610719  +6.4844671     1518.479     2366.234     2339.162     79.54426      158.899     318.0192      1.604     4.39     874.6751     56.02264     240.3749        14     1.418     0.637  44.44   0
       316    109.6800    540.1367 307.8780487  +6.4596602     2561.686      3970.42     3840.112     79.92214     159.0254     317.8296      1.657     4.33     887.4039     56.02264     340.1443        21     1.541     0.822  45.57   0
       317    346.3984    538.1277 307.7797959  +6.4684582     916.8578     1460.715     2078.703     79.16457     158.5193     317.6716      1.685     5.35     883.0281     56.02264       136.83        11     1.429     0.676  38.94   0
       318    970.2182    536.5594 307.5207296  +6.4900147     4954.125     7419.802     7174.652     79.29134     158.7726     317.5767      1.596     4.09     871.7451     56.02264     715.8522        25     1.514     0.805  45.95   0
       319    543.4275    529.1327 307.6982605  +6.4787898     1385.717      2186.73     1866.901     79.29134      158.899     317.7348      1.660     3.94       879.52     56.02264      203.249        12     1.294     0.640  49.01   0
       320      8.9225    526.2520 307.9203674  +6.4619946     24620.25     38430.77      41264.5     79.67042     159.0254     317.8296      1.659     4.17     889.8336     56.02264       3323.5        53     1.673     1.043  45.70  16
       321    441.6208    523.0992 307.7407514  +6.4778626     42012.95     64521.29     67689.88     79.67042     158.7726     317.6083      1.639     4.06     880.6285     56.02264     5641.507        61     1.670     1.056  45.41   0
       322    418.0706    526.0854 307.7504326  +6.4758386     589.5204     928.7594     616.7622     79.79638     159.2147     317.8612      1.415     4.49     881.0354     56.02264     83.08148         6     1.011     0.567  44.79   0
       323    649.6724    522.7863 307.6543427  +6.4849732     11916.02     18291.92     19049.95     79.16457     158.7093     317.6716      1.623     4.15     878.4641     56.02264     1711.711        37     1.573     0.941  45.40   0
       324    289.5323    523.0338 307.8039256  +6.4727768     805.0546     1206.013     1548.797     79.54426     159.0254     317.9244      1.627     5.74     882.8173     56.02264      120.228         9     1.488     0.625  41.01   0
       325    206.7851    520.6397 307.8383761  +6.4709802     18700.49     30103.17     31936.88     79.29134     158.7726     317.6083      1.726     4.25     884.4193     56.02264     2372.967        53     1.787     1.018  43.72   0
       326    172.5468    521.7178 307.8525606  +6.4693820     1649.487     2302.864     1809.321     79.67043     158.9622     317.8928      1.552     4.91     885.8179     56.02264     203.8635        14     1.315     0.713  40.36   0
       327    983.5983    521.0954 307.5156906  +6.4968460     951.6044     1395.986     1095.617     79.16457      158.646     317.4502      1.549     5.34     871.0884     56.02264     153.4604        10     1.176     0.684  38.83   0
       328    823.7460    520.9594 307.5820967  +6.4915574      954.228     1498.857     1405.025     79.54426     158.9622     317.8296      1.515     5.99     875.3394     56.02264     118.7614        13     1.514     0.666  47.12   0
       329    912.1298    520.3141 307.5454045  +6.4947800     714.7487     992.2219     1000.377     79.79638     159.2147     317.8612      1.310     4.38     873.0014     56.02264     145.6861         8     1.135     0.480  54.33   0
       330    571.5256    519.5619 307.6869118  +6.4836838     2808.563     4109.422      4481.16     79.54426     159.0254     317.8928      1.635     4.18     879.1342     56.02264     387.8457        23     1.561     0.801  44.57   0
       331    945.4198    516.7936 307.5316942  +6.4973463     4551.216      6896.75       7017.8     79.29134     158.7093       317.64      1.588     4.19      871.999     56.02264     660.9872        25     1.550     0.799  48.74   0
       332    618.4448    515.1463 307.6675714  +6.4870803     6387.522     9741.476     9872.558     79.67042     158.9622     317.8612      1.636     4.24     878.7069     56.02264     843.6952        30     1.573     0.879  43.58   0
       333    106.0401    515.7610 307.8803857  +6.4696004     997.0104     1467.205     1446.215      79.4179     159.0254     317.7032      1.582     5.33     887.1415     56.02264     171.2168        10     1.219     0.723  47.89   0
       334    967.9128    509.0529 307.5226106  +6.5012936     3519.479     5611.165     6031.128     79.67042     158.8358      317.956      1.638     4.27     871.2872     56.02264     552.3574        24     1.485     0.841  48.31   0
       335    870.8542    510.9684 307.5628641  +6.4972581     474.2599     431.1295     726.9006     79.54426     159.0254      317.798      1.178     3.94      873.968     56.02264     89.50537         5     0.859     0.516  34.20   0
       336    530.6786    506.4201 307.7043217  +6.4877386     7193.903     11030.93      11682.4     79.29134      158.646      317.798      1.647     4.12      879.036     56.02264     959.8148        31     1.520     0.933  42.68   0
       337    376.6732    506.6535 307.7682838  +6.4824695     2669.826     4045.195     3710.054     79.54426      158.899      317.798      1.659     4.22     881.0855     56.02264     335.6144        20     1.431     0.829  45.45   0
       338    887.1677    502.3926 307.5563756  +6.5013442     3169.181     4801.234     5396.564     79.16457     158.8358       317.64      1.631     4.28     873.2075     56.02264     464.8961        23     1.532     0.805  47.44   0
       339    406.4964    507.5222 307.7558668  +6.4831132     570.6384     990.4542     1512.416      79.4179     159.1516     317.8928      2.074     4.03     880.6525     56.02264     105.3226         6     1.143     0.405  44.99   0
       340    235.2423    501.2867 307.8272106  +6.4799276     585.4742     1246.398     1374.095     79.67042     158.8358     317.8612      1.871     3.68      882.976     56.02264     87.16046         5     0.921     0.422  45.89   0
       341    894.7005    496.6245 307.5534403  +6.5039774     2169.416     3204.923     3487.755     79.79638     158.7093       317.64      1.561     4.24     872.7819     56.02264     354.8141        16     1.373     0.735  50.44   0
       342    933.9984    496.0075 307.5371367  +6.5055460     1223.838     1793.209     2359.089     79.03761      158.646       317.64      1.619     4.36     871.4787     56.02264     195.2905        14     1.429     0.659  38.39   0
       343    113.3578    495.4839 307.8780327  +6.4782178     753.8425     1111.656     1901.958     79.67043      158.899     317.7348      1.917     6.17     886.7035     56.02264     92.87274        10     1.379     0.775  65.19   0
       344    718.5743    492.6627 307.6267358  +6.4997183      2835.48     4243.051     4354.943     79.29134      158.899     317.7348      1.608     4.13      876.295     56.02264     416.2166        21     1.427     0.808  45.23   0
       345    272.2706    494.4166 307.8120627  +6.4840100        545.3     490.3023      355.196     79.16457      158.899     317.7032      1.072     3.45     881.5889     56.02264     84.30548         5     0.758     0.454  18.35   0
       346    389.4918    490.8872 307.7634916  +6.4894092     3579.001     5480.208     5661.811     79.67042     159.4039     317.9244      1.655     4.34      880.273     56.02264     469.0825        24     1.509     0.881  43.88   0
       347     80.1953    491.5003 307.8919418  +6.4787445     1887.299     2859.769     3301.068      79.4179     158.5827     317.4818      1.658     4.45     887.6167     56.02264     284.7512        17     1.515     0.702  46.56   0
       348    430.0225    491.0614 307.7466502  +6.4906992     1084.369     1805.184     2103.392     79.29134      158.899     317.7348      1.699     5.09     879.6908     56.02264      143.295        13     1.265     0.769  53.48   0
       349    617.1511    487.4080 307.6690431  +6.4984884     9970.888     15190.39     15977.57     79.16457     158.7726     317.4818      1.597     3.99     878.1551     56.02264      1499.57        36     1.587     0.922  46.85   0
       350    779.8698    483.9681 307.6015664  +6.5053605     15948.18     24099.29     25929.41     79.54426     158.9622     317.8296      1.565     4.06     875.3071     56.02264     2404.885        44     1.636     0.939  44.34   2
       351    783.5804    479.2599 307.6001833  +6.5074285     1386.244     2068.884     2493.792     79.29134     158.8358     317.7032      1.692     4.88     875.0939     56.02264     186.7593        15     1.385     0.750  38.27   2
       352    299.6285    484.3203 307.8010402  +6.4890985     2754.026     4056.135     4057.725     79.54426      158.899      317.798      1.639     4.29     880.4194     56.02264     320.9119        21     1.377     0.882  48.53   0
       353    423.1776    483.5913 307.7497455  +6.4935532     578.0816     991.9627     1051.751     79.29134     158.7093       317.64      2.241     4.16     879.5882     56.02264     106.9628         6     1.667     0.296  51.44   1
       354    808.7865    481.0150 307.5896537  +6.5075476      1177.26     1675.761     1158.488      79.4179      158.646     317.7664      1.524     4.67     874.7446     56.02264     193.7432        13     1.278     0.725  42.75   0
       355    382.7080    480.7272 307.7666524  +6.4933755     1677.803     2389.255     2738.266     79.54426     159.0885     317.8612      1.612     4.42     879.9455     56.02264     238.9292        16     1.345     0.750  50.49   0
       356    965.1533    479.1213 307.5247617  +6.5135586     1962.548     3058.921     3273.817     79.67042     159.0254      317.798      1.625     4.29     870.6908     56.02264     350.8011        18     1.479     0.749  42.49   0
       357    117.2882    475.7436 307.8770684  +6.4864995     4414.043     6790.455     7183.756     79.67042     158.8358      317.956      1.670     3.92     886.2338     56.02264     595.2974        28     1.472     0.966  47.37   0
       358    371.0060    476.4394 307.7716580  +6.4947523     639.3853     836.2064     1032.239     78.91043      158.646     317.5451      1.602     3.70     879.8264     56.02264     99.33936         6     1.167     0.338  49.83   0
       359    755.4792    474.9145 307.6120028  +6.5082816     2222.205     3338.354     3458.569     79.54426     159.2778     317.9244      1.558     4.93     875.3275     56.02264     296.3471        19     1.503     0.730  47.17   0
       360   1019.0071    473.6750 307.5025730  +6.5176061     4103.418     6868.541     6611.556     79.29134      158.456     301.4164      1.721     4.90     870.0037     56.02264     557.0288        28     1.798     0.791  37.82  16
       361    275.0977    472.7448 307.8116209  +6.4930519     1429.542     2237.434     2818.912     79.54426     158.9622     318.0192      1.529     3.64     880.6099     56.02264     265.0029        15     1.278     0.749  36.18   0
       362    353.3557    470.5185 307.7791895  +6.4966032      3154.74     4902.362     5057.925     79.67043     158.9622      317.798      1.700     3.95     879.7848     56.02264     463.6795        26     1.462     0.983  45.95   0
       363    709.0804    468.3350 307.6314982  +6.5094437     1610.439     2376.486     2157.925     79.92214     159.0254      317.798      1.522     4.14     875.3469     56.02264     224.0699        14     1.341     0.659  46.23   0
       364    982.8098    467.2909 307.5178241  +6.5190327     635.2455     1005.713     1097.661      79.4179      158.646     317.5767      1.859     4.81     869.9623     56.02264     90.20001         8     1.466     0.447  62.40   0
       365    241.3684    466.1448 307.8258543  +6.4946414     595.6988     801.6388     865.9218     79.54426     159.0254      317.798      1.602     4.47     881.6288     56.02264     99.62146         6     1.258     0.451  40.09   0
       366    550.6404    461.0790 307.6975584  +6.5071269     980.9454     1462.049     1279.786     79.54426     158.9622      317.798      1.514     4.83     877.0925     56.02264     166.2927        12     1.353     0.736  50.85   0
       367    450.9482    462.1266 307.7389344  +6.5033474     518.9675     664.8615     701.6272     79.67042     159.0254     317.8612      1.420     5.00     877.9348     56.02264     93.23865         6     1.303     0.543  19.50   0
       368    835.7002    458.5660 307.5792283  +6.5177161     1360.364     2084.077     2164.962     79.67043     158.8358     317.9876      1.677     5.08      873.211     56.02264      218.434        13     1.353     0.736  42.53   0
       369    472.9171    459.2646 307.7299053  +6.5052668     1239.339     1891.334     2497.873     79.79638     159.1516     317.8612      1.838     5.40     877.3364     56.02264     186.6947        14     1.423     0.673  45.94   0
       370    820.9323    457.5250 307.5853980  +6.5176518     2026.597     2757.242     2491.483     79.79638     159.0885     317.8296      1.491     4.63     873.5518     56.02264     278.7297        17     1.496     0.681  43.86   0
       371    718.3682    455.7039 307.6280652  +6.5149695     14885.89     22354.75     23653.24     79.79638     158.7726     317.9244      1.637     4.01     874.7729     56.02264     2074.666        40     1.573     0.952  43.07   0
       372    639.3763    451.5003 307.6610203  +6.5140577     2503.397      3726.68     3867.758     79.79639     158.7093     317.6083      1.633     4.42     875.7758     56.02264     339.7214        20     1.475     0.875  38.62   0
       373    711.7657    450.2057 307.6309930  +6.5170182      724.538     1165.275     1409.949     78.91043     158.7726     317.6083      1.747     5.07     874.5491     56.02264     93.41119         9     1.401     0.520  53.59   1
       374    611.8283    446.8216 307.6726214  +6.5150655     12801.57     25444.63     30325.79     79.03761     158.7726     317.7348      2.229     7.32     876.1569     56.02264      2025.33        59     2.545     0.987  36.69   0
       375    943.6355    445.6828 307.5348232  +6.5266444     3887.885      5679.05     5918.356     79.67042      158.899     317.7664      1.601     4.02     869.8963     56.02264      594.004        21     1.405     0.792  47.09   0
       376    382.7331    441.5040 307.7679664  +6.5095689     28512.78     44075.89     46281.45     79.67042     159.0254     317.8612      1.691     4.05     878.0428     56.02264     3524.392        52     1.644     1.057  46.62   0
       377    128.8467    440.9769 307.8734443  +6.5012415     2275.604     3493.238       3320.5     79.29134     158.9622     317.7032      1.604     4.21     884.7957     56.02264     318.4194        19     1.401     0.822  48.99   0
       378    898.6698    440.4994 307.5536769  +6.5272811     1317.473     2331.069     2748.266     79.67043     159.0885     317.8612      2.206     6.42     870.8491     56.02264     273.3914        19     2.180     0.666  46.61   0
       379    912.3945    436.0122 307.5481261  +6.5295925     4852.105     7044.379     7022.237     79.29134     158.7093     317.7032      1.542     3.89     870.4559     56.02264     742.0519        23     1.469     0.806  40.37   0
       380     62.2334    436.5157 307.9012647  +6.5008376     1479.237     2199.958     2729.914     79.67042     158.8358      317.798      1.649     4.00     886.7651     56.02264     217.6073        14     1.243     0.750  41.97   0
       381    240.2202    432.0160 307.8274852  +6.5086920     13302.62     21108.42     22357.18      79.4179     158.7726     317.7348      1.687     4.11     880.4199     56.02264     1711.489        43     1.669     1.010  45.62   0
       382    703.5156    425.7048 307.6352448  +6.5268568     762.1548     888.2615      570.387     79.67042     159.3408     317.9244      1.588     5.88     873.5985     56.02264     121.9117        11     1.358     0.717  55.91   0
       383     76.2692    426.1060 307.8957872  +6.5056083     784.4025     1360.208     1747.829     79.54426     159.0885     317.8612      1.790     5.03     885.9915     56.02264     138.7793        10     1.325     0.540  50.85   0
       384    963.8995    424.4849 307.5271168  +6.5360731     1043.985     1453.424     1483.756     79.67042     159.4668     317.9244      1.567     4.98     868.4873     56.02264     156.7437        14     1.390     0.696  43.23   0
       385    735.1985    425.8794 307.6220773  +6.5278461     683.3412     926.7336     1036.982     78.91043     158.3926     317.6083      1.435     5.18     873.2226     56.02264     93.38232         9     1.145     0.662  41.22   0
       386    353.0888    421.7635 307.7809471  +6.5167218     1246.432     1914.975     1570.426     79.67042      158.899     317.8296      1.666     4.83      877.544     56.02264      179.088        14     1.347     0.832  36.53   0
       387    140.5242    420.6459 307.8692819  +6.5100281     5160.156     7968.652     7891.214     79.54426     159.0254     317.8612      1.669     4.18     883.7745     56.02264     659.6719        30     1.553     0.967  50.56   0
       388    186.1581    421.6944 307.8502909  +6.5111326     776.2839     1100.315     1334.945     79.67042      158.899      317.956      1.510     4.10     882.0596     56.02264     103.6982         9     0.944     0.655  72.99   0
       389    245.2955    419.6238 307.8257960  +6.5139786     1300.751     2098.792     2124.325     79.79638     158.7093     317.7032      1.753     4.87      879.886     56.02264     182.5401        15     1.335     0.807  60.58   0
       390    162.6757    416.3288 307.8602266  +6.5125567     2262.844     4044.725     4309.404     79.92214     159.2147     317.8296      1.933     5.55     882.8958     56.02264     285.9061        28     1.735     1.107  75.43   0
       391    437.7252    418.5864 307.7458965  +6.5208781      615.033     964.6671      591.061     79.16457     158.7093       317.64      1.532     3.45     875.9464     56.02264     100.7556         5     0.771     0.447  19.19   0
       392    826.7102    417.3014 307.5843501  +6.5344511     734.9279     847.7551     453.3376     79.67042     159.4039      317.798      1.222     2.69     871.7255     56.02264     126.1353         6     0.696     0.631  60.47   0
       393    558.1691    415.5767 307.6959648  +6.5261645     980.3194     1427.633     1299.163     79.03761     158.7093     317.5767      1.509     4.81     874.3117     56.02264     149.6608         9     1.202     0.545  42.16   0
       394    972.6598    414.6767 307.5238068  +6.5404151     449.6412      721.049     234.7112     79.79638     159.0254      317.798      1.511     4.15     867.7016     56.02264     103.7841         5     1.203     0.409  53.28   0
       395    274.4212    412.2907 307.8139453  +6.5179862     745.4879     1119.695     1169.075     79.54426     158.7726     317.7032      1.640     4.97     879.1401     56.02264     106.8971         8     1.236     0.565  39.44   0
       396    385.8801    411.1073 307.7676855  +6.5222234     2024.888     3050.818     3155.655      79.4179     159.2147     317.8928      1.481     3.88     876.4829     56.02264     305.5585        17     1.396     0.707  45.17   0
       397      4.8627    411.4130 307.9259454  +6.5092652     688.4639     1126.202     616.4144     79.16457     158.7726     289.1029      1.833     5.27     887.5351     56.02264     115.5095         8     1.413     0.555  33.44  16
       398    974.5827    410.6892 307.5231418  +6.5421255     952.9625     916.6452     1326.795      79.4179     158.7093     317.7348      1.012     3.30     867.3972     56.02264     169.7448        10     1.112     0.610  41.99   0
       399    319.5378    408.3911 307.7953359  +6.5211140     597.2672     996.8082     804.0377     79.03761     158.7726       317.64      1.908     4.77     877.8424     56.02264     87.34161         7     1.121     0.575  45.21   0
       400    439.9011    404.8404 307.7454565  +6.5266260     7191.202     11137.05     11646.04     79.67042     158.8358     318.0508      1.628     3.89     875.1838     56.02264     936.1398        34     1.604     0.926  44.42   0
       401     36.1885    405.6047 307.9131302  +6.5127198     3101.523     5366.365      5726.59     79.29134     158.7093     317.7348      1.825     3.90      886.486     56.02264     430.4709        30     1.447     1.201  51.37   0
       402    772.4572    403.8806 307.6073394  +6.5381758     1957.124     2892.682     3592.639     79.79638     158.9622     317.8296      1.662     4.31     872.1739     56.02264      283.173        16     1.291     0.831  45.06   0
       403    780.5204    402.2981 307.6040430  +6.5390991     12876.25     19128.23     20002.54     79.54426     159.3408     317.8612      1.594     4.42     872.0909     56.02264     1872.532        33     1.564     0.863  44.67   0
       404    343.7969    400.1705 307.7855364  +6.5253236     954.5917     1519.829     1451.156     79.16457     158.7726       317.64      1.760     5.87     876.7645     56.02264      159.217        12     1.463     0.662  58.37   0
       405   1023.4451    396.9593 307.5033035  +6.5494261     2495.097     2998.519     3066.838      71.8489     129.5856     242.6809      1.083     2.74     864.3224     56.02264     590.2103        11     0.952     0.619  70.53  24
       406    955.0565    394.0334 307.5318129  +6.5483493     630.1826     794.8019     891.2439     79.54426     158.9622     317.8296      1.223     3.99     867.4626     56.02264     117.2744         6     0.774     0.588  38.75   0
       407    188.9232    393.1677 307.8501074  +6.5230023     919.2538     1386.406     1578.507     79.54426     158.9622     317.7664      1.543     5.07     881.5522     56.02264     136.6733         8     0.971     0.749  31.15   0
       408    487.9636    388.5464 307.7260406  +6.5349669     2896.736     4543.405     4554.797     79.54426     158.9622     317.8612      1.690     4.39     873.2667     56.02264     382.5507        22     1.527     0.845  50.41   0
       409    460.2278    388.9632 307.7375484  +6.5338634     2089.329     3279.311     3313.601     79.16457      158.646       317.64      1.617     4.29     873.8597     56.02264     276.6669        19     1.462     0.778  44.60   0
       410    845.8920    385.2221 307.5774598  +6.5483367     32321.35     51175.98     53688.09     79.67042     158.7726     317.6716      1.686     4.10     870.4155     56.02264     4203.321        60     1.681     1.096  50.81   0
       411    916.3484    388.0904 307.5480933  +6.5495090     741.6548     996.5573     1137.568     79.67042     158.7726      317.956      1.360     2.90     868.7815     56.02264     137.3762         5     0.795     0.468  33.94   0
       412     63.8280    381.6657 307.9024603  +6.5235345      647.138     906.4023     1029.748     79.29134      158.899     317.7664      1.510     3.92     885.0512     56.02264     128.3369         6     0.948     0.465  37.87   0
       413    338.2552    380.8780 307.7884902  +6.5331017     871.6038     1312.205     667.7869     79.79638     158.9622     317.8612      1.480     5.07     876.1212     56.02264     125.3336        10     1.168     0.634  43.19   0
       414    617.6483    377.5524 307.6725374  +6.5438576     2740.584     4243.458      4905.37     79.67043     158.8358     317.8612      1.722     4.48     871.7661     56.02264     373.8713        21     1.455     0.817  45.82   0
       415     25.7551    377.5533 307.9184146  +6.5239480     1113.552     1682.331     1667.936     79.67042      158.899      317.798      1.633     3.86     885.6086     56.02264      151.955        12     1.227     0.648  36.37   0
       416    702.3491    371.1746 307.6375650  +6.5493299     77744.87     118948.6     124818.4     79.29134     158.9622     317.7348      1.630     4.09     871.0287     56.02264      11642.5        83     1.699     1.086  43.38   0
       417    860.5406    372.6128 307.5717980  +6.5540324     1185.008     1608.102     1419.562     79.03761      158.899     317.5135      1.568     4.88     869.7993     56.02264     197.5152        12     1.210     0.687  44.68   0
       418     81.6659    370.5995 307.8954254  +6.5287044       1437.4      2033.37     2068.335     78.91043     158.5827     317.5767      1.564     4.61     884.4495     56.02264     177.4636        18     1.390     0.859  39.09   0
       419    943.9606    368.1379 307.5372922  +6.5586693     796.2456     1228.375      1226.56     79.67042     158.9622     317.8928      1.518     4.53     866.7711     56.02264     202.9377        11     1.569     0.534  43.41   0
       420    564.7941    367.8819 307.6948204  +6.5460769     2664.748     4124.924     4385.244     79.29134     158.5193     317.6083      1.635     3.95     871.3732     56.02264     373.6558        22     1.605     0.733  40.15   0
       421    102.0097    366.5887 307.8871105  +6.5310460     6023.714     9278.813     9689.746      79.4179     158.7726      317.798      1.647     4.27     884.0486     56.02264     790.8937        27     1.502     0.914  50.07   0
       422    763.1851    365.7491 307.6124742  +6.5536076     563.6443     743.1609     1473.305     79.03761     158.9622     317.5767      1.574     3.44     870.7986     56.02264     121.2096         5     0.983     0.349  47.26   0
       423    548.1033    364.0026 307.7018850  +6.5471183     6855.881     10679.83     11119.56     79.29134      158.646     317.5135      1.609     4.03     871.2225     56.02264     968.1189        36     1.637     0.935  46.95   0
       424    277.1217    361.6364 307.8145359  +6.5389886     2646.514     4004.438     3402.992     79.54426     159.0254     317.8296      1.607     4.34     877.8517     56.02264     335.0938        20     1.438     0.830  45.47   0
       425    410.9585    359.1778 307.7590210  +6.5445044     24996.06      39478.7     41599.85     79.29134     158.7726     317.6083      1.673     4.09     873.5985     56.02264       3420.6        59     1.671     1.110  43.88   0
       426    589.3035    358.1578 307.6849663  +6.5509137     681.7321     997.4395     736.8691     79.67042      158.899     317.9876      1.376     4.57      870.613     56.02264     90.47797         7     1.345     0.442  44.32   0
       427    518.6689    358.0047 307.7143151  +6.5486065     1313.319     2143.838     2124.505     79.16457     158.5827       317.64      1.635     4.46     871.1418     56.02264     183.8495        15     1.411     0.689  43.06   0
       428    390.6795    357.1168 307.7675149  +6.5446737     1019.289     1868.438      2622.17     79.79638     159.2147     317.9244      2.265     5.70     873.7922     56.02264     150.7448        16     1.509     0.811  31.75   0
       429    677.6057    357.1425 307.6483167  +6.5542937     584.0519     1055.825     783.4292     79.16457     158.8358     317.5451      1.857     4.63     870.3743     56.02264     70.94806         6     0.989     0.615  21.23   0
       430    490.0652    354.4639 307.7263173  +6.5491079     1148.465     1849.475     2231.375     79.67042     158.9622     317.8296      1.883     5.21     871.1942     56.02264     182.6242        13     1.417     0.635  34.27   0
       431    805.7393    351.4771 307.5952755  +6.5609243     780.2843     1213.073     1305.097     79.79638     159.0254      317.798      1.649     5.81     870.3752     56.02264      109.299        11     1.442     0.660  52.68   0
       432    642.1885    351.6661 307.6632147  +6.5553673     614.9822     833.9274     579.2653     79.16457     158.7726     317.7032      1.361     3.39     870.1235     56.02264     112.7953         5     1.164     0.286  55.60   0
       433    500.0220    349.6157 307.7223445  +6.5514437     8410.538     13291.81     14195.57      79.4179     158.7726     317.7664      1.670     3.97     870.8986     56.02264     1130.044        38     1.632     1.005  45.40   0
       434    388.3120    351.7927 307.7686783  +6.5467920     697.1395     1130.811     1505.505     79.16457      158.646     317.5767      1.706     5.21     873.6133     56.02264     132.2997         8     1.477     0.520  25.57   0
       435    769.2623    348.4646 307.6105310  +6.5609468      3261.88     4771.138     5054.037     79.67042     158.9622     317.8612      1.601     4.29     870.1669     56.02264      491.111        21     1.506     0.765  40.29   0
       436    924.8190    347.9088 307.5459240  +6.5663808     850.3438     1361.919     1438.413     79.54426     158.7093     317.7032      1.710     4.08     866.8815     56.02264     136.3108         7     0.927     0.513  45.84   0
       437    717.2295    348.1180 307.6321593  +6.5593471     703.6949     951.8922     823.3269     79.54426     158.7726      317.798      1.565     3.85     869.9911     56.02264     124.9438         6     0.968     0.440  51.56   0
       438    326.5947    346.2846 307.7945029  +6.5469906      875.124     1379.395     1082.675     79.16457      158.646     317.5767      1.520     5.46     875.2991     56.02264     144.6422        11     1.562     0.539  48.17   0
       439    262.3447    339.9644 307.8214072  +6.5474380     556.6567      795.139     560.1417     79.54426     158.9622     317.8612      1.533     3.42      877.717     56.02264     95.46271         5     1.407     0.241  72.80   0
       440    162.1989    340.1575 307.8630025  +6.5439858     976.7866     1405.174     1434.662     79.03761      158.646     317.4502      1.553     2.95     882.6439     56.02264     188.3289        11     1.025     0.703  44.43   0
       441    609.5220    338.9611 307.6772137  +6.5595169     443.1831     753.4894     283.1557     79.54426     159.0254     317.8296      1.957     5.63     869.5953     56.02264     68.39233         7     1.138     0.786  57.96   0
       442    389.9377    333.8209 307.7686098  +6.5542659     7207.399     11380.33     11593.99     79.29134     158.9622     317.7032      1.638     4.09      873.056     56.02264     949.6672        32     1.555     0.935  42.87   0
       443    245.7554    334.2586 307.8284916  +6.5492350     2070.176     3358.786     3200.482     79.54426      158.899      317.956      1.776     5.40     878.0201     56.02264     284.6118        18     1.492     0.786  46.64   0
       444    743.4274    333.1917 307.6217779  +6.5663868     940.9167     1669.101     1810.758     79.29134     158.7726     317.6716      1.795     5.08      869.502     56.02264     165.5889        12     1.363     0.611  51.66   0
       445    757.8375    329.7440 307.6159072  +6.5682928     53802.92      81114.7      84748.9     79.67042     159.0254     317.8612      1.605     4.08     869.4399     56.02264     7750.131        73     1.648     1.069  44.06   0
       446    429.2473    329.1338 307.7524376  +6.5575221     2228.238     3558.604     3607.239     79.67042      158.899     317.8612      1.653     4.41     871.8723     56.02264     297.5659        22     1.583     0.826  52.09   0
       447    992.6416    326.6448 307.5184607  +6.5774262     1685.638     2756.319     2688.233     79.54426     158.9622     317.6716      1.745     4.19     863.2034     56.02264     275.3643        19     1.616     0.736  45.25   0
       448    933.6846    325.9358 307.5429788  +6.5757486     2314.145     3264.875     3368.663     79.79638     159.0885     317.8612      1.514     4.29     865.6934     56.02264     341.2748        18     1.434     0.731  44.37   0
       449    575.5081    326.4760 307.6917652  +6.5635302     1324.561     1840.968      1961.08     79.54426     159.1516     317.8296      1.602     4.28     869.1198     56.02264     224.1006        14     1.389     0.745  40.05   0
       450    466.6774    325.4402 307.7370126  +6.5603044     999.5521     1622.936     2314.878     79.54426     158.9622     317.8612      1.829     5.12     870.4757     56.02264     140.9941        11     1.345     0.584  38.31   0
       451    416.1902    324.7934 307.7580085  +6.5588751     1806.405     2972.114     3319.084     79.16457     158.7726     317.7032      1.684     4.38     872.1243     56.02264     254.0609        18     1.498     0.771  32.57   0
       452    295.8447    323.7654 307.8080382  +6.5552527     704.2263     1161.331     966.8311      79.4179      158.899     317.7032      1.503     5.39     876.2581     56.02264     108.0501         8     1.048     0.782  48.49   0
       453    837.4548    319.5229 307.5831737  +6.5751777     1145.804     1761.442     1770.623     79.79639     158.9622     317.8296      1.696     5.25     868.3107     56.02264     151.1115        11     1.277     0.610  47.04   0
       454    466.7355    320.1222 307.7371679  +6.5625017     655.8123     1351.257     1485.127     79.92214     159.0254      317.798      2.174     3.24     870.2637     56.02264     111.9624         5     0.922     0.344  45.05   0
       455    969.7643    318.0103 307.5282552  +6.5802265     528.6712     809.4892     512.2021     79.16457     158.7726     317.6083      1.683     3.85     864.0571     56.02264     82.34589         5     0.843     0.505  41.94   0
       456    446.3616    316.0199 307.7457704  +6.5635109     1094.464     1773.207      1847.96     79.29134     158.7726     317.5767      1.614     4.20     870.7838     56.02264     156.1927        14     1.238     0.887  57.25   0
       457    192.7379    316.0640 307.8511315  +6.5549610     2199.143     3443.903     3754.436     79.67042     158.9622     317.8612      1.681     4.39     880.2125     56.02264     281.9977        20     1.455     0.814  40.69   0
       458    756.3093    314.3540 307.6170599  +6.5745952     6164.458      9165.44      9679.92     79.67042      158.899      317.956      1.615     4.05     868.8465     56.02264     953.7043        28     1.588     0.829  41.56   0
       459    772.6579    312.2289 307.6103393  +6.5760200     2592.847     3726.237     4549.993     79.29134     159.0254     317.7348      1.515     4.14     868.7756     56.02264     413.4664        18     1.463     0.693  44.85   0
       460    228.4057    313.9560 307.8363857  +6.5570323     675.4294     1019.232      664.972     79.03761      158.646     317.5135      1.533     4.67     878.1051     56.02264     98.44934         8     1.089     0.567  35.18   0
       461     88.4871    313.0039 307.8945427  +6.5527109     1000.254     1563.411      1535.68     79.16457      158.646     317.5451      1.786     5.05     883.4865     56.02264     156.8366        12     1.310     0.746  58.84   0
       462     75.7911    307.4205 307.9000059  +6.5545878     1242.914     2004.492     2219.192     79.29134     158.7093     317.6083      1.778     5.51     883.6562     56.02264     187.9462        16     1.477     0.751  54.48   0
       463    362.1938    306.9644 307.7810425  +6.5644203     1662.103     3343.918     2954.165     78.91043     158.7093     317.6083      1.995     8.41     873.1875     56.02264     204.6453        26     1.844     1.073  19.88   0
       464   1010.9092    303.1699 307.5116591  +6.5877279     5966.199     8820.593     9163.696     79.79638     158.7093      317.798      1.567     4.08     862.6432     56.02264     901.6135        27     1.550     0.827  44.15   0
       465    488.8036    302.9589 307.7285791  +6.5703285     2012.747     3107.149     3293.866     78.91043     158.7093     317.5767      1.561     4.50      868.936     56.02264      310.203        20     1.459     0.833  44.11   0
       466    251.4831    298.5285 307.8273205  +6.5641781     5740.811     8876.236     9328.271     79.92215     159.2778     317.8612      1.700     4.25     877.0895     56.02264     748.9255        31     1.556     0.974  40.23   0
       467    919.1491    297.4880 307.5499734  +6.5870072     618.5902     1084.395     1028.305     79.67042     158.7726      317.956      1.745     4.06     865.0779     56.02264     96.75983         6     1.022     0.461  56.30   0
       468    899.6232    295.6597 307.5581472  +6.5871090      469.233     527.3171     782.3456     79.29134      158.899     317.6716      1.684     4.15     865.5453     56.02264     80.43048         5     1.269     0.387  36.95   0
       469    942.6288    293.7745 307.5403430  +6.5893252     491.1177     383.2078     444.4397     79.16457     158.7726     317.7032      1.422     4.23     864.3588     56.02264     91.25067         5     1.139     0.447  31.29   0
       470    771.1371    292.0512 307.6116500  +6.5842992     849.0114     1273.121     852.3589     79.67042      158.899      317.798      1.678     5.48      867.996     56.02264     133.8398        10     1.219     0.694  61.45   0
       471    385.6703    289.1858 307.7718900  +6.5725491     1677.541      2937.12     3029.048     79.16457      158.899     317.7348      1.949     5.06     871.8972     56.02264     262.2517        19     1.530     0.893  40.74   0
       472    227.9534    290.8444 307.8373553  +6.5665581     607.0715     1001.068     1392.474     79.67042      158.899      317.798      1.893     5.52     877.6282     56.02264     101.4037         7     1.442     0.595   8.19   0
       473    972.5341    288.2380 307.5281042  +6.5926103     1012.666      1521.05     1426.708     79.54426      158.899     317.9244      1.648     5.09     863.5208     56.02264     173.8047        12     1.390     0.610  44.25   0
       474    308.0272    285.3375 307.8042761  +6.5715266     1116.042     1618.203     996.2004     79.29134     159.0254     317.7664      1.588     4.85     874.8463     56.02264      174.238        13     1.419     0.647  42.88   0
       475    155.5136    285.0282 307.8676458  +6.5665191     1870.497     2943.119     3116.578     79.79638      158.646     317.7032      1.609     4.62     881.4859     56.02264     255.6498        17     1.346     0.802  42.49   0
       476    565.2160    280.8893 307.6975778  +6.5820046     1934.411     2900.918     2708.708      79.4179     158.7093     317.6716      1.547     4.72     867.1166     56.02264     282.1913        17     1.565     0.667  41.51   0
       477    909.0226    280.2179 307.5547608  +6.5937984       1658.8     2568.873     2828.197      79.4179      158.899     317.7664      1.780     4.79     864.6823     56.02264     269.1977        17     1.434     0.730  40.89   0
       478    728.6586    278.4257 307.6297569  +6.5885016     5097.221     7574.711     8395.752     79.29134     158.9622     317.6716      1.649     4.16      867.663     56.02264     725.2825        28     1.576     0.849  43.05   0
       479    967.3184    278.4278 307.5306006  +6.5964861     669.3257     1175.798      694.103     79.54426     158.7726     317.7664      1.751     5.67     863.1452     56.02264     115.8547         7     1.835     0.493  41.38   0
       480    669.5699    278.3087 307.6543100  +6.5865698     2185.847     3330.492     3780.931     79.79639     158.7093      317.798      1.695     3.96     867.5932     56.02264     328.8992        18     1.394     0.742  45.33   0
       481    859.3646    274.5993 307.5755812  +6.5944570     401.3697      506.398     444.7427     78.78305     158.7726       317.64      1.530     3.43      865.923     56.02264     75.55035         5     1.061     0.321  69.23   0
       482    384.0728    272.6194 307.7731132  +6.5793345     665.2728     934.4276     1150.309     79.29134      158.899     317.7664      1.696     5.93     871.3821     56.02264     94.46997        10     1.302     0.760  31.18   0
       483    924.5329    270.6690 307.5486376  +6.5982591     1154.816     1599.099     1338.291     79.67043     159.0254     317.8296      1.529     3.60     863.8689     56.02264     218.3357        11     1.212     0.587  45.30   0
       484    228.2815    263.7680 307.8381349  +6.5777469     2263.396     3603.996      3696.25     79.54426      158.899      317.798      1.711     4.33     877.2612     56.02264     282.2567        22     1.478     0.871  35.71   0
       485    871.0068    262.7117 307.5711438  +6.5997542     1616.338     2409.566     2622.992     79.16457      158.646     317.5767      1.519     4.16      865.278     56.02264     267.0408        16     1.511     0.642  45.86   0
       486    761.3571    262.1886 307.6167181  +6.5963001      1642.62     2309.831     2274.158     79.16457     158.7726     317.5451      1.523     4.05     867.1085     56.02264     240.4507        15     1.244     0.855  42.47   0
       487    462.1461    253.5655 307.7413207  +6.5898242     22083.49      35017.5     36324.61     79.54426     158.9622     317.8296      1.708     4.09     867.6518     56.02264     3056.159        53     1.677     1.082  44.98   0
       488    323.0406    255.0515 307.7990625  +6.5845345     735.9713     1114.779     965.9487     79.67042     158.9622      317.798      1.577     4.90     873.3657     56.02264     96.73853         9     1.152     0.591  77.10   0
       489    788.1708    252.6836 307.6058975  +6.6011220      12997.2     20053.12     21394.64     79.67042     158.7093     317.7032      1.665     4.10     866.7242     56.02264     1861.222        51     1.692     1.128  29.31   0
       490    467.8618    248.2523 307.7391253  +6.5922097      1367.77     2301.361     2392.439     79.67042      158.899      317.798      1.707     6.02     867.1529     56.02264     198.6523        15     1.537     0.663  39.00   0
       491    726.4470    248.4987 307.6316831  +6.6007825     649.0611     1110.724     879.4891     79.67043     158.8358     318.0192      1.561     3.74     866.7603     56.02264     93.93304         6     0.965     0.417  18.48   0
       492    150.3384    246.7544 307.8710913  +6.5821449     2357.148     3464.879     3741.171     79.54426     158.8358     317.9244      1.648     4.27     879.5718     56.02264     318.9372        21     1.416     0.901  46.93   0
       493    125.1843    245.6462 307.8815789  +6.5817546     1045.834     1829.961     2267.529     79.16457     158.8358     317.5767      2.327     5.30      880.761     56.02264     195.5105        17     1.607     0.880  69.34   0
       494    177.2712    244.8606 307.8599665  +6.5838342     536.5927     968.1944     1210.364     79.79638     158.9622     317.8928      2.294     3.49     878.4613     56.02264     95.33698         5     1.018     0.345  47.88   0
       495    924.4549    243.0003 307.5495995  +6.6096793     1314.166     2023.674     2359.004     78.91043     158.5827     317.4818      1.673     5.39      862.756     56.02264     183.3115        12     1.383     0.593  44.40   0
       496    586.2079    239.2975 307.6902586  +6.5998794     4527.769     7091.775     7087.348      79.4179     158.5827     317.6083      1.664     4.24     866.0486     56.02264     666.8682        27     1.559     0.910  41.23   0
       497    548.8699    239.3172 307.7057708  +6.5986183     2038.632     3216.621     3588.009     79.92214     159.2147     317.8612      1.727     4.39     865.9468     56.02264     288.2493        17     1.433     0.722  43.28   0
       498    306.6041    239.6510 307.8064116  +6.5903393     994.5283     1434.436     1450.646     79.03761     158.7093     317.4185      1.525     5.08     873.8126     56.02264     156.5837        11     1.403     0.520  42.50   0
       499    390.7335    238.4420 307.7715003  +6.5936678     1519.144      2429.14     2407.529     79.67042      158.899     317.8928      1.742     4.99     869.8322     56.02264     193.9309        15     1.328     0.797  41.37   0
       500    893.2469    235.9534 307.5628028  +6.6115450     11448.03     16850.41     17579.48     79.67042     158.8358     317.8296      1.539     4.05      863.687     56.02264     1757.022        33     1.563     0.835  45.22   0
       501    691.3345    234.0223 307.6467589  +6.6055823     2675.079     4233.989     4533.597     79.29134     158.9622     317.7348      1.760     4.47     866.1749     56.02264     394.1631        24     1.725     0.895  58.44   0
       502    947.0499    236.3670 307.5404344  +6.6131731     2674.956     3911.439     3713.626     79.54426     158.9622     317.7664      1.536     4.42     861.6833     56.02264     442.3383        19     1.436     0.763  40.32   0
       503    568.1866    235.6979 307.6978673  +6.6007608     808.7877     1244.823     710.6196     79.54426     158.7093     317.5767      1.524     5.52     865.9182     56.02264     127.5507        10     1.581     0.543  34.00   0
       504    321.1955    236.3887 307.8004598  +6.5921769      855.364     1143.201     1522.942     79.29134     158.7093     317.7348      1.489     4.55     872.9181     56.02264     130.2791        10     1.178     0.733  32.47   0
       505    211.9482    235.5082 307.8458765  +6.5888632     591.0749     971.8945     1208.007     79.54426     158.8358     318.0508      1.576     4.14     877.2774     56.02264     110.2227         6     1.020     0.480  54.58   0
       506    979.8653    233.7241 307.5268887  +6.6153610     9703.653     14448.27     15074.03     79.79638     158.9622     317.7664      1.565     4.16      860.494     56.02264     1462.022        32     1.580     0.852  44.70   0
       507    265.8646    233.4664 307.8235460  +6.5915214     1026.556     1605.731     1961.896     79.67042     158.9622     317.8612      1.528     5.35     875.5087     56.02264     171.0063        12     1.360     0.613  64.65   0
       508     19.4044    232.4102 307.9259721  +6.5836511      25009.7     39205.11     41756.01     79.16457      158.646     317.7348      1.725     4.18     882.2746     56.02264     3449.722        52     1.701     1.037  46.01   0
       509    499.8587    228.5879 307.7264953  +6.6014023     1871.377     2894.758     2850.322     79.03761      158.899     317.5451      1.638     4.01     865.7333     56.02264     258.0269        16     1.294     0.751  37.13   0
       510    831.8280    225.3421 307.5886783  +6.6138710     1912.191     2859.668     2681.012     79.29134     159.0254     317.7348      1.638     4.48     865.1749     56.02264     276.1213        16     1.458     0.670  46.91   0
       511    511.8684    224.5403 307.7216422  +6.6034766     2623.239     3922.635     3641.635     79.79638      158.899     317.8296      1.637     4.46     865.5754     56.02264     340.3016        21     1.514     0.814  41.58   0
       512    884.0989    224.3888 307.5669924  +6.6160134     2163.748     3102.687     3776.621      79.4179      158.646     317.6083      1.534     4.38     863.6381     56.02264     312.4641        15     1.367     0.655  46.90   0
       513    743.4333    221.8418 307.6255229  +6.6123565      39764.2     60552.02     63078.77      79.4179     158.9622     317.6716      1.638     4.17     865.9334     56.02264     5546.925        59     1.662     1.009  44.82   0
       514    346.4958    221.2310 307.7904607  +6.5992854     5454.245     11940.19     13068.31     79.79638     158.7726     317.8928      2.247     5.93     871.0612     56.02264     582.4401        49     1.962     1.352  83.39   0
       515    977.1296    220.6494 307.5284644  +6.6206673     2790.023     4318.156     4497.836     79.67042      158.899     317.8612      1.573     4.54     859.9771     56.02264     462.2084        19     1.470     0.712  44.02   0
       516    911.3143    218.9827 307.5558663  +6.6191554     7741.808     11475.72     11767.53     79.29134     158.7093     317.7664      1.561     4.02     862.2486     56.02264     1261.758        29     1.546     0.799  44.73   0
       517   1015.5280    219.3448 307.5125538  +6.6224888     1855.366     2749.735     2751.907     79.54426     158.8358      317.798      1.590     4.21     858.5694     56.02264     276.9281        16     1.350     0.717  46.70  16
       518    454.8932    218.0557 307.7455325  +6.6042400     4953.741     7757.851     8233.453     79.54426     158.9622     318.0192      1.658     4.03     866.4694     56.02264     686.7357        29     1.567     0.926  45.43   0
       519    112.2326    209.3480 307.8881888  +6.5963025     4670.222     7788.326     8323.242     79.54426     158.9622     317.7348      1.773     4.44     880.1588     56.02264     582.4512        30     1.600     0.996  41.41   0
       520    931.8323    208.4482 307.5476951  +6.6241904     912.9789     1363.903     1689.205      79.4179     158.9622     317.7664      1.636     5.56     860.9752     56.02264     134.3055        11     1.111     0.792  47.23   0
       521    282.5172    206.0007 307.8175563  +6.6034204     32928.31      52671.1     54657.47     78.91043     158.4559     317.5135      1.697     4.06     874.8424     56.02264     4202.049        56     1.687     1.078  45.39   0
       522    257.8670    207.1111 307.8277600  +6.6021322     6599.122     10366.35     10879.63     79.79638     159.1516      317.798      1.639     3.97     875.6322     56.02264     878.1724        33     1.559     0.967  44.39   0
       523    608.5387    207.7967 307.6820425  +6.6136331     652.2366      941.117     949.4053     79.03761     158.7093     317.5451      1.628     4.66     865.0209     56.02264     106.4333         6     1.147     0.537  45.35   0
       524    712.0111    205.3923 307.6391322  +6.6180947     946.8674     1373.639     1583.361     79.29134     158.7726     317.7348      1.423     5.61     865.0025     56.02264     158.1294        13     1.424     0.623  39.23   0
       525    162.5546    202.8467 307.8675026  +6.6006825     3902.284     6353.552     6521.136     79.67042     158.8358     317.8612      1.743     4.16      877.527     56.02264     518.0768        27     1.597     0.946  40.34   0
       526    406.5712    201.4832 307.7661685  +6.6094578     49323.95     77198.11     81078.47     79.54426     158.7093     317.7664      1.727     4.17     867.8789     56.02264     6421.471        68     1.702     1.109  45.20   0
       527    423.8275    201.6702 307.7589927  +6.6099606     1296.333     2233.706     1972.753      79.4179     158.8358     317.7664      1.744     6.03     867.1354     56.02264     182.4773        16     1.538     0.727  49.04   0
       528    317.9688    199.2769 307.8030547  +6.6073890     1933.878     3466.113     3977.874     79.54426     159.0254     317.8296      2.200     7.59     872.8036     56.02264        284.6        30     2.086     1.321 -82.86   2
       529    310.5907    199.1596 307.8061240  +6.6071892     17767.92     28264.02     29861.35     79.03761     158.7726     317.5451      1.707     4.24     873.2591     56.02264     2225.015        49     1.681     1.046  45.95   2
       530    694.1695    199.9332 307.6467290  +6.6197505     1032.603     1572.865      1675.94      79.4179     158.9622      317.798      1.733     5.47     864.7504     56.02264     148.6113        14     1.399     0.717  43.78   0
       531    745.8858    197.7704 307.6253141  +6.6223762     32899.87     50026.65     52342.86     79.79638     158.7093     317.7032      1.600     4.15     864.5758     56.02264     4691.551        52     1.627     0.985  44.47   0
       532     33.1086    197.7561 307.9214535  +6.5984192     614.8331     972.5263     1474.261     79.67042      158.899      317.956      1.908     5.42     881.9199     56.02264     122.6242         6     1.272     0.653  60.99   0
       533    570.2348    196.5750 307.6983354  +6.6169807     497.1628     820.8348     910.5493     79.16457     158.7726     317.6083      1.932     3.05     864.4986     56.02264     93.44647         5     0.813     0.656  51.47   0
       534     62.6829    194.8746 307.9092645  +6.6006064     8921.978     14201.41     15202.53     79.79638     159.2778     317.8928      1.718     4.23     881.1339     56.02264      1197.58        37     1.632     0.990  45.16   0
       535   1004.0848    191.7402 307.5182351  +6.6335028     1086.633     1512.916     2106.342     79.79638     159.0254     317.9244      1.334     4.14     858.1313     56.02264      200.575        10     1.260     0.558  42.07   0
       536     96.5295    192.7579 307.8952746  +6.6026217     1397.654     2141.488     2025.939     79.54426     158.9622     317.8928      1.693     4.18     880.1429     56.02264     219.5767        13     1.289     0.646  40.31   0
       537    971.6356    191.4473 307.5317278  +6.6325395     601.8455     870.7758     437.9966     79.29134      158.899     317.7348      1.282     4.31     859.0535     56.02264     118.5023         7     1.016     0.520  58.06   0
       538    794.2197    198.1555 307.6052187  +6.6238357     1170.918     1807.084     1863.551     79.16457     158.8358     317.6716      1.618     4.45     864.1737     56.02264     156.5982        13     1.263     0.689  49.91   0
       539    579.7201    182.2894 307.6948761  +6.6231965     674.3344     952.7859     824.4759      79.4179     159.2147     317.9244      1.216     3.97     863.9158     56.02264     124.3354         7     1.293     0.348  46.56   0
       540   1005.1375    178.2889 307.5182494  +6.6390912     2240.235     3333.427     4246.977     79.67042     159.0885     317.8928      1.712     4.29     857.6633     56.02264     359.2344        18     1.435     0.803  54.14   0
       541    588.0165    175.8338 307.6916466  +6.6261399      984.697     1327.436     1240.723     79.29134     158.7093     317.7032      1.574     5.92     863.6913     56.02264      133.673        13     1.352     0.730  50.44   0
       542    596.6264    174.0376 307.6881298  +6.6271703     1946.248     3015.297     2986.847     79.29134     158.7726     317.6716      1.579     3.95     863.6299     56.02264     316.3075        20     1.490     0.806  36.76   0
       543    281.4194    172.2445 307.8191538  +6.6173187     29755.68     47255.12     50051.48     79.29134     158.8358     317.6716      1.704     4.05     875.0198     56.02264       4005.3        53     1.655     1.077  46.20   0
       544    340.4845    174.0158 307.7945538  +6.6185749     875.4514     1306.524     1490.844     79.29134     158.7093     317.7348      1.563     5.28     871.3057     56.02264       122.68        10     1.238     0.637  26.54   0
       545     26.7677    170.7008 307.9250049  +6.6093740     4578.991     7330.304     7904.633     79.67042     158.8358      317.956      1.737     4.11     882.1899     56.02264     621.4745        29     1.494     1.040  42.25   0
       546    713.0482    168.9137 307.6399295  +6.6331890     8006.631      12453.2     13343.78     79.67042      158.899     317.8612      1.610     4.20     863.2127     56.02264     1216.495        35     1.595     0.916  43.44   0
       547    190.6816    169.6138 307.8569417  +6.6153493     842.4701     1397.813     1066.246     79.29134     158.7093       317.64      1.844     5.16     876.8701     56.02264     110.7581        10     1.153     0.654  54.39   0
       548    267.4188    167.2292 307.8251403  +6.6189179     817.1911      1245.77     1237.715     79.29134     158.7726     317.7664      1.676     5.36     875.3466     56.02264     118.5509         8     1.250     0.649  41.32   0
       549    123.8720    165.9896 307.8848216  +6.6145940     4744.956     7657.679     7680.667     79.16457     158.5827     317.6716      1.685     4.39     878.1797     56.02264     603.0323        29     1.577     0.969  43.80   0
       550    585.7908    164.1864 307.6929641  +6.6308737      816.048     1180.621     789.1099      79.4179     158.7093     317.7348      1.601     6.09     863.2046     56.02264     123.5078        12     1.290     0.931  30.65   0
       551    463.1396    163.2985 307.7439546  +6.6271224     1404.875     2123.163     2413.835      79.4179      158.899      317.956      1.544     4.43      863.942     56.02264     201.0593        15     1.398     0.777  45.62   0
       552    419.6245    165.0057 307.7619770  +6.6249554     433.9926      465.484    -253.4271     79.16457     158.7093     317.6716      1.414     3.86     865.6434     56.02264     73.62604         5     1.276     0.336  41.60   0
       553    394.4992    162.1929 307.7725111  +6.6252720     3875.493     6523.623     6795.852      79.4179     158.5827       317.64      1.782     4.40     867.3214     56.02264     518.1929        29     1.643     0.950  45.67   0
       554    651.8242    162.8258 307.6655732  +6.6336502     786.5585     1285.635     1123.689     79.16457     158.7726     317.7348      1.753     4.49     863.2151     56.02264     128.3148         7     0.898     0.637  50.62   0
       555    845.2225    160.4839 307.5852940  +6.6410951     434.1526     723.2745     987.4639     79.54426      158.646     317.7348      1.641     5.55     860.1435     56.02264     80.16663         7     1.583     0.548  55.60   0
       556    358.9805    160.8513 307.7873139  +6.6246315     3174.952     5089.159     5087.351     79.16457     159.0254       317.64      1.668     4.07     869.9008     56.02264     416.0224        23     1.458     0.900  51.62   0
       557    571.9608    160.4426 307.6988366  +6.6319552      620.228     1169.205     1793.087      79.4179     158.9622     317.7032      2.109     3.68     863.0233     56.02264     88.62225         6     1.171     0.332  51.14   0
       558    113.3152    160.4870 307.8893939  +6.6165097      1744.57     2717.789     3000.646      79.4179     159.1516     317.8928      1.708     4.26     878.2037     56.02264     218.4271        16     1.328     0.800  31.34   0
       559    941.2861    159.9456 307.5453964  +6.6445303     659.7429     1109.548      749.525     79.67042      158.899     317.9876      1.966     4.22     858.6719     56.02264     90.72955         7     1.176     0.432  33.73   0
       560    673.9234    157.6395 307.6565656  +6.6365321     627.7108     972.4476     1319.643     79.54426     158.9622     317.8612      1.438     3.31     863.0216     56.02264     123.4309         5     0.791     0.402  22.66   0
       561   1005.8815    155.0753 307.5187196  +6.6486996     1546.598     2410.717     2207.396     79.92214     159.2147     317.8928      1.512     4.50     856.5738     56.02264     223.0382        12     1.277     0.591  45.52   0
       562    210.8345    149.8357 307.8492381  +6.6241929     5428.712     8678.474     8897.319      79.4179     158.7093     317.5767      1.654     4.17     876.1968     56.02264      694.199        29     1.606     0.900  43.35   0
       563     93.5008    149.5305 307.8979973  +6.6203645     2154.212     3297.171     3680.583     79.67043     159.0885     317.8296      1.703     4.18     878.4203     56.02264     301.6317        20     1.469     0.790  51.58   0
       564    849.5223    149.6837 307.5838706  +6.6456977     611.2895      759.439     1342.972     79.79639     159.2778     317.9244      1.276     3.33     859.4945     56.02264     120.2495         5     0.764     0.422  65.15   0
       565    672.6066    148.6982 307.6574139  +6.6401793     6130.193     9391.938     9742.246      79.4179     158.5827     317.6083      1.644     4.16     862.7172     56.02264     868.9321        27     1.535     0.846  44.58   0
       566    820.5563    148.2959 307.5959530  +6.6453012     1194.383     1894.409     1739.357     79.67043      158.899      317.956      1.668     4.27     860.4896     56.02264     171.9269        13     1.264     0.734  29.54   0
       567    624.8063    145.9147 307.6773690  +6.6397256     9203.563     14632.33     16267.18     79.16457      158.646     317.6083      1.669     4.16     862.6134     56.02264     1327.117        37     1.581     0.986  47.57   2
       568    628.3493    137.4334 307.6761827  +6.6433458     53341.33     81546.16     85814.54     79.54426     159.0254     317.7664      1.672     4.16     862.3015     56.02264      7635.07        67     1.673     1.063  43.91   2
       569    259.1101    146.0404 307.8293090  +6.6273854     743.3088     1029.724     1092.247     79.67042     158.9622     317.8612      1.546     4.09     875.3322     56.02264     107.7103         7     0.924     0.517  42.37   0
       570     23.3105    144.6119 307.9273256  +6.6200271     869.8402     1534.643     1236.407      79.4179      158.646     317.7032      1.906     6.33     882.4478     56.02264     135.8034        15     1.405     1.070 -66.01   0
       571    563.3473    145.5625 307.7029173  +6.6378090     475.7842     828.9908     660.9225     79.54426     158.9622     317.8296      1.545     3.47     862.5894     56.02264     84.42773         5     1.141     0.305  20.86   0
       572    351.9073    141.8638 307.7908943  +6.6322321      3568.09     5962.439     6176.672     79.67042     159.1516     317.8928      1.798     4.01     870.4177     56.02264     498.2441        26     1.378     1.151  31.28   0
       573    533.8306    140.9297 307.7153377  +6.6387308     1742.118      2517.57     2241.476     79.54426     158.9622      317.798      1.578     4.34     862.5552     56.02264     231.4469        18     1.349     0.845  39.00   0
       574    997.9368    140.2796 307.5225176  +6.6545424     786.4131      1217.98     1370.135     79.92214     159.0254     317.8296      1.821     4.53     855.5154     56.02264     139.5129        10     1.237     0.589  53.35   0
       575    307.4261    131.1100 307.8097393  +6.6351751     3492.709     5654.145     6106.552     79.79638     158.7093     317.6716      1.727     4.27     873.4996     56.02264     435.8801        27     1.599     0.913  39.77   0
       576    707.2020    125.3266 307.6438264  +6.6509874     1000.352     1325.545     1068.825     79.16457     158.5193     317.7032      1.592     4.66     861.7667     56.02264     152.9176         9     1.250     0.494  50.64   0
       577      5.0548    114.1737 307.9359423  +6.6319762     713360.3      1572333      1715561     79.29134     159.0254     291.4556      2.212     5.60     883.6973     56.02264     61144.77       347     2.249     1.728  56.47  28
       578    678.8646    124.7400 307.6556207  +6.6502797     1280.719     1922.376      1300.43     79.67042      158.899     317.8612      1.620     4.90     861.8642     56.02264     170.3202        12     1.394     0.593  38.46   0
       579    692.7067    121.4385 307.6499803  +6.6521067      3115.59     4787.121     4398.159     79.79638      158.899     317.8928      1.664     4.93     861.6867     56.02264     394.3171        23     1.577     0.827  43.70   0
       580    434.4938    112.3794 307.7575759  +6.6471806     4161.904     6414.812     6722.678     79.54426     158.7726     317.6716      1.692     4.22     864.4613     56.02264     573.9715        26     1.530     0.875  45.01   0
       581    907.0533    107.9621 307.5613678  +6.6648464     4051.809     6148.861     6157.964     79.54426     159.0254     317.8296      1.570     4.07     856.3878     56.02264     604.5699        25     1.526     0.859  46.53   0
       582    599.1613    106.4327 307.6893556  +6.6551647     1704.675     2741.805     2781.261     79.29134     158.7726     317.6083      1.640     4.59     861.2656     56.02264     229.3016        17     1.427     0.804  48.03   0
       583    587.4776    108.1897 307.6941511  +6.6540473     648.1229     966.0223     1130.156     79.29134     158.5827     317.6716      1.712     5.32     861.3756     56.02264     97.17303         9     1.399     0.571  23.22   0
       584    244.6651    105.3248 307.8366880  +6.6437072     790.2491     1299.707      1654.18     79.79638     158.9622      317.798      1.986     6.60     874.9553     56.02264     130.8333         9     1.469     0.832  24.40   0
       585    397.9582    104.1977 307.7730330  +6.6493301     1831.944     2926.818      2664.18     79.03761      158.646     317.5451      1.604     4.39     866.5206     56.02264     277.3551        16     1.358     0.738  43.10   0
       586    145.7944    101.2578 307.8779055  +6.6420553     3146.285     4958.645     5819.296     79.16457     158.8358     317.5451      1.683     4.33     875.4937     56.02264     428.4293        25     1.563     0.905  42.41   0
       587     27.7305     98.8953 307.9270392  +6.6390486     11973.18      19168.7     20658.56     79.54426     159.0254     317.8612      1.696     4.17     882.0728     56.02264      1576.51        44     1.721     1.003  44.70   0
       588    294.0166     99.6826 307.8163735  +6.6476977      1212.56     2083.841     2781.989     79.29134      158.646     317.7348      2.049     5.00     874.2391     56.02264     204.0831        15     1.517     0.676  42.64   0
       589    567.8082     98.8878 307.7026377  +6.6572274     669.7998     1067.301     960.1971     79.29134      158.646     317.5767      1.781     4.90     861.1714     56.02264     108.8303         7     1.016     0.691  30.88   0
       590    554.8883     98.8158 307.7080086  +6.6568235     702.1661     1159.617     1416.754      79.4179     158.7093     317.6716      1.777     4.99     861.2305     56.02264     93.98077         7     1.103     0.639  11.13   0
       591    948.6185     97.7107 307.5444405  +6.6704683     490.0266     608.8381     208.8866      79.4179     158.7093     317.7348      1.487     4.79     854.4992     56.02264     96.05841         6     1.419     0.459  48.86   0
       592    762.8425     98.3097 307.6216161  +6.6640049     727.2211     1197.316     1176.963     79.67042     158.9622     317.8928      1.711     3.79     860.1833     56.02264     115.5834         7     0.870     0.570  30.54   0
       593    829.4125     93.6371 307.5941116  +6.6681627     6263.904     9432.786     10129.76     79.16457     158.7726     317.5451      1.651     4.62     857.7839     56.02264     954.5015        28     1.533     0.824  42.50   0
       594    774.5416     93.8796 307.6169039  +6.6662256     3296.602     4800.387     4493.186     79.79638     158.9622      317.798      1.550     4.26     859.6368     56.02264     457.9358        20     1.486     0.790  43.91   0
       595    419.4236     94.1311 307.7644540  +6.6542074     1081.312     1678.138     1240.652     79.29134     158.8358      317.798      1.674     5.18     864.7672     56.02264     140.4784        14     1.302     0.830  32.13   0
       596    889.0770    108.8414 307.5688079  +6.6638822     2101.169     3372.514     3584.711     79.54426     158.9622     317.8928      1.692     4.75     856.6738     56.02264     306.4565        18     1.442     0.728  43.78   0
       597    761.5702     92.7313 307.6223326  +6.6662652     640.5733      950.294     1318.819      79.4179     158.9622      317.798      1.717     3.32     859.9424     56.02264     97.35742         5     0.736     0.442  67.76   0
       598    536.8640     92.0849 307.7157250  +6.6589972     1116.055     1757.606     2108.676     79.79638     159.0885     317.8296      1.520     5.07     861.2933     56.02264     156.0104        13     1.525     0.552  49.20   0
       599     52.5952     91.7644 307.9169500  +6.6428313      1088.64     1613.883     1330.223     78.78305     158.7726     317.6083      1.631     5.91     879.8408     56.02264     151.6344        14     1.355     0.725  51.11   0
       600     68.0767     90.8376 307.9105492  +6.6437362     3061.417      4877.04     5354.616     79.54426     159.0254     317.8296      1.645     3.94     878.6936     56.02264     432.8711        24     1.519     0.884  45.53   0
       601    656.6306     90.8335 307.6660017  +6.6635320     521.5721     714.0304     489.2886     79.16457     158.7093     317.5767      1.479     4.72     860.6453     56.02264     89.58435         6     1.242     0.509 -49.23   0
       602    429.2087     90.2901 307.7605179  +6.6561220     939.2435     1410.817     1576.639     79.29134      158.646     317.6083      1.663     3.83     864.4382     56.02264     150.8375        11     1.064     0.725  41.71   0
       603     10.5237     86.3508 307.9346136  +6.6436464     2555.138     4402.381     5815.405     79.54426     159.0254     317.8296      2.129     4.31     882.3274     56.02264     351.4128        25     1.549     0.989  49.93   0
       604    592.0134     87.6012 307.6929605  +6.6626991     1192.026     1744.564     1461.889     79.29134      158.646     317.6083      1.621     4.98     860.7711     56.02264     164.9273        13     1.371     0.739  33.18   0
       605     82.7635     82.1026 307.9047430  +6.6478375     871.8922     1562.702     1633.324     79.67042     158.8358     317.9876      1.900     6.37     877.1598     56.02264     126.2888        12     1.564     0.729  42.08   0
       606    769.0183     81.3474 307.6196208  +6.6712143     1945.999     3104.445     2760.268     79.16457     159.0254     317.6083      1.677     4.63     859.0759     56.02264     262.0697        16     1.356     0.760  47.48   0
       607    409.9601     81.2309 307.7688218  +6.6592148     1045.572     1665.087     1319.651     79.29134     158.7726     317.6716      1.587     4.99     865.4929     56.02264     138.9521        12     1.341     0.677  45.67   0
       608    660.9512     81.5762 307.6645183  +6.6674986     522.5288     930.7717     1019.229     79.29134     158.9622     317.7348      1.501     3.96     860.2151     56.02264     75.34467         5     0.910     0.494  -0.66   0
       609    107.0415     79.9229 307.8947296  +6.6495561     879.4369     1553.517     1846.386     79.54426     158.9622     317.8928      2.153     5.72     875.9168     56.02264     125.9572        12     1.466     0.628  44.60   0
       610     95.7762     75.0654 307.8995748  +6.6511815     9388.541     14762.12     15317.05     79.29134     158.9622     317.7664      1.657     4.18      875.994     56.02264     1229.635        38     1.622     0.974  46.52   0
       611    424.7043     74.8662 307.7629104  +6.6623379     2527.401     4148.006     3834.291     79.67042     159.0885     317.8612      1.708     4.23     864.5499     56.02264     349.0131        25     1.620     0.866  42.21   0
       612    246.4714     74.4879 307.8369807  +6.6564981      579.071       938.66     1247.577     79.79639     159.2147     317.8296      1.543     3.81     874.6598     56.02264     92.03021         6     0.973     0.429  73.01   0
       613    638.5114     67.1412 307.6743291  +6.6727053     18579.39     28432.39     29713.19     79.54426     158.9622      317.956      1.638     4.16     859.7993     56.02264     2597.922        48     1.650     0.999  45.15   0
       614    262.3151     68.9139 307.8305862  +6.6593325     1511.602     2364.036     3121.469      79.4179     159.1516     317.8928      1.764     3.76     874.5657     56.02264     227.2921        14     1.220     0.751  46.01   0
       615    538.3480     63.2576 307.7160808  +6.6709477     5254.613      7959.29     8176.227     79.67042     158.9622     317.8296      1.631     4.22      860.467     56.02264     726.6321        28     1.509     0.899  42.45   0
       616    256.3690     63.3354 307.8332455  +6.6614353     1844.544      2942.01     4306.419      79.4179     159.0254     317.7664      2.027     4.94     874.5494     56.02264      274.922        19     1.475     0.811  46.34   1
       617    624.9547     57.7076 307.6802803  +6.6761451     3031.587     5528.206     6739.989     79.67042      158.899      317.956      2.149     6.92     859.6992     56.02264     416.4528        34     2.206     0.999  60.01   0
       618    443.8535     58.8097 307.7554957  +6.6696100     22301.52      34907.8     36162.49     79.03761      158.899     317.5451      1.644     4.07     863.5797     56.02264     3001.945        50     1.648     1.019  45.93   0
       619      5.7155     61.2098 307.9374639  +6.6538625     1237.039     2025.084     2071.415     79.29134      158.646     298.5707      1.675     5.77      880.269     56.02264     184.4183        13     1.459     0.642  50.53  16
       620    264.4496     59.1398 307.8300299  +6.6634393       9219.3     14612.75     15659.67     79.67042      158.899     317.8928      1.707     4.00     874.5034     56.02264     1248.221        38     1.635     1.005  41.66   0
       621     29.6610     58.6743 307.9276007  +6.6557174     2286.438     3311.035     3422.413     79.92214     158.9622     317.8296      1.619     4.03     878.8051     56.02264      352.289        22     1.635     0.877  46.84   0
       622    921.6961     58.7858 307.5569359  +6.6856378     2127.771     3175.517     3300.854      79.4179     158.7093     317.6083      1.574     4.44      854.771     56.02264      328.132        18     1.422     0.723  48.89   0
       623    324.3592     59.6340 307.8051200  +6.6652516     1071.555     1529.189     1876.874      79.4179     158.9622       317.64      1.662     5.44     872.5283     56.02264     131.7805        12     1.221     0.684  42.37   0
       624    556.5682     58.1169 307.7086832  +6.6736815     516.0486     833.2932     1134.398     79.67042     158.7726     317.7032      1.961     5.15     860.1238     56.02264     90.48993         8     1.433     0.523  57.52   0
       625    528.4677     58.6338 307.7203423  +6.6725248     537.9464     833.1285     787.8583     79.54426     159.0254     317.9244      1.478     3.37     860.5989     56.02264     106.9402         5     1.060     0.310  67.32   0
       626    252.1788     55.7130 307.8352444  +6.6644408     2917.576     4891.303     5983.251     79.67042     158.7093     317.7032      1.919     4.47     874.5145     56.02264     367.6684        26     1.544     0.971  49.12   0
       627    305.2760     53.9029 307.8132431  +6.6669754     1064.089      1841.25     2026.414     79.29134     159.1516     317.8612      1.856     6.19     873.5775     56.02264     129.0473        15     1.305     0.825  56.52   0
       628    942.1747     49.0486 307.5487532  +6.6903424     993.4008     1555.334     2134.586     79.29134     159.0254     317.7348      1.664     4.34      853.575     56.02264     154.9897         8     1.098     0.489  37.17   0
       629    693.6881     48.2473 307.6520378  +6.6823552     1809.066     2661.564     2297.083     79.67042     158.8358     317.8928      1.510     4.45      858.079     56.02264     273.8041        16     1.458     0.690  41.49   0
       630    204.8042     43.9456 307.8553273  +6.6677031      710.524     1220.926     591.2391     79.03761     158.7093     317.5135      1.769     5.06     874.4071     56.02264     127.8671         9     1.216     0.795  52.01   0
       631    181.9521     41.2225 307.8649148  +6.6680573     10496.44     16672.15     17239.77     79.29134     158.9622     317.7032      1.677     4.32     874.3096     56.02264     1426.781        41     1.669     1.001  44.51   0
       632    258.6556     42.7543 307.8329916  +6.6700085     790.7338     1331.309     1886.984     79.67042     158.9622     317.8296      1.957     4.82     874.4203     56.02264     111.1319        10     1.103     0.676  48.18   0
       633    526.1780     39.4163 307.7219422  +6.6803814      2886.99     4495.886     4561.098     79.29134     158.7726     317.7664      1.615     4.25     860.0818     56.02264     433.5133        22     1.447     0.870  44.41   0
       634    927.5722     39.0428 307.5551575  +6.6939849     4126.687     5948.524     5935.522     79.29134     159.0254     317.7032      1.515     4.19     854.2719     56.02264     629.6599        23     1.480     0.751  42.45   0
       635    728.4197     37.6227 307.6379632  +6.6879053     2103.129     3032.509     2958.146      79.4179      158.899     317.7664      1.557     4.15     856.9198     56.02264     345.3957        18     1.371     0.774  41.64   0
       636    464.4651     37.6964 307.7476440  +6.6790186       1757.7     2658.419     2639.286     79.67043     159.0885     317.8612      1.665     4.66     862.1232     56.02264     253.1995        15     1.401     0.678  47.69   0
       637    992.2551     35.1149 307.5284101  +6.6977685      2007.96     3278.191     3426.068     79.67042     158.9622     317.9876      1.776     4.74     849.5254     56.02264     299.4368        24     1.662     0.932  64.94   0
       638    711.7744     31.7909 307.6450764  +6.6897551     7293.562     11378.41     12550.64     79.29134     158.7726     317.7032      1.607     4.26     856.8146     56.02264     1086.116        32     1.597     0.872  44.75   0
       639    631.7980     31.0031 307.6783368  +6.6873990     3688.834     5501.277     5321.541     79.03761     158.5193     317.5767      1.579     4.15     858.6587     56.02264      564.779        23     1.467     0.841  37.20   0
       640    334.2001     30.6635 307.8020102  +6.6775423     947.9976     1549.374     2144.582     78.91043     158.7093     317.5451      1.820     6.31     872.2834     56.02264     125.9388        14     1.453     0.770  58.52   0
       641     33.0821     26.8203 307.9272592  +6.6689824     8389.885     13154.74     13698.87      79.4179      158.646     317.7664      1.651     4.02     876.0814     56.02264     1115.721        36     1.601     0.968  45.59   0
       642    432.0270     27.1303 307.7614798  +6.6822905     6200.676     9784.062     10031.89     79.29134     158.8358     317.7664      1.631     4.17     864.0118     56.02264     835.0993        32     1.591     0.937  45.51   0
       643    387.6394     28.6747 307.7798720  +6.6801607     706.6115     1040.477     1275.442     79.54426     158.9622     317.8612      1.673     5.12     867.9213     56.02264     111.2678         5     1.033     0.717  30.95   0
       644    678.9376     25.8646 307.6589213  +6.6911010      833.493     1284.137         1311     79.67042     158.9622     317.8612      1.940     5.18     857.1142     56.02264     112.4921        10     1.352     0.561  39.84   0
       645    507.9730     24.4363 307.7300125  +6.6859542     896.2753     1267.123     1035.293     79.16457      158.646       317.64      1.542     5.41     860.0577     56.02264     115.7758        10     1.205     0.685  53.58   0
       646    424.0596     23.6399 307.7649084  +6.6834636     769.8035     1242.041     1169.271     79.67042     158.9622     317.9244      1.790     6.19     864.5413     56.02264     121.9512        11     1.623     0.664  49.28   0
       647    814.0220   1021.7079 307.5693083  +6.2845004     997.4561     1461.566     1307.631     79.67042     151.1241      269.058      1.647     4.64     888.0497     56.02264      145.867        11     1.269     0.611  43.59  16
       648    102.2510     22.4017 307.8986688  +6.6731400     2459.681     4066.826     3949.098     79.03761     158.5827     317.4185      1.695     4.59     873.7178     56.02264     350.3823        22     1.507     0.852  44.47   0
       649     93.4532     21.1683 307.9023662  +6.6733524       1604.5     2378.291     2063.661     79.54426     159.0254     317.7348      1.579     4.78     873.7711     56.02264     227.3683        18     1.456     0.822  42.49   0
       650    796.9670     21.0032 307.6100378  +6.6970623     868.9913      1258.21     1017.474     78.91043     158.7726     317.5451      1.322     5.28     855.8314     56.02264     167.4652        11     1.371     0.575  36.11   0
       651    270.0261   1019.6772 307.7952482  +6.2670912     794.6257     1422.754     1410.605      79.4179     158.9622     294.5406      1.782     5.15     894.6189     56.02264     165.0546        11     1.413     0.740  29.21  16
       652    914.3391   1016.1676 307.5278402  +6.2901422      8042.62     13445.92     14322.94      79.4179     159.0254     317.7664      1.822     4.21     885.8608     56.02264     983.7417        40     1.718     1.084  44.49  16
       653    990.1268     16.9880 307.5299034  +6.7051808      626.798     1100.229     716.7098     79.16457     158.5827     317.6716      1.524     4.34      848.919     56.02264      99.6344         6     1.195     0.449  36.63   0
       654    888.0173   1012.3577 307.5388976  +6.2908352     11225.47      19628.3     21991.96     79.16457     158.7726     317.5767      1.906     4.50      886.873     56.02264     1447.255        57     1.913     1.192  40.43  16
       655    533.3718     15.3617 307.7197645  +6.6905532      1415.49     2043.809     1552.715     79.16457     158.7093     317.7032      1.608     4.36     859.2511     56.02264     187.9274        16     1.218     0.923  27.16   0
       656   1009.5598   1011.7830 307.4884487  +6.2951333     4423.177     7734.027     8222.521     79.29134     158.7726       317.64      1.862     4.47       884.49     56.02264     476.3303        34     1.697     1.076  40.03   0
       657    600.7419   1012.7728 307.6581666  +6.2810466     1296.504      2167.71     2033.336     79.29134     159.0254     317.7032      1.670     4.45     893.1265     56.02264     167.7505        14     1.378     0.762  46.77   0
       658    532.2354   1011.3239 307.6866602  +6.2793473     4076.274     6359.153     6722.749     79.54426     159.0254     317.8612      1.697     4.31      894.261     56.02264     523.0617        31     1.643     1.033  27.17   0
       659    641.7701   1010.5200 307.6412068  +6.2833518     1430.045     2134.317     2229.746     79.54426     158.9622      317.798      1.634     4.56     891.5813     56.02264     236.2643        17     1.336     0.859  38.98   0
       660    431.9952     13.1237 307.7619660  +6.6880716      663.592     936.0603      1420.11     79.29134     158.4559     317.6716      1.756     3.92     863.9394     56.02264     94.58722         6     0.927     0.474  33.94   0
       661    485.0211   1007.8660 307.7063805  +6.2791905     2107.989     3263.968     3864.927     79.29134     158.9622     317.7348      1.626     4.14     894.4241     56.02264     285.0452        17     1.310     0.847  58.40   0
       662     66.7793   1010.1128 307.8799570  +6.2641972     694.3402     843.7709      1031.48     79.54426     158.7093     317.7032      1.512     5.11     894.6035     56.02264     92.17328         9     1.272     0.580  33.85   0
       663    919.7112    999.9109 307.5261550  +6.2970332     40114.16     68016.77      72439.8      79.4179     159.4668     317.9244      1.825     4.24       885.49     56.02264      5032.15        78     1.831     1.247  46.22   0
       664    227.0912    998.2248 307.8137993  +6.2745030     1857.339     2913.837     2888.688     79.79638     158.7726     317.6716      1.665     4.11     894.4988     56.02264     276.4186        19     1.444     0.854  58.67   0
       665    625.6184    996.2261 307.6483943  +6.2887116      900.855     1152.087     957.6085     79.29134     158.7726     317.7348      1.453     5.40     891.7999     56.02264      121.814        11     1.127     0.730  45.77   0
       666    114.9912    997.2303 307.8603760  +6.2711397     594.5351     1006.234     904.4399     79.16457     158.7726       317.64      1.623     3.42     894.5168     56.02264     97.04034         6     0.889     0.476  37.02   0
       667    817.7255    993.8698 307.5687056  +6.2961171     2197.624     3626.916     3812.759     79.79638     159.0885     317.8296      1.775     4.44     887.6632     56.02264     302.8543        20     1.431     0.867  44.17   0
       668    765.7783    991.4589 307.5903567  +6.2953742      6571.14      10595.1     11332.84     79.29134      158.899     317.6716      1.741     4.17     888.5729     56.02264     815.2806        35     1.624     1.081  42.13   0
