#   1 NUMBER                 Running object number                                     
#   2 X_IMAGE                Object position along x                                    [pixel]
#   3 Y_IMAGE                Object position along y                                    [pixel]
#   4 ALPHA_J2000            Right ascension of barycenter (J2000)                      [deg]
#   5 DELTA_J2000            Declination of barycenter (J2000)                          [deg]
#   6 FLUX_APER              Flux vector within fixed circular aperture(s)              [count]
#   9 FLUXERR_APER           RMS error vector for aperture flux(es)                     [count]
#  12 FLUX_RADIUS            Fraction-of-light radii                                    [pixel]
#  13 FWHM_IMAGE             FWHM assuming a gaussian core                              [pixel]
#  14 BACKGROUND             Background at centroid position                            [count]
#  15 THRESHOLD              Detection threshold above background                       [count]
#  16 FLUX_MAX               Peak flux above background                                 [count]
#  17 ISOAREA_IMAGE          Isophotal area above Analysis threshold                    [pixel**2]
#  18 A_IMAGE                Profile RMS along major axis                               [pixel]
#  19 B_IMAGE                Profile RMS along minor axis                               [pixel]
#  20 THETA_IMAGE            Position angle (CCW/x)                                     [deg]
#  21 FLAGS                  Extraction flags                                          
         1   1005.5638     18.9272 307.5286514  +6.6978706      1807.42     3260.969     2819.011     78.31448     156.5046     312.9159      1.879     5.98     828.3141     55.15651     233.7747        22     1.614     0.946  43.35   0
         2    724.9436     15.5305 307.6453521  +6.6898979     7473.795     11099.18     11352.21     78.56271     156.3801     312.8848      1.623     5.01     830.6721     55.15651      1136.01        26     1.554     0.781  43.00   0
         3    645.0914     14.6650 307.6785561  +6.6875825     3801.185     5778.713     5800.875     78.31448     156.6911     312.9159      1.606     4.94     830.1831     55.15651     581.4329        23     1.538     0.787  46.98   0
         4    347.4385     14.6127 307.8022149  +6.6776215      1005.11     1477.425     1676.035     78.06547     156.3179     312.6358      1.734     5.33      835.966     55.15651     140.1314        11     1.328     0.604  43.49   0
         5    400.6700     13.0635 307.7801532  +6.6800487       621.42     749.9343     895.0404     78.43869     156.5046      312.947      1.573     5.19      833.061     55.15651     116.8837         9     1.665     0.458  40.14   0
         6    445.3663     11.0731 307.7616521  +6.6823706     6466.485     9914.364     10540.81     78.31448     156.4424     312.9159      1.701     5.13      831.041     55.15651     948.5429        29     1.616     0.823  40.01   0
         7     46.2522     10.6733 307.9274676  +6.6691156     8619.624     13559.26      13872.2     78.43869     156.5668      312.947      1.697     5.11     828.5281     55.15651     1203.387        31     1.675     0.856  43.29  16
         8    692.2719      9.7801 307.6591197  +6.6911789     960.3318     1297.635     1266.616     78.06547     156.3801     312.8537      1.598     5.95     830.3088     55.15651     159.9966        11     1.373     0.726  31.59   0
         9    521.0786      8.1560 307.7302967  +6.6861146     914.1023     1555.103     2149.914     78.31448     156.5046     312.0748      1.896     5.13     829.0054     55.15651     174.3021        10     1.424     0.522  41.67  16
        10    341.8412      5.9853 307.8048324  +6.6809956     12948.08     20268.95     21305.46     77.94067     156.3179     296.5595      1.651     4.99     836.0826     55.15651     2125.481        38     1.630     0.931  43.69  16
        11    115.4388      6.3853 307.8988721  +6.6732163     2455.778       3729.1     3757.259     78.19008     156.3179     300.1812      1.661     5.04     830.0837     55.15651     350.6868        20     1.501     0.797  44.34  16
        12    436.8979      6.7825 307.7653153  +6.6838580     840.3144     1376.446     2449.952     78.43869     156.3179     303.4711      2.258     5.13     831.2088     55.15651     119.7884         9     1.216     0.612  38.05  16
        13    106.9216      5.3213 307.9024464  +6.6733688     1628.381     2375.713     2603.832     78.68652     156.7532     290.0205      1.561     4.59     829.9109     55.15651     235.4697        17     1.386     0.836  42.92  16
        14    810.5604      4.6031 307.6101505  +6.6972731     812.4631     1133.493     952.4009     77.56505     156.1933     281.6765      1.656     5.11     830.4579     55.15651     126.4695        10     1.345     0.549  42.14  16
        15    407.9324      3.9710 307.7774439  +6.6840466      2344.72     3870.908     3969.901     78.19008     154.1859      274.003      1.748     5.13     832.4678     55.15651     423.7164        19     1.556     0.808  38.77  16
        16    476.3904      3.8994 307.7490060  +6.6863734     530.2166     645.8809     621.1615     78.19007     153.4263     272.9707      1.353     3.84     829.6572     55.15651     96.54651         6     1.224     0.346  41.39  16
        17    669.8423      1.1843 307.6687283  +6.6939773     3203.513     3564.694      3694.41     65.74509     121.8048     232.8624      0.814     1.62     829.8702     55.15651     1309.305         9     0.919     0.388   0.70  24
        18     87.8391      1.2886 307.9105105  +6.6743912     481.1887     427.6549     354.5913     67.64267     123.7081     234.8191      1.095     3.81     829.2524     55.15651     97.89038         6     1.014     0.410  11.99  24
        19    545.8228    995.2587 307.6866823  +6.2793710     3964.003     6799.088     7398.998     78.06547     156.5046     312.7914      1.860     4.90     862.8734     55.15651     498.6671        30     1.719     1.000  29.86   0
        20    973.3004   1021.3311 307.5083481  +6.2828930     5215.111     9948.678        10790     78.43869      152.216     270.1385      2.022     5.00     861.3756     55.15651     592.5688        41     1.845     1.217  41.52  24
        21    727.7429   1022.1389 307.6102578  +6.2743597     962.1656     1383.495     1961.542     78.56271     144.4722     259.1018      1.711     4.76     861.8266     55.15651     115.3917        10     1.043     0.716  51.15  24
        22    257.8455   1021.4863 307.8053369  +6.2588831     1271.709     2182.704     2139.274     78.43869     150.7378     268.0765      1.823     5.91      861.235     55.15651     158.6071        17     1.465     0.851  53.42  24
        23    655.1516    994.3823 307.6413272  +6.2833927     1320.364     2350.481     2236.589     77.94067     156.5668      312.698      1.843     5.46     862.5306     55.15651      239.717        18     1.681     0.721  35.10   0
        24     80.6691    993.8878 307.8798157  +6.2643225     810.8146      1324.53     1339.749     78.43869     156.7532      312.947      1.715     5.96     857.0038     55.15651     122.4816        10     1.392     0.718  42.15   0
        25    498.7747    991.5403 307.7063383  +6.2793302     2032.118     3491.285     3576.438     78.06547     156.5046     312.7914      1.805     5.16     862.3878     55.15651      312.905        21     1.622     0.863  45.79   0
        26    933.2331    983.7153 307.5262456  +6.2970884     36828.22     67914.21     73081.95     78.43869     156.3179     312.8848      1.962     4.77     860.4743     55.15651     4471.153        75     1.921     1.259  43.95   0
        27    338.2281    984.8071 307.7732108  +6.2767265     518.8333     690.6389     735.0278     77.94067     156.3179     312.7292      1.899     3.46     861.6906     55.15651     78.27063         5     0.995     0.348  46.65   0
        28      6.0603    983.5891 307.9111341  +6.2660636     2787.259     4953.307     4644.735     77.81566     156.3801     297.1826      1.854     5.43      856.063     55.15651     358.4426        25     1.602     0.955  45.24  16
        29    240.4536    981.9788 307.8138932  +6.2746113      1624.78     2670.536     2578.483     77.94067     156.5046     312.7292      1.733     4.92     860.0795     55.15651     226.7984        20     1.520     0.818  36.52   0
        30    128.6620    981.3321 307.8603198  +6.2711209     688.2243     832.0507     253.0842     78.43869     156.4424     312.9159      1.525     5.22     857.3436     55.15651     93.92236         8     1.120     0.688  32.50   0
        31    779.4163    975.2821 307.5903846  +6.2954343     5856.935     10508.55     11827.64     78.06547     156.1933     312.7914      1.915     4.70     861.1149     55.15651     683.1262        35     1.724     1.036  46.38   2
        32    639.1766    979.8288 307.6484494  +6.2888674      772.337     1485.416     1506.963     77.94067     156.3801     312.7603      1.871     5.64     862.4503     55.15651     133.0624         8     1.445     0.620  34.97   0
        33    831.2383    977.5815 307.5687939  +6.2962162     2094.135      3512.98     3475.757     78.06547     156.3801      312.698      1.785     5.05     860.7256     55.15651     241.5854        22     1.517     0.959  46.84   0
        34    566.4572    975.2626 307.6787912  +6.2883185     934.5359     1509.043     1588.807     78.56271     156.4424      312.947      1.797     5.12     862.6121     55.15651     137.6807        10     1.428     0.520  44.51   0
        35    248.7652    974.6243 307.8106919  +6.2779271     1418.528     2285.988     2781.691     77.94067     156.3179      312.698      1.705     5.55     859.9688     55.15651     189.9943        16     1.395     0.802  33.20   0
        36    212.8144    973.8499 307.8256415  +6.2770391     950.7726     1538.681     1567.578     77.81566     156.4424     312.6358      1.621     5.20       859.21     55.15651      135.914        11     1.295     0.623  35.68   0
        37     73.6395    972.4295 307.8834611  +6.2729458     2410.697     4060.692     4693.092     77.94067     156.1933     312.7603      1.839     4.89     856.3777     55.15651     312.1683        25     1.556     0.977  44.66   0
        38    967.5905    970.4844 307.5124271  +6.3036977     5740.906     10570.18     11311.59     78.06547     156.1933     312.7603      1.964     4.72     860.1371     55.15651     677.0958        42     1.797     1.213  42.32   0
        39    223.6546    966.6514 307.8213854  +6.2803755     565.2993     973.8623      922.542     78.56271     156.5046      312.947      1.671     4.64     859.1946     55.15651     125.3717         5     1.493     0.408  45.10   0
        40    941.3598    962.1774 307.5235958  +6.3062527     1755.695     3339.032     3328.143     78.06547     156.3179      312.698      1.988     5.08     860.0729     55.15651     202.2215        22     1.560     0.948  39.62   0
        41    662.0016    958.0178 307.6397092  +6.2986369     4222.128      7206.88     7191.649     78.06547     156.0686     312.6358      1.772     4.89     861.9883     55.15651     552.2764        32     1.628     1.016  42.57   0
        42    274.2764    958.2429 307.8006563  +6.2855477     4183.352     6983.225     7168.238     78.31448     156.5046      312.947      1.777     4.77     860.1293     55.15651      569.939        31     1.595     1.031  40.13   0
        43    801.1131    958.3156 307.5819485  +6.3031649     1133.067     1913.844     2215.542     78.19007     156.6911     312.9781      1.955     4.92     860.7155     55.15651     162.0264        13     1.459     0.618  47.92   0
        44    484.2893    956.4588 307.7135359  +6.2933300     1177.228     2191.574     2309.862     78.31448     156.5046     313.0403      1.887     6.22     862.1314     55.15651     156.4552        16     1.551     0.742  55.00   0
        45     42.8342    955.9406 307.8968073  +6.2787172     1928.706     3410.502     3463.403     78.31448     156.5046     312.8537      1.836     5.20     855.7916     55.15651     243.7783        21     1.523     0.974  42.15   0
        46    894.1389    954.1863 307.5434682  +6.3079765     736.5875     1356.195     1701.929     77.94067     156.3801      312.698      2.125     6.08     860.0659     55.15651     120.7573         9     1.292     0.803  64.93   0
        47    586.8381    950.7451 307.6711576  +6.2991243     1623.995     2589.277     2341.873     78.43869     156.5668      312.947      1.664     4.86     862.2705     55.15651     237.3824        18     1.504     0.820  44.41   0
        48    310.3337    951.8326 307.7859052  +6.2894052     745.3001     1376.615     1058.008     78.31448     156.5668     312.8848      1.668     5.86     860.7263     55.15651     115.6526        12     1.402     0.690  46.01   0
        49   1018.4581    950.6957 307.4919742  +6.3135650      762.145     1403.484     1400.323     78.31448     156.5046     301.8306      2.016     7.06     859.3486     55.15651     88.36102        11     1.485     0.940  74.22  16
        50     75.1676    947.7480 307.8836635  +6.2831878     705.1155     1464.344     2071.043     78.31448     156.5046     312.8225      2.376     7.65     855.7777     55.15651      122.606        11     1.980     0.826  24.13   0
        51    626.2989    947.2132 307.6548951  +6.3019035     1095.386     1648.147      1294.02     78.19008     156.2556      312.698      1.639     5.36     862.0737     55.15651     170.4753        12     1.375     0.691  45.28   0
        52    305.9081    944.8771 307.7879777  +6.2921285     1607.032     2440.995     2724.903     78.19008     156.7532     312.9159      1.725     5.28     860.6168     55.15651     212.7198        17     1.424     0.785  40.92   0
        53    573.9821    943.0720 307.6767534  +6.3018621      640.312     909.8552     742.3077     77.94067     156.4424     312.8537      1.522     5.94       862.18     55.15651     104.9462         8     1.507     0.658  86.08   0
        54    772.8501    940.8732 307.5942690  +6.3094226     816.9334     1362.418     851.0146     78.43869     156.5668      312.947      1.706     5.31     860.8214     55.15651     119.9668        10     1.531     0.521  58.93   0
        55    910.3768    937.4207 307.5372908  +6.3154412     6202.311     10888.09     11344.17     78.19008     156.3179     312.8537      1.887     4.80     859.7837     55.15651     748.5341        38     1.734     1.088  39.11   0
        56    446.4048    934.8427 307.7299930  +6.3009853     2147.259     3520.694     3549.182     77.81566     156.1933     312.6046      1.733     4.49     861.4315     55.15651      279.717        22     1.561     0.951  46.86   0
        57    347.8510    932.9230 307.7709705  +6.2984721     9072.561     14581.03     15133.85     78.43869     156.5668     312.8848      1.709     4.79     860.6631     55.15651     1229.169        34     1.616     0.956  43.92   0
        58    267.8964    931.8901 307.8041965  +6.2962143     6811.502     10896.31     11683.36     78.43869     156.9394     312.9159      1.714     4.81     859.5029     55.15651     878.6806        32     1.602     0.948  43.86   0
        59    595.9937    926.3686 307.6681790  +6.3094959     1090.554     1699.547     1689.092     77.81566     156.3179      312.698      1.717     5.29     861.8771     55.15651     160.5206        14     1.520     0.696  46.23   0
        60    779.9528    925.1807 307.5918487  +6.3161395     666.4929     998.2939     734.2741     77.94067     156.5046     312.7292      1.662     6.35     860.5333     55.15651     110.2729         9     1.544     0.733  44.65   0
        61    926.1572    922.0982 307.5312546  +6.3222946     926.5747     1530.357     1732.538     78.43869     156.3801     313.1336      1.791     5.70     859.4153     55.15651       124.59        11     1.319     0.694  57.15   0
        62    158.6807    922.7328 307.8498441  +6.2963252     634.3119     1046.758     689.9316     78.56271     156.7532      312.947      1.651     3.64      856.864     55.15651     116.9197         5     0.980     0.598  29.75   0
        63    424.6080    920.7397 307.7395180  +6.3060775     621.0549     1066.998       822.46     77.81566     156.3179     312.6669      1.873     5.96     860.6027     55.15651     114.7576         9     1.617     0.619  43.24   0
        64    881.2457    920.7512 307.5499454  +6.3213518     510.2452     1066.932     664.8768     78.43869     156.3801      312.947      2.160     5.82     859.6378     55.15651      87.9104         7     1.638     0.583  28.36   0
        65    762.4186    915.4236 307.5994566  +6.3195823     1669.213      2997.19     3204.274     78.19008     156.4424     312.8537      1.954     5.28     860.5767     55.15651     238.8893        22     1.671     0.876  45.51   0
        66    586.2312    915.7160 307.6725912  +6.3135676     662.0431     1307.304     1205.723     78.43869     156.3179     312.7914      2.041     5.00     861.6477     55.15651      97.4101         7     1.604     0.441  35.60   0
        67     12.6521    912.6202 307.9108053  +6.2955874     804.0656     1329.708      1248.01     77.94067     156.5668     312.7292      1.739     5.03      854.136     55.15651     139.3123         8     1.117     0.641  35.90   0
        68    638.3094    911.7396 307.6511051  +6.3169527     506.4582     548.0712     560.1915     78.31448     156.5668     312.9781      1.400     3.50      861.282     55.15651     88.18744         5     1.276     0.277  35.13   0
        69    626.2783    911.8844 307.6560949  +6.3164902     718.7589      1101.89     1066.778     78.56271     156.8153     313.0403      1.666     5.02     861.3789     55.15651     120.5986         8     1.490     0.478  27.28   0
        70    547.3703    911.2977 307.6888732  +6.3140905     1116.583     1628.629     1664.069     78.56271     156.2556      312.947      1.606     5.89     861.5778     55.15651     155.8123        13     1.498     0.653  36.84   0
        71    993.6072    910.9661 307.5036260  +6.3291412      1110.15     1888.911     2079.853     77.94067     156.3179      312.698      1.766     5.43      858.196     55.15651     190.1456        12     1.338     0.696  26.85   0
        72    680.8990    908.8494 307.6335213  +6.3195710     2198.686     3717.482     3994.514     78.43869     156.4424     313.1025      1.837     5.23     860.8882     55.15651     299.9317        19     1.515     0.797  40.79   0
        73    842.1367    905.7352 307.5666870  +6.3262461     812.7159     1376.541     1055.584     78.43869     156.5046      312.947      1.731     5.86     859.7191     55.15651     124.2085        12     1.430     0.677  44.42   0
        74     77.5863    905.0350 307.8841075  +6.3009048     2646.357     4506.706     5036.975     77.94067     156.3179     312.7914      1.893     5.20      854.407     55.15651     344.5267        24     1.577     1.000  56.33   0
        75    221.0009    904.0914 307.8246049  +6.3061168     2082.738     3627.678     3871.031     77.69045     156.0062      312.698      1.859     4.84     857.4013     55.15651     291.1206        19     1.558     0.811  43.02   0
        76     94.8856    904.3062 307.8769510  +6.3017878     1806.265     2992.421     3195.672     78.43869     156.9394     313.0092      1.806     5.07     854.5756     55.15651     222.6078        17     1.478     0.780  41.61   0
        77    958.8231    903.6407 307.5183134  +6.3310058     611.8338     1117.854     1288.684     78.06547     156.3179      312.698      1.616     4.07     858.4331     55.15651     81.60699         6     1.179     0.402  32.45   0
        78    359.9301    899.9008 307.7670725  +6.3125122     970.3633      1554.06     2382.803     78.31448      156.629      312.947      2.106     5.83     859.4243     55.15651     172.4393        12     1.411     0.678  40.75   0
        79    255.3187    900.5311 307.8104791  +6.3087398     693.3361     944.7424     838.1771     78.68652     156.7532      312.947      1.715     5.09     858.4319     55.15651     109.1399         7     1.269     0.577  42.52   0
        80    675.5188    897.9899 307.6361210  +6.3238750     6685.659     10935.38     11292.02     78.06547     156.1933     312.7603      1.734     5.08     860.5659     55.15651     803.2205        32     1.634     0.938  45.39   0
        81    813.2604    899.1053 307.5788985  +6.3280191     744.7888     970.9579     1120.649     78.31448     156.5046     313.0092      1.568     5.02     859.7759     55.15651     107.5367         8     1.252     0.569  28.46   0
        82    465.2639    895.9913 307.7234761  +6.3176593     635.3295      653.722     618.1542     77.94067     156.2556     312.7603      1.435     5.12      860.729     55.15651     100.9454         7     1.078     0.689  77.46   0
        83     35.7631    896.2443 307.9017671  +6.3031268     1144.661     1957.135     1989.882     78.19008     156.5046     312.7914      1.768     7.05     853.4366     55.15651     144.4147        17     1.503     0.927  34.14   0
        84    913.4573    894.3691 307.5374595  +6.3333204     2567.917     4302.368     4336.583     78.31448     156.5046     312.8225      1.773     5.08     858.7957     55.15651     323.8083        22     1.624     0.845  40.29   0
        85     48.4115    894.7214 307.8965682  +6.3041814      1064.07     1880.401     1807.522     78.06547     156.1933     312.7603      2.025     5.67     853.5691     55.15651     148.9047        12     1.350     0.671  48.13   0
        86     93.2766    892.4492 307.8780209  +6.3066293     1291.962     1906.829      1637.67     78.31448     156.5668     312.9159      1.696     4.35     854.1692     55.15651     194.0612        14     1.257     0.837  57.41   0
        87    358.5480    891.1718 307.7679414  +6.3160700     15935.57     25222.53     26096.05     78.19008      156.629     312.8225      1.714     4.84     859.0578     55.15651     2065.938        42     1.666     0.953  42.98   0
        88    409.6731    890.3767 307.7467441  +6.3181135     604.8947     819.4153     936.0131     78.06547     156.3179     312.8537      1.704     5.54     859.0769     55.15651     93.93463         7     1.432     0.604  49.53   0
        89    229.1608    890.5582 307.8216756  +6.3119787      1074.07     1857.954     1814.743     78.19008     156.5668     312.7914      1.809     6.31     857.5762     55.15651     176.0329        16     1.384     0.939  24.78   0
        90    436.3146    881.9292 307.7359694  +6.3224949     929.1343     1595.356     1705.517     78.56271     156.7532      312.947      1.838     5.52     859.3587     55.15651     135.4291        11     1.528     0.562  51.91   0
        91    121.8913    881.9500 307.8664980  +6.3119269     1685.074      2645.02      3004.73     78.43869     156.3179     313.1025      1.671     4.36     854.6679     55.15651     251.1989        17     1.397     0.759  41.55   0
        92    689.7796    878.1835 307.6308680  +6.3325302      846.807     1738.336     2785.585     78.19007     156.3179     312.8225      2.515     5.78     859.9844     55.15651      122.988        11     1.605     0.587  36.31   0
        93    517.0799    878.7156 307.7025480  +6.3265290     679.2308     1098.324     1066.852     78.31448     156.8153     313.0092      1.456     4.36     860.7484     55.15651     114.2545         8     1.374     0.394  22.77   0
        94    903.7579    875.9583 307.5421055  +6.3405988     1792.491     3020.845     3230.028     78.19007     156.5046     312.7914      1.833     5.16     858.5349     55.15651     228.8652        19     1.530     0.869  38.44   0
        95    874.2584    875.4907 307.5543687  +6.3398070     1781.597     3127.841     2779.144     78.31448     156.5046     313.0403      1.797     5.85     859.1276     55.15651     246.8171        22     1.766     0.829  43.01   0
        96    105.3077    875.4582 307.8736024  +6.3140494     2354.742     3930.962     4293.406     78.31448     156.4424     313.0403      1.769     4.33     853.9579     55.15651     349.8607        22     1.489     0.929  36.46   0
        97    837.7476    874.8235 307.5695495  +6.3388633     2790.497     4610.476     4947.682     77.94067     156.5046     312.7914      1.728     4.67     859.3685     55.15651     349.7217        23     1.570     0.899  37.57   0
        98    353.1747    873.4405 307.7707716  +6.3232109     790.6135     1030.108     1436.462     78.06547     156.3179      312.698      1.614     5.25     858.3259     55.15651     123.2309        11     1.388     0.631  49.31   0
        99    573.6368    866.3763 307.6794844  +6.3335184     327756.5     517643.9     539948.5     78.06547     156.2556      312.698      1.730     4.82     860.4094     55.15651      41963.5       168     1.813     1.159  44.07   0
       100    467.0033    871.9688 307.7235654  +6.3276365      495.513     693.8976     1187.264     77.94067     156.3179      312.698      1.864     3.75      860.072     55.15651     79.74133         5     1.061     0.381  55.76   0
       101    661.3837    869.5676 307.6429474  +6.3351378     981.7531       1666.5     1581.264     78.06547     156.2556     312.7914      1.808     6.62     859.8561     55.15651     138.8154        14     1.524     0.806  41.62   0
       102    417.8999    868.9889 307.7440515  +6.3272204     7407.484     11777.46     11867.44     78.19008     156.1309      312.698      1.664     4.72     858.2129     55.15651     1020.156        34     1.644     0.899  41.87   0
       103    361.0673    867.3782 307.7677000  +6.3259789     12269.09     19712.14     20406.32     78.06547     156.4424     312.8537      1.718     4.96      858.085     55.15651     1832.161        40     1.685     0.941  43.78   0
       104    679.5013    863.6293 307.6356257  +6.3381959     3501.394      5531.31     5885.375      78.4387     156.2556      312.947      1.748     4.86     859.5727     55.15651     471.4763        23     1.591     0.816  39.28   0
       105    911.6442    862.4645 307.5392851  +6.3464337     4824.396     8384.573     9131.931      78.4387     156.4424     312.9159      1.904     4.84     858.0491     55.15651       585.98        37     1.915     1.119  25.89   0
       106    751.0780    860.0420 307.6060300  +6.3420707     732.0707     1146.069      822.682     78.31448     156.5046     312.9781      1.574     5.58     859.6194     55.15651     109.8141         9     1.414     0.620  43.40   0
       107    654.1744    857.6665 307.6463417  +6.3398106     3240.356     5065.982      5839.76     78.06547     156.3801     312.8225      1.687     5.52     859.7148     55.15651       423.05        21     1.609     0.757  44.96   0
       108    644.6159    856.4049 307.6503526  +6.3400117     1004.065      1748.22     2318.518     78.06547     156.1933     312.7603      1.817     6.16     859.7769     55.15651     133.6387        14     1.543     0.691  43.94   2
       109    647.1011    852.1509 307.6494642  +6.3418514     2150.895     3650.179     4333.828     78.43869     156.4424     313.1025      1.838     5.44     859.6987     55.15651     334.5204        22     1.679     0.824  41.52   3
       110    842.7692    856.6242 307.5680771  +6.3465457      1561.13     2308.792     2740.572     77.94067     156.3801     312.7292      1.600     4.81     859.0603     55.15651     225.7476        16     1.450     0.735  37.33   0
       111    969.7784    855.5648 307.5153808  +6.3512224     651.7444     940.9315     677.4249     77.94067     156.3179     312.6669      1.557     4.64      856.801     55.15651     104.1164         9     1.260     0.484   5.23   0
       112    930.8835    850.4758 307.5317005  +6.3520260     2821.245     5057.002     5255.249     78.56271     156.8153     313.0092      1.871     5.15     857.4042     55.15651     332.8347        28     1.687     0.963  46.86   0
       113    341.0259    851.3649 307.7765617  +6.3319181     843.6997     1426.313     1457.095     77.81566     156.3179      312.698      1.553     5.36     857.8009     55.15651     118.5726        10     1.320     0.614  36.88   0
       114    388.9961    846.2426 307.7568198  +6.3356428     2513.632     3918.138     4165.455     77.81566     156.1933     312.6358      1.639     4.73     857.6367     55.15651     356.2023        21     1.539     0.785  43.85   0
       115    525.2169    836.1924 307.7006054  +6.3443595       3029.6     4899.223     5112.445     78.06547     156.2556     312.7603      1.684     4.70     859.0489     55.15651     473.6915        22     1.555     0.829  46.17   0
       116    869.8096    834.6268 307.5575905  +6.3565316     978.3707     1509.755     1757.313     78.06547     156.3179     312.7914      1.606     5.80     858.4058     55.15651     133.0797        12     1.288     0.735  39.69   0
       117    590.1974    833.9500 307.6737029  +6.3474618     771.1548     1222.031     1168.363     77.81566     156.1309     312.5112      1.632     5.50      859.335     55.15651     128.6237        10     1.306     0.692  45.45   0
       118    572.0630    832.2112 307.6812906  +6.3475725     5934.492     9380.056     9810.913     77.94067     156.3179     312.7914      1.630     4.64     859.1218     55.15651     869.4672        30     1.615     0.877  42.23   0
       119    579.0557    831.6110 307.6784077  +6.3480545     1046.769      1686.58     1436.697     77.81566     156.4424     312.6046      1.837     6.06     859.1784     55.15651     153.6975        15     1.485     0.696  40.97   0
       120    283.9586    832.4785 307.8008924  +6.3378002      728.867     1051.236      601.321     78.31448     156.5046     312.9159      1.586     5.05     857.5492     55.15651     144.8976        10     1.501     0.628  20.37   0
       121    489.9061    830.9319 307.7154429  +6.3453483     1534.131     2639.047     2546.507     78.31448     156.6911      312.947      1.690     6.24     858.7486     55.15651      256.584        16     1.559     0.703  43.02   0
       122    907.9683    830.1295 307.5418988  +6.3596625     1186.876      1937.78     1772.945     78.31448     156.5046     312.9159      1.687     4.89     857.5143     55.15651     191.9656        15     1.387     0.825  24.73   0
       123    131.4132    830.1971 307.8642990  +6.3336153     1338.025      2093.05     1959.217     78.06547     156.1933     312.7914      1.710     6.03     853.4471     55.15651     183.8747        14     1.535     0.665  46.01   0
       124    542.7298    826.0833 307.6936757  +6.3491203     19295.99     29968.55     31034.98     78.68652     156.7532      312.947      1.676     5.22     858.6298     55.15651     2756.792        45     1.670     0.940  43.50   0
       125    708.0117    829.0750 307.6249534  +6.3534172     616.5834     1093.682      1212.37     78.06547     156.1933     312.7292      1.969     4.02     859.4336     55.15651     109.9017         6     1.009     0.459  36.55   0
       126    383.9814    827.7239 307.7595278  +6.3431208     663.0647     886.8162     763.4011     77.94067     156.2556     312.8848      1.412     5.06     857.2891     55.15651     129.5141         6     1.302     0.557  40.28   0
       127    956.4325    824.3253 307.5219719  +6.3636763     3442.339     6012.584     6194.786     78.31448     156.5668     312.8848      1.844     4.85     856.5986     55.15651     418.0547        26     1.641     0.930  42.43   0
       128    189.5174    825.5566 307.8403344  +6.3374850     482.3214     605.9802     856.5178      78.4387     156.5046     312.8848      1.283     4.02     854.7044     55.15651     99.07568         5     1.206     0.383  36.09   0
       129     76.7393    822.2623 307.8872656  +6.3350521     607.6602     891.1899     1040.503     78.43869     156.5046      312.947      1.363     3.81     851.4653     55.15651     101.7775         5     1.240     0.335  13.81   0
       130     52.9921    816.5021 307.8973195  +6.3366311      1436.61     2461.879     2441.019     78.19007     156.1309      312.698      1.892     4.90     850.2941     55.15651     185.2993        19     1.537     0.831  50.62   0
       131    335.2585    814.7835 307.7801933  +6.3468288     3271.512      5067.97     5059.226     77.81566     156.4424     312.6669      1.703     5.42     857.1295     55.15651     461.3873        22     1.576     0.789  40.85   0
       132    800.9102    810.5865 307.5870060  +6.3641567     52443.17      84833.8     88056.44     78.19007     156.2556     312.7914      1.733     5.00     858.1365     55.15651     6943.027        64     1.728     1.025  42.84   0
       133     35.2932    812.8654 307.9047904  +6.3375369      2162.13     3433.347     3495.496     78.43869     156.6911      312.947      1.719     4.89     849.3538     55.15651     275.7901        21     1.498     0.890  45.79   0
       134    739.5597    812.1639 307.6124250  +6.3614548     764.9394     946.1487     1029.171     78.19008     156.5046     312.7603      1.498     4.29     859.2803     55.15651     153.3174         7     1.289     0.406  33.59   0
       135    257.6443    787.0397 307.8133550  +6.3556777     737466.6      1641903      1801160     78.19007     156.5046     312.8225      2.246     8.41     854.9218     55.15651      64003.1       558     2.697     2.049  65.67   4
       136    444.0227    809.1343 307.7352288  +6.3528103     907.5976     1350.475     1155.715     78.06547     156.5046     312.8225      1.608     5.41     857.2336     55.15651     141.5266        12     1.303     0.684  46.35   0
       137    367.7215    802.6124 307.7671273  +6.3529437     20846.14     32432.48      33710.4     78.06547     156.1933     312.7603      1.685     5.01     856.8061     55.15651     2724.552        41     1.627     0.938  43.95   0
       138    417.0648    802.8351 307.7466338  +6.3545072     1429.413     2222.032     2031.226     78.31448     156.5046      312.947      1.655     4.84     856.8061     55.15651     229.5591        17     1.504     0.727  40.68   0
       139    429.5695    800.4385 307.7415232  +6.3559162     22502.28     34378.75     35240.96     78.06547     156.2556     312.7603      1.696     5.04       856.84     55.15651     2950.308        42     1.632     0.914  42.75   0
       140    656.2709    802.0327 307.6473470  +6.3628522     799.6196     932.0062      868.246     78.31448     156.5046     312.9159      1.457     4.21     859.0605     55.15651     155.2421         7     1.180     0.429  36.76   0
       141    966.7980    799.2616 307.5185107  +6.3743712     1825.823     3307.565     3227.317     77.81566     156.3179     312.6358      1.871     4.65     856.1359     55.15651     223.8988        24     1.580     0.970  49.89   0
       142    923.1083    797.2527 307.5367183  +6.3737430     6159.145     10383.24     11170.12     78.31448     156.3179     313.0714      1.788     4.74     856.6485     55.15651     775.5168        35     1.720     0.968  42.92   0
       143    895.3450    797.5352 307.5482362  +6.3726996     701.0861     905.6794     817.9294     78.56271     156.4424     312.9159      1.576     5.38     857.1422     55.15651      87.7323         8     1.070     0.764  29.52   0
       144    663.6440    796.3027 307.6444790  +6.3654649     6328.674     10104.28     9635.703     78.43869     156.4424     313.1025      1.689     5.09     858.8914     55.15651     899.6117        29     1.627     0.863  42.95   0
       145    545.7239    806.3130 307.6931000  +6.3573838     525.0413     788.1682     160.4606     78.43869     156.8153     312.9781      1.719     3.43     857.7515     55.15651     88.25562         5     1.216     0.281  34.98   0
       146    452.3504    794.4224 307.7322683  +6.3591641     1732.244     2564.404      2309.32     78.06547     156.5668     312.8225      1.627     5.85     856.8368     55.15651     245.8269        16     1.478     0.710  44.90   0
       147    177.4556    793.7623 307.8464189  +6.3502071     734.3243     1004.876     1022.626     78.43869     156.5668      312.947      1.819     5.36     853.2623     55.15651     120.5472         9     1.406     0.577  32.67   0
       148    616.7301    788.3263 307.6642261  +6.3671883     865.2925     1212.896     1435.391     78.56271      156.629      312.947      1.330     4.96     858.0037     55.15651     120.8006         9     1.244     0.560  39.59   0
       149    167.8960    787.4267 307.8506023  +6.3525016     1053.226     1805.582     1673.146     78.56271     156.2556     312.7914      1.799     5.84     852.8348     55.15651     179.3788        14     1.656     0.608  41.33   0
       150    891.7220    787.6008 307.5500746  +6.3766807     694.3108     973.1028     964.1281     77.69045     155.9438      312.698      1.638     4.70     857.0844     55.15651     138.0645        10     1.223     0.722  62.70   0
       151    698.7776    786.4194 307.6302249  +6.3707211     2402.322     3730.749     3751.493     78.19008     156.4424     312.8537      1.667     5.78     858.6681     55.15651     347.1422        21     1.592     0.769  44.81   0
       152    975.4041    784.9615 307.5154181  +6.3805629     580.4631     1033.378     1146.751     77.56504     156.2556     312.6669      1.853     4.88     855.9748     55.15651     78.59698         7     1.158     0.582  61.42   0
       153    432.5148    783.1006 307.7408862  +6.3631737     53976.39     83271.99     86151.81     78.43869     157.0014     313.0092      1.685     5.23     856.3565     55.15651     7374.171        66     1.681     1.025  42.87   0
       154     84.8434    784.5774 307.8851790  +6.3508844     452.4248     1014.476     773.6573     77.94067     156.3801     312.7292      1.444     3.95     850.5337     55.15651     93.89038         6     1.453     0.307  42.76   0
       155    550.3358    782.1382 307.6920012  +6.3675201     7118.472     10984.67     11249.87     78.43869     156.5046      312.947      1.654     5.06     856.9343     55.15651     1057.777        27     1.575     0.824  41.24   0
       156    795.4819    778.7087 307.5903331  +6.3771379     11284.37     17940.01      18883.2     78.19008     156.7532     312.9781      1.726     4.95      857.705     55.15651     1469.428        41     1.713     0.991  45.12   0
       157    466.9760    780.7077 307.7266594  +6.3653173     4493.558     6809.473     7918.767     78.56271     156.3179     312.7603      1.651     5.40     856.5776     55.15651     667.4341        23     1.557     0.780  44.30   0
       158    235.3251    777.4833 307.8229448  +6.3588736     789.2336     1973.452     3816.551     78.56271     156.8153     312.9781      8.996     9.13     853.7564     55.15651     106.8657        18     1.849     1.259 -81.17   0
       159    143.0276    787.1437 307.8609363  +6.3517822     1018.162     1615.285     1315.985     78.06547     156.5668     312.7914      1.657     6.05     852.2608     55.15651      148.126        13     1.497     0.688  28.80   0
       160     24.9637    775.0208 307.9103626  +6.3528146     1124.088     1822.775     2229.188     78.06547     156.2556     312.6669      1.929     5.27     848.4214     55.15651     159.1989        11     1.388     0.564  45.37   0
       161    463.6345    774.1085 307.7282697  +6.3679301     2277.507     3528.209     3587.976     78.56271     156.3801      312.947      1.728     6.13     856.3482     55.15651     342.7322        17     1.483     0.763  41.75   0
       162    817.2323    772.8028 307.5815011  +6.3803033     1118.929     1875.499     1713.637     77.69045     156.3179      312.698      1.671     5.96      857.457     55.15651     155.8237        15     1.431     0.729  33.04   0
       163    926.1431    805.8597 307.5351689  +6.3702903     7817.912     13223.69     14126.17     78.56271     156.5046      312.947      1.788     4.63     856.7167     55.15651     1031.159        36     1.693     1.000  42.21   0
       164    161.2845    771.0323 307.8539026  +6.3590484     2887.593     4476.678     4704.237     78.43869     156.3179     312.8537      1.604     4.49     851.9502     55.15651     419.1514        20     1.505     0.761  41.69   0
       165    153.2147    770.7560 307.8572623  +6.3588911     11269.38     17771.08     18531.88     77.81566     156.3179     312.6669      1.694     5.16     851.7448     55.15651     1588.826        32     1.583     0.915  41.40   3
       166    145.4353    768.0899 307.8605824  +6.3597303      2837.19      4729.19     5536.334     78.56271     156.4424     312.9159      1.850     5.50     851.3944     55.15651     392.5637        22     1.841     0.733  41.81   3
       167    984.8947    772.2350 307.5119052  +6.3861344     583.4604     1053.369      994.642     78.56271     156.3801     313.0092      1.519     3.34     855.8091     55.15651     110.2023         5     0.966     0.335  44.10   0
       168    729.1933    805.1867 307.6169641  +6.3639891     20432.62     33677.21     36465.53     78.06547     156.3179     312.7914      1.763     5.73     859.2742     55.15651     2930.241        46     1.824     0.950  46.74   3
       169    990.3873    767.4199 307.5097864  +6.3883059     1491.696     2399.418      2612.33     78.19008     156.1933     312.8225      1.690     4.97     855.7374     55.15651     199.7579        18     1.573     0.788  57.31   0
       170    941.0208    767.3563 307.5302862  +6.3866853      5860.18      9649.95     9745.285     77.94067     156.3801     312.7603      1.748     4.71     856.2113     55.15651     737.6904        31     1.630     0.958  39.71   0
       171    223.5714    765.6036 307.8282268  +6.3633837     769.2053     1840.137     3290.342     77.94067     156.2556     312.7603      2.898     5.08     853.1882     55.15651     104.6885         8     1.570     0.465 -54.56   0
       172    696.6061    765.0156 307.6318479  +6.3794862     1798.952     2736.666     2825.246     78.06547     156.2556     312.7603      1.587     5.87     857.8311     55.15651     251.3693        15     1.466     0.675  44.28   0
       173    583.2250    764.1393 307.6789533  +6.3760534     2255.685     3530.455     3047.352     78.06547     156.5046     312.8225      1.626     5.83     856.5966     55.15651     340.3537        19     1.569     0.717  44.37   0
       174    431.0941    763.4192 307.7421412  +6.3712525     1149.249     2043.172     2050.178     78.31448     156.3179     312.7603      1.904     6.84     855.7427     55.15651     190.2415        16     1.811     0.751  50.33   0
       175    722.8109    801.6912 307.6197318  +6.3652191     85370.67     136842.2     144201.4     78.19008     156.1933     312.7292      1.718     5.01     859.2498     55.15651     11355.09        77     1.779     1.018  44.58   3
       176    145.5299    761.6801 307.8607604  +6.3623800     2052.456     3133.148     3667.524     78.68652     156.8153     312.8848      1.753     5.38     851.1297     55.15651      271.571        18     1.488     0.779  38.62   0
       177    935.1269    759.2029 307.5330076  +6.3898552     2722.752     4517.411     4985.335     77.94067     156.0686     312.7603      1.786     5.59     856.2136     55.15651     364.7809        23     1.610     0.852  43.08   0
       178    964.6836    758.6792 307.5207528  +6.3910576     2782.039     4815.131     5277.772     78.56271     156.8153     313.0403      1.833     5.07     855.9344     55.15651     324.3395        26     1.688     0.884  41.45   0
       179    995.4666    758.3758 307.5079814  +6.3922097     1688.299     2846.624      2743.02     78.06547     156.5046     312.8537      1.781     5.77     855.6511     55.15651     192.0311        19     1.535     0.786  35.53   0
       180    688.5375    759.4870 307.6353844  +6.3814991      1183.98     2077.031     2542.969      78.4387     156.6911      312.947      1.874     3.60     857.4397     55.15651     176.2339         9     0.853     0.776  25.57   2
       181    834.8435    756.6999 307.5747308  +6.3875406     859.7193     1432.113     1421.894     78.43869     156.3801     313.1336      1.734     5.53     857.1764     55.15651      130.032        12     1.636     0.527  41.48   0
       182    909.7480    754.0770 307.5437177  +6.3911248     653.0897      1002.96     1304.448     78.56271     156.5668     312.9159      1.614     4.49     856.4786     55.15651     119.5176         8     1.312     0.619  54.70   0
       183    260.1620    753.5736 307.8134425  +6.3695802     1786.549     3119.336     4004.118     78.06547     156.3179     312.7603      1.916     5.63     853.3976     55.15651     263.9054        17     1.518     0.766  39.64   0
       184    697.2537    750.6664 307.6320626  +6.3854328     689.8499     1041.557     855.0562     78.43869     156.4424     312.8848      1.597     5.29     857.2824     55.15651     106.6617         7     1.297     0.610  46.30   0
       185    280.1475    749.0504 307.8052980  +6.3721192     644.5273     1111.943      1665.66     78.56271     156.3801      312.947      2.123     5.19     853.3367     55.15651     88.37146        10     1.366     0.557  50.06   0
       186    952.7211    748.3766 307.5260662  +6.3949126     910.0151     1642.812     1526.716     78.06547     156.3179     312.8848      1.762     5.67     855.9785     55.15651     133.9766        12     1.378     0.657  51.34   0
       187    175.4406    748.4990 307.8487889  +6.3688281      892.818     1299.734     1438.676      78.4387     156.3801     313.1336      1.462     5.20     851.2617     55.15651     153.3904        10     1.309     0.583  38.72   0
       188    979.5952    746.5397 307.5149693  +6.3965676     2332.331     3929.091     4575.875     77.81566     156.3801      312.698      1.848     5.11     855.7361     55.15651     284.3702        23     1.623     0.921  46.35   0
       189    926.9479    747.7441 307.5367890  +6.3943138     995.5555     1628.144     1590.173     78.43869     156.5046     312.8848      1.824     4.90     856.2142     55.15651     179.9648        12     1.465     0.552  37.68   0
       190    699.0925    745.7186 307.6314659  +6.3875373     898.2242     1418.072      1898.96     78.19007     156.8153     312.9781      1.711     5.32     857.1376     55.15651     134.4476        11     1.302     0.613  39.67   0
       191    420.5418    741.3184 307.7472694  +6.3800240     572.5255      637.033     1005.404      78.4387     156.5046      312.947      1.671     3.34     854.9952     55.15651     94.37549         5     1.044     0.309  66.91   0
       192   1021.2951    739.8953 307.4978778  +6.4007018     1557.813      2413.29     2095.058     78.43869     152.9815     270.5707      1.683     5.91     855.3562     55.15651     193.2886        16     1.457     0.767  45.72  24
       193    490.9356    740.9541 307.7180544  +6.3825347     542.3934     908.0978     799.5201     78.43869     156.4424      312.947      1.661     3.90     855.5305     55.15651     116.7256         5     1.378     0.317  33.24   0
       194    647.6001    739.6121 307.6530519  +6.3883358     702.7336     976.1659     895.5193     78.06547     156.1933     312.7292      1.482     4.91     855.9951     55.15651     93.73529         9     1.171     0.584  47.04   0
       195    822.3690    738.2213 307.5805325  +6.3947539     1111.192     1880.966     2300.088     77.94067     156.3179     312.7914      1.857     5.73     856.9315     55.15651     155.1544        13     1.434     0.644  38.31   0
       196    908.7866    735.5370 307.5447405  +6.3987481     1438.487      2559.46         2607     77.94067     156.3179     312.7603      1.931     6.74     856.3223     55.15651     194.5121        18     1.653     0.770  41.16   0
       197    883.6300    731.3834 307.5553258  +6.3996233     996.1901      1594.27     1913.822     78.06547     156.2556     312.8537      1.706     4.87     856.5286     55.15651     132.1469        11     1.218     0.650  38.37   0
       198    669.2890    730.5388 307.6443524  +6.3928080     513.8652     891.1948     612.3349      78.4387      156.629     312.9781      1.646     4.69     855.9036     55.15651     86.73633         7     1.296     0.481  36.86   0
       199    866.0161    727.1596 307.5627817  +6.4007792     1676.581     2586.847     2413.784     77.94067     156.3179      312.698      1.648     4.57     856.6549     55.15651     220.8599        18     1.457     0.761  42.82   0
       200    128.7869    724.8329 307.8689605  +6.3770307     984.0871     1799.207     1754.686     77.94067     156.2556     312.8225      1.801     6.92     849.2294     55.15651     153.4175        15     1.785     0.752  69.37   0
       201     64.8695    726.1419 307.8954532  +6.3743394     2621.302     4142.761     5020.105     78.56271     156.5046     312.8848      1.677     5.14     848.4229     55.15651     383.1884        20     1.482     0.780  36.79   0
       202    477.4974    725.1475 307.7241678  +6.3886108      534.777     778.3518     1334.156     78.31448     156.5046     313.1647      1.588     3.50     854.8775     55.15651     101.6884         5     1.228     0.288  36.56   0
       203    582.8717    721.3230 307.6805447  +6.3937206     630.8168     886.3281     686.4048     78.68652     156.7532     312.9159      1.380     3.42     855.2585     55.15651      103.094         5     0.974     0.347  41.41   0
       204    677.5932    714.6573 307.6414398  +6.3996434     6338.554     9818.493     10379.02     77.94067     156.3801     312.6358      1.687     4.98      855.797     55.15651     844.2507        27     1.592     0.844  38.80   0
       205    624.1812    713.9147 307.6636424  +6.3981626     1384.111     2332.577     3181.381     78.06547     156.2556     312.8225      1.946     5.48     855.4561     55.15651      226.009        17     1.616     0.731  46.11   0
       206    546.4099    714.5557 307.6959125  +6.3952935     562.2292     936.4625     1043.092     77.94067     156.3801     312.6358      1.599     4.03     854.8452     55.15651     104.3723         6     1.060     0.438  54.73   0
       207    535.8112    714.6279 307.7003108  +6.3949086     786.1589     1096.074     1221.558     78.06547     156.3179     312.7914      1.466     5.18     854.7872     55.15651     123.2291         9     1.328     0.571  39.06   0
       208   1014.5779    709.8788 307.5016756  +6.4128720     2255.813     3583.637     3725.385     78.06547     156.1933     312.8848      1.656     4.79     854.8414     55.15651     296.2192        20     1.505     0.890  39.65  16
       209    651.4232    710.3946 307.6524498  +6.4005279     2190.234     3598.666     3802.068     77.94067     156.2556     312.7603      1.762     5.37     855.5223     55.15651     315.6198        20     1.502     0.845  45.72   0
       210    140.4549    710.3588 307.8646067  +6.3833993     3649.748     5750.487     5897.539     78.31448     156.5046     312.9159      1.729     5.15      849.142     55.15651     489.7292        23     1.628     0.792  45.60   0
       211    327.0272    710.4796 307.7871391  +6.3896191     613.0807     722.3134       623.63     78.31448     156.4424     312.9159      1.271     3.99     852.0592     55.15651     98.62109         5     1.344     0.339  49.11   0
       212    794.4674    706.7242 307.5931783  +6.4068271     19980.92     31026.52     32108.41     78.56271      156.629     312.9159      1.704     5.04     856.4574     55.15651     2753.493        44     1.658     0.936  42.03   0
       213    476.8126    708.3438 307.7250198  +6.3955261     600.7826     820.6203     534.8323     77.81566     156.4424     312.6046      1.623     4.03     854.1586     55.15651     112.7042         7     1.327     0.350  42.98   0
       214    924.5555    706.4996 307.5391695  +6.4112642     3518.998     5533.365     5394.212      78.4387     156.3801     313.1336      1.692     4.74     855.8412     55.15651     446.5904        23     1.559     0.862  43.10   0
       215    493.2993    706.7939 307.7182267  +6.3967187     1366.253     2002.864     2278.101     78.19008     156.1309     312.6669      1.562     5.60     854.2402     55.15651     205.5221        14     1.421     0.622  41.43   0
       216    295.6170    706.2960 307.8003222  +6.3902918     705.3741     1303.062     821.4706     78.31448     156.3179     312.7603      1.655     5.85     851.6243     55.15651      105.975        12     1.539     0.627  48.78   0
       217    521.7157    706.6629 307.7064323  +6.3977251     933.4145     1459.315     1696.064     78.56271     156.5668     312.8848      1.613     5.60     854.4662     55.15651      154.805        11     1.430     0.618  40.32   0
       218    339.0754    706.4180 307.7822741  +6.3917006     853.3179     1398.287     1468.751     77.94067     156.2556     312.8225      1.749     7.53     852.1218     55.15651     114.3224        16     1.669     0.951  32.65   0
       219    267.9792    700.4374 307.8119956  +6.3917824     6212.056     9648.679     9958.351     78.06547     156.2556     312.6669      1.665     5.09     851.0153     55.15651      1011.34        28     1.606     0.835  42.92   0
       220    103.4791    702.7020 307.8802181  +6.3853168     468.7507     573.7978     737.1364     78.19008     156.8153      312.947      1.595     4.65     848.1438     55.15651     90.89667         6     1.341     0.458  50.69   0
       221    674.9521    699.5493 307.6430458  +6.4057933     6993.019     11014.35     11612.08     78.43869     156.3801     312.8848      1.661     5.13     855.4916     55.15651     1069.948        31     1.622     0.846  40.71   0
       222    657.4490    700.6035 307.6502780  +6.4047723      889.722     1418.282     1729.791     77.81566     156.2556     312.5112      1.827     5.29     855.4244     55.15651      144.326        11     1.323     0.598  43.01   0
       223    370.4010    700.3156 307.7694740  +6.3952717     691.1514     1173.179     872.5286     77.69045     156.0686     312.6358      1.616     4.21     852.5352     55.15651     110.3853         7     1.099     0.460  29.58   0
       224    935.2302    692.2254 307.5352171  +6.4175144     1255.938     1971.744     1986.779     77.94067     156.3179     312.7603      1.702     5.89     855.5892     55.15651     185.5106        18     1.578     0.855  36.83   0
       225    746.7228    687.9849 307.6136345  +6.4129687       3659.6     5812.077     6139.865     78.06547     156.1933     312.7603      1.680     5.16     856.1218     55.15651     521.4229        26     1.656     0.854  40.93   0
       226    701.8725    688.2558 307.6322485  +6.4113570      1084.74      1665.38     1433.329     78.31448     156.4424     312.8848      1.558     4.75     855.6631     55.15651     163.8029        12     1.556     0.535  36.04   0
       227   1013.0194    684.5063 307.5031754  +6.4232967     8200.458     13573.23     13991.85     78.31448     156.3179     312.7914      1.755     4.78     854.3569     55.15651     1103.986        34     1.683     0.961  41.68  16
       228    951.3953    684.8812 307.5287517  +6.4210864     2156.096      1823.36     1776.191     78.06547     156.0686     312.6669      1.640     4.62     855.2782     55.15651     286.0222        18     1.508     0.736  39.46   0
       229    754.2162    685.7950 307.6105968  +6.4141235     419.3291     568.7354     754.7507     78.06547     156.1933     312.7603      1.388     3.43     856.0509     55.15651      92.4671         5     0.981     0.347  42.60   0
       230     32.3115    684.3344 307.9103889  +6.3905050     2101.771     3293.165     4513.274     78.43869     156.6911     312.9159      1.884     4.57     847.5301     55.15651     271.1951        22     1.536     0.922  44.31   0
       231   1002.0645    684.2629 307.5077325  +6.4230319     553.9943     818.3007     220.8557     78.43869     156.5046      312.947      1.438     4.32     854.5014     55.15651     80.96454         5     1.026     0.518  37.19   0
       232    565.7202    682.3478 307.6889818  +6.4092391        558.6     705.5541      503.678     78.43869     156.5046     312.9159      1.363     4.05     854.4011     55.15651     95.43152         7     1.370     0.342  45.55   0
       233    449.4463    682.7776 307.7372465  +6.4051648     525.8903     596.7325     434.5377     78.06547     156.5046     312.7603      1.386     4.72     852.9222     55.15651     105.0132         6     1.264     0.499  38.04   0
       234     90.3353    679.4143 307.8864649  +6.3944897     25571.85     39984.43     41083.41     77.94067     156.3801     312.8225      1.704     5.06     847.5019     55.15651     3661.321        50     1.651     0.996  42.55   0
       235    551.4803    680.2458 307.6949654  +6.4096300     1939.802     2878.526     2984.656     78.43869     156.5046     312.9159      1.675     5.47      854.105     55.15651     299.8236        19     1.558     0.729  36.98   0
       236    520.6682    677.7651 307.7078431  +6.4096219     1440.032     2112.576      2556.94     78.31448     156.5668     313.0092      1.655     5.66      853.564     55.15651     208.0977        13     1.430     0.631  37.55   0
       237    941.5914    676.5906 307.5331014  +6.4241825     933.5685     1374.722     1371.189     77.94067     156.3179     312.7914      1.599     5.02     855.3212     55.15651     148.1616        10     1.397     0.510  43.17   0
       238    560.6019    674.0812 307.6913860  +6.4124810     1104.449     1883.159     1866.106     77.81566     156.0686     312.6358      1.796     4.38     854.1574     55.15651     182.5471         8     1.216     0.450  30.28   0
       239    736.4260    671.7422 307.6184574  +6.4193312     3399.799     5344.721     5552.069     78.06547     156.5046     312.7603      1.673     5.06     855.5718     55.15651     505.8506        22     1.568     0.777  37.97   0
       240    758.4760    669.9168 307.6093629  +6.4208221     4126.763     6388.407     6479.765     78.56271     156.8153     313.0092      1.653     5.48     855.6383     55.15651     561.6528        23     1.568     0.784  37.81   0
       241    589.9712    667.8629 307.6794010  +6.4160322     3327.699     4953.118     4809.048     78.19008     156.5046     312.8537      1.624     5.23     854.5303     55.15651     500.2054        20     1.525     0.734  38.91   0
       242    425.8417    668.4293 307.7475324  +6.4102975     1395.613     2162.933     1905.701     78.06547     156.3801     312.7914      1.701     5.56     852.2944     55.15651     190.1174        15     1.472     0.743  41.20   0
       243    250.4725    667.1745 307.8203906  +6.4049283     1753.675     2619.006      2639.38     78.06547     156.3801     312.8225      1.645     5.00     849.2795     55.15651     227.1568        16     1.525     0.704  43.53   0
       244    996.6498    664.8743 307.5106325  +6.4308571     7580.559     12464.56     12344.54     78.43869     156.5668      312.947      1.753     4.69     854.1663     55.15651     1025.057        35     1.652     1.009  39.97   0
       245    551.3516    666.0228 307.6954990  +6.4154984     443.8541     772.4184     1259.873     78.06547     156.5046     312.8225      1.936     4.09     853.8071     55.15651     94.14313         6     1.568     0.304  49.96   0
       246    333.9737    666.7747 307.7857335  +6.4078979     2111.292     2802.757     2610.096     77.94067     156.3179     312.8225      1.378     2.87     851.3198     55.15651     561.4987        16     1.217     0.708  36.90   0
       247    716.5546    663.5717 307.6269840  +6.4220403     940.9897     1369.929     1247.977     77.94067     156.5668     312.8225      1.606     4.98      855.321     55.15651     153.2842        10     1.401     0.502  42.44   0
       248    108.0023    661.4555 307.8797386  +6.4024991     785.4879     1262.196     1582.189     77.81566     156.2556     312.6046      1.920     5.75     847.5602     55.15651     105.3117        12     1.499     0.621  41.21   0
       249    155.0980    658.3239 307.8602905  +6.4053764     24058.53     37352.29     38740.43     78.06547     156.7532     312.9159      1.670     4.73     848.3058     55.15651     3994.099        44     1.618     0.951  39.88   0
       250    823.6512    658.9531 307.5826688  +6.4275273     1171.469     1579.747     1169.459     78.56271     156.3801     312.9781      1.593     5.99     855.6978     55.15651     171.6779        14     1.430     0.707  47.63   0
       251    441.9651    659.1582 307.7411510  +6.4146663     2961.923     4505.011      4597.22     78.19008     156.5046     312.7292      1.596     5.08     852.2731     55.15651     480.4138        19     1.441     0.758  42.67   0
       252    374.1094    652.6417 307.7695465  +6.4150805      710.754     1171.639     664.1344     78.43869     156.5046     312.9781      1.598     5.32     851.4819     55.15651     110.0018         7     1.258     0.634  51.54   0
       253    991.6511    647.7708 307.5132832  +6.4377526     6563.927     11095.67      11930.2     78.06547      156.629     312.8225      1.833     4.83     853.8099     55.15651     853.1933        38     1.824     0.993  38.39   0
       254    585.1185    643.1291 307.6822507  +6.4260823     49225.07     74485.34     77160.36     78.68652     156.8153      312.947      1.622     4.78     853.6974     55.15651     8331.939        59     1.643     0.946  41.72   0
       255    453.5331    644.9193 307.7368288  +6.4209335     563.3441     805.4791     666.3874     78.56271     156.7532      312.947      1.320     5.78     852.1969     55.15651     85.07935         8     1.355     0.694  49.48   0
       256    949.7558    644.6691 307.5307846  +6.4376357     595.0534     691.1805     41.89355     78.43869     156.4424      312.947      1.544     4.98     854.4688     55.15651     86.23016         8     1.284     0.547  42.67   0
       257    228.6261    645.0220 307.8302116  +6.4133407     614.9814     844.5971     887.2679     77.94067     156.3179     312.8537      1.539     4.23     848.4299     55.15651     103.1655         6     1.295     0.393  16.40   0
       258    544.4929    643.2609 307.6991154  +6.4246671     717.3823     1113.959     1197.726     78.31448     156.5046     312.9781      1.605     5.24     853.2681     55.15651     140.2182        10     1.398     0.588  27.47   0
       259    810.1690    643.1209 307.5888003  +6.4336140     562.6891     654.5919     430.2816     78.31448     156.5046     312.8848      1.584     3.88     855.5922     55.15651     100.5256         5     1.006     0.428  43.82   0
       260    515.4947    640.0206 307.7112659  +6.4250333     647.9626     887.6984      942.509     78.31448     156.3179     312.7603      1.563     4.24     852.8536     55.15651     117.6844         8     1.469     0.349  47.15   0
       261    192.4913    639.7856 307.8453927  +6.4142881     2832.764      4363.89     4418.781     78.19008     156.3179     312.7292      1.675     4.59     848.1507     55.15651     390.5431        23     1.519     0.835  36.96   0
       262     36.1500    646.9697 307.9100630  +6.4060616     1168.536     1908.288     2028.021     78.06547      156.629     312.8225      1.758     6.17     846.9426     55.15651      171.723        17     1.552     0.799  40.93   0
       263     85.3367    633.9705 307.8900815  +6.4130846     1391.965     2212.262     2613.634     78.19007     156.5046     312.8537      1.676     6.00     847.2268     55.15651     206.4078        14     1.500     0.681  41.01   0
       264    482.3602    626.8996 307.7254677  +6.4293404     63876.97     96494.06     99728.66     78.43869     156.3801     313.1336      1.647     5.49     852.3359     55.15651      9117.28        66     1.656     0.957  42.14   0
       265     26.0625    628.6699 307.9148723  +6.4132776      1585.59     2568.309     3035.222     78.43869     156.5046     312.9781      1.726     5.19     846.5757     55.15651     238.6627        20     1.523     0.854  45.89   0
       266    668.5919    624.1181 307.6482303  +6.4367264     877.1851     1236.004     1047.791     78.06547     156.1309     312.7914      1.504     5.16     853.7253     55.15651     148.0626         9     1.394     0.541  48.90   0
       267    156.8351    622.0179 307.8607998  +6.4204252     1789.504     2404.288     2316.316     77.94067     156.3179      312.698      1.506     4.35     847.6352     55.15651     270.5774        17     1.377     0.757  38.36   0
       268    436.1548    619.6839 307.7448977  +6.4307703     752.7378     1357.995     1009.879     78.43869     156.5046      312.947      1.788     5.95     851.6345     55.15651     135.2162        11     1.720     0.579  34.84   0
       269    628.5963    618.7660 307.6650189  +6.4375977      905.175     1342.662     1599.178     77.69045     156.3801      312.698      1.456     4.68     853.2424     55.15651     175.2662         8     1.380     0.450  34.74   0
       270     29.0978    618.1799 307.9139680  +6.4177109     691.2565     1115.087     1409.934     78.31448     156.3179     312.6669      1.585     5.58     846.4324     55.15651     118.3167        10     1.558     0.564  47.64   0
       271    336.7945    617.8209 307.7862184  +6.4282053     533.6343     677.4726     1072.847     78.06547     156.2556     312.7292      1.729     3.77     849.7195     55.15651      101.042         5     1.340     0.305  34.07   0
       272    327.8261    616.2178 307.7899966  +6.4285662      2278.01     3570.547     3436.045     78.06547     156.3179     312.8225      1.670     4.47     849.5123     55.15651     336.4976        20     1.428     0.896  41.27   0
       273    480.1112    614.7918 307.7268107  +6.4342643     800.0881     1519.675     1794.571     77.94067     156.1933     312.6669      1.819     6.00     852.2126     55.15651     132.5449        13     1.606     0.902  21.63   0
       274    754.3482    610.3988 307.6130823  +6.4452595     5142.452     8097.539     7566.894     77.81566     156.1309       312.48      1.701     5.32     855.3721     55.15651     813.7987        28     1.610     0.841  39.92   0
       275    807.9472    605.6578 307.5909845  +6.4490086      13946.4     21241.54     21763.28     78.43869     156.5046     312.9159      1.634     4.96     855.2679     55.15651     2047.822        33     1.603     0.836  41.02   0
       276    550.3636    605.8377 307.6979412  +6.4403159     1216.283     1898.036      1536.98     78.19007     156.3801     312.7292      1.667     5.91     852.5877     55.15651     200.5446        13     1.433     0.686  38.89   0
       277    631.9050    603.8246 307.6641491  +6.4438778     2939.494     4351.205     4809.836     78.56271     156.2556     312.7914      1.605     4.73     852.8018     55.15651     422.5842        20     1.394     0.840  40.61   0
       278     52.5161    604.8047 307.9046983  +6.4240219     643.5745     895.7446     1466.043     77.94067     156.1309     312.6046      1.541     4.75     846.5997     55.15651     106.9669         6     1.270     0.505  40.22   0
       279    949.1042    599.6929 307.5325677  +6.4561851     1007.001     1391.474     1384.501     78.43869     157.0634     312.8848      1.382     4.52     853.4853     55.15651      174.133        12     1.229     0.841  65.23   0
       280    390.4124    597.4329 307.7646440  +6.4384232     922.5759     1547.755      1440.24     77.94067     156.2556     312.8225      1.880     5.73     850.2977     55.15651     153.6918        12     1.477     0.629  54.83   0
       281    208.0469    598.7085 307.8403253  +6.4317714     604.5528     876.4654     913.5964     78.43869     156.4424     313.0403      1.423     4.56     847.6686     55.15651     84.26398         6     1.142     0.517  50.37   0
       282    244.2451    597.3806 307.8253397  +6.4335364     1320.466     2235.924      3353.97     78.06547     156.3801     312.7603      2.048     5.37     848.0133     55.15651     225.9614        14     1.503     0.633  33.81   0
       283    883.9836    588.8902 307.5599737  +6.4584720     2628.723     4049.822     4100.797     78.19008     156.2556     312.8225      1.672     4.80      854.374     55.15651     404.4966        21     1.530     0.793  42.31   0
       284    179.3936    589.0018 307.8525518  +6.4348159     784.4331     1659.756     2746.523     77.81566     156.1933     312.7292      2.362     5.60     847.4134     55.15651     147.7684        13     1.777     0.653  26.62   0
       285    842.8333    586.3625 307.5771473  +6.4581414     2494.611     3852.527     4087.224     78.19007     156.2556      312.698      1.631     5.52     854.6016     55.15651     394.3459        19     1.534     0.722  43.20   0
       286    813.6990    582.2740 307.5893835  +6.4588562     2254.693      3857.68     4836.013     77.94067      156.629     312.8848      1.834     5.09     854.4683     55.15651     402.3766        21     1.719     0.722  41.64   0
       287    753.3796    578.8148 307.6145488  +6.4582684     670.2584     1473.288     2177.161     78.19008     156.1933     312.8225      2.579     5.97     854.0284     55.15651     117.9734         9     1.403     0.715  72.96   2
       288    270.7413    581.3813 307.8148793  +6.4410326     7812.238     11947.73     11929.97     78.06547     156.3801      312.698      1.672     5.17     848.1986     55.15651     1198.624        31     1.546     0.906  40.14   0
       289    823.3574    577.5276 307.5855325  +6.4611387     159003.5     241759.7     250955.1     78.31448     156.5046      312.947      1.689     5.68      854.335     55.15651     24463.84       105     1.717     1.058  44.16   0
       290    204.9400    575.9042 307.8423879  +6.4410827     58553.02     91511.77      95807.2     78.31448     156.5046     313.0092      1.659     4.89     847.4811     55.15651     9093.942        70     1.693     1.032  41.73   0
       291    128.8773    572.1909 307.8740975  +6.4400577     6161.021     9557.944     9272.337     78.06547     156.0062     312.7603      1.629     4.55     847.0195     55.15651      993.806        28     1.569     0.854  44.00   0
       292    994.2510    569.2607 307.5148426  +6.4702570     1364.726     2060.629     1927.917     78.43869     156.4424     312.9159      1.615     5.90     852.6418     55.15651     193.3405        13     1.417     0.692  43.60   0
       293   1014.8298    568.1491 307.5063340  +6.4714023     471.2952     701.7328     629.2032     78.06547      156.629     312.8225      1.706     4.83     852.4648     55.15651     85.01117         6     1.184     0.558  25.93   0
       294    243.5340    567.6417 307.8266421  +6.4457914     831.7541     1460.175      2021.52      78.4387     156.4424     312.9781      1.933     5.86     847.7452     55.15651     128.1356         9     1.388     0.696  56.44   0
       295    859.9363    564.7780 307.5707715  +6.4676250     4257.758     6612.645     6340.118     78.06547     156.5046     312.7914      1.604     5.08     853.9019     55.15651      670.491        24     1.563     0.826  45.33   0
       296    378.3610    563.0230 307.7708120  +6.4522264     17390.34      26465.7     27733.23     78.06547     156.2556     312.7292      1.655     5.13     849.4678     55.15651      2562.87        42     1.660     0.893  40.92   0
       297    180.3180    561.9854 307.8530835  +6.4460017      1923.15     3354.363     5025.505     78.06547     156.2556     312.7603      2.578     5.23     847.2701     55.15651     309.4036        22     1.498     1.194  34.63   2
       298    468.5267    562.8990 307.7333745  +6.4553024     678.5916     1056.102      1688.08     78.06547      156.629     312.8848      1.672     3.41     850.5741     55.15651     121.5989         5     1.281     0.263  34.95   0
       299    813.8737    558.0811 307.5901257  +6.4688514     5576.891     8614.789     9245.494     78.68652     156.7532     312.9781      1.674     5.50     853.6686     55.15651     947.6409        30     1.677     0.827  44.32   0
       300    544.7465    557.9144 307.7018919  +6.4599153     6542.281     9803.159     10000.54     78.43869     156.4424     313.0714      1.637     5.48     851.4697     55.15651     1066.423        26     1.597     0.782  42.10   0
       301    255.5862    559.8465 307.8219015  +6.4494150      1058.44     1305.534     1462.342     77.81566     156.3179      312.698      1.584     5.11     847.8112     55.15651     140.5751        10     1.274     0.581  38.80   0
       302    117.5927    559.1202 307.8792264  +6.4450748     952.8994     1420.341     1686.214     78.06547     156.0686     312.7292      1.847     5.75     846.8102     55.15651     177.9423        12     1.487     0.626  39.80   0
       303    402.8665    554.5428 307.7609228  +6.4565502     1434.537     1992.173      2045.65     78.56271     156.4424     312.8848      1.629     5.52     849.6851     55.15651     223.8752        13     1.331     0.670  33.69   0
       304    191.6857    551.0729 307.8487330  +6.4508896      6808.64     10531.93     11269.66     78.56271     156.8153     312.9159      1.676     5.46     847.2527     55.15651     1039.034        28     1.583     0.828  41.24   0
       305    830.6599    550.5440 307.5834086  +6.4725245     1620.197     2205.883     2499.221     78.56271     156.5046      312.947      1.572     5.01     853.4354     55.15651     240.5698        16     1.520     0.703  43.03   0
       306    589.5411    551.0079 307.6835234  +6.4642675     2296.588     3738.593     3898.835     77.81566     156.3801     312.6358      1.789     5.19     851.3176     55.15651     335.5629        24     1.454     1.075  27.81   0
       307    508.2764    552.3036 307.7172260  +6.4610098     443.6955      582.872     656.4048     78.06547      156.629     312.9781      1.013     4.10     850.7543     55.15651     92.64819         5     1.246     0.385  39.05   0
       308    286.9378    547.5459 307.8092993  +6.4555471     86932.42     134302.7     139189.3     78.43869     156.4424     312.8848      1.675     5.08     848.0448     55.15651     12995.31        76     1.692     1.010  41.64   0
       309     63.3509    549.7778 307.9020664  +6.4471064     5020.845     8090.549     8343.131     78.06547     156.5668     312.8225      1.730     4.77      846.037     55.15651     713.4059        31     1.521     1.103  43.06   0
       310    872.8646    551.2302 307.5658586  +6.4736509     539.6932     774.2169     750.6933     78.19007      156.629     312.8537      1.305     4.29     853.3605     55.15651     92.21259         6     1.233     0.426  30.86   0
       311    576.5261    545.4272 307.6891165  +6.4661359     852.7152     1261.171     1658.076     78.19008     156.4424     312.8537      1.539     4.93     851.1736     55.15651     133.1291        10     1.345     0.512  43.34   0
       312    270.8196    542.6226 307.8161591  +6.4570384     1545.559     2543.499     3280.534     78.19008     156.4424     312.8537      1.776     4.69     847.8053     55.15651     240.4223        16     1.542     0.705  50.16   0
       313    986.4789    541.2551 307.5190118  +6.4815616     1504.231     2289.478     2114.867     78.56271     156.5046      312.947      1.639     4.84     852.3992     55.15651     209.0745        19     1.569     0.788  40.13   0
       314    810.1428    539.9488 307.5922857  +6.4762137     16076.27     24502.57     25094.54     78.43869     156.5046     312.9159      1.620     4.85     853.0348     55.15651     2739.827        38     1.616     0.866  42.11   0
       315    513.7167    538.3557 307.7154380  +6.4669512     41034.56      66556.2     71252.95     78.43869     156.5046     312.9159      1.763     5.02      850.308     55.15651     5951.618        71     1.815     1.104  34.92   0
       316    664.0126    536.5282 307.6530860  +6.4727394       941.33     1444.131      1439.46     77.94067     156.1309     312.7292      1.572     5.51     851.0406     55.15651     161.5424        12     1.476     0.581  36.90   0
       317    226.1258    534.8222 307.8349824  +6.4587572      1835.47     2810.792     2797.907     78.06547     156.3801     312.8537      1.628     4.77     847.2911     55.15651     294.3279        18     1.388     0.897  41.14   0
       318     61.6241    535.0004 307.9032848  +6.4531497     1236.996     2024.012     2512.459     78.06547     156.1933      312.698      1.753     5.26     845.8504     55.15651     179.2324        16     1.720     0.600  37.33   0
       319    684.0614    533.4390 307.6448643  +6.4746858     1356.299      1991.86      2223.71     78.43869     156.5046      312.947      1.625     5.02     851.1673     55.15651     220.0367        15     1.501     0.651  47.70   0
       320    113.1691    535.4525 307.8818659  +6.4546980     519.6329     673.1692     783.4545     78.31448     156.5668     312.8537      1.273     3.12     846.4706     55.15651     112.8399         5     0.736     0.451  21.30   0
       321    673.5663    533.2830 307.6492280  +6.4743991     3068.437     4448.673     4673.512      78.4387     156.5046     312.8848      1.627     6.19     851.0265     55.15651     496.7123        18     1.445     0.745  38.61   0
       322    736.0425    532.4651 307.6233104  +6.4768267     1362.902     2224.131      2078.79     78.43869     156.4424     312.9159      1.707     5.60     851.8704     55.15651     192.7372        16     1.509     0.696  34.41   0
       323    411.3941    529.1023 307.7582419  +6.4673407     1831.371     2781.807     2667.583     78.19007     156.1309      312.698      1.658     5.12     849.0345     55.15651     256.5431        17     1.412     0.781  45.69   0
       324     90.8680    530.2807 307.8913016  +6.4560828     694.7715     1480.655     1788.997     78.56271     156.7532      312.947      2.638     4.47     846.1027     55.15651     116.1067         7     1.035     0.549  23.64   0
       325    342.7701    527.2669 307.7868010  +6.4657952      4032.19       6268.3     6897.751     78.19008     156.5046     312.8848      1.689     5.13     848.2005     55.15651      665.054        25     1.630     0.798  39.31   0
       326    522.9422    526.7808 307.7119979  +6.4720397     2107.157     3559.267     3791.126     78.06547     156.3801     312.7292      1.716     4.72      849.871     55.15651     354.7638        18     1.592     0.732  42.14   0
       327    158.0262    525.9355 307.8635618  +6.4601366      25339.8     39788.45     41014.54     78.06547     156.4424     312.8225      1.650     4.63     847.0563     55.15651     3956.777        45     1.632     0.944  40.69   0
       328    886.0064    525.8460 307.5612554  +6.4845710     1433.108     2201.818     2309.851     77.94067     156.2556     312.5735      1.707     5.02     852.2711     55.15651     262.3884        16     1.524     0.722  44.56   0
       329    123.1582    524.2057 307.8780994  +6.4596778     2587.733     3949.773     3831.123     77.81566     156.1933     312.6358      1.660     5.12     846.4811     55.15651     387.0961        20     1.503     0.772  44.34   0
       330      3.1532    524.1297 307.9279330  +6.4556688     1984.685     3150.609      3114.24     78.43869     147.4733     263.0914      1.703     5.04     845.1846     55.15651     318.8183        19     1.457     0.836  45.05  24
       331    360.4123    522.5677 307.7796338  +6.4683278     1035.191     1590.369     1954.007     77.94067     156.2556     312.8225      1.735     5.88     848.2476     55.15651     154.4997        13     1.489     0.654  37.41   0
       332    983.6956    520.3657 307.5208700  +6.4900942     4915.429     7646.743      7674.39     78.56271     156.3801     313.0092      1.674     4.74     851.4169     55.15651      738.905        28     1.597     0.864  42.00   0
       333    556.5419    512.8906 307.6985139  +6.4789008     1507.825      2357.66     2337.049     78.31448     156.5046     313.0403      1.592     5.55     849.4455     55.15651     244.2012        12     1.451     0.598  42.88   0
       334     22.2486    510.2881 307.9204737  +6.4620270     25195.49     38822.66     40755.89     78.43869     156.3801     313.0092      1.679     4.91     845.3301     55.15651     3749.312        46     1.647     0.956  38.91   0
       335    455.0252    507.0538 307.7408686  +6.4779080     42592.57     65516.37     67826.12     78.06547     156.5668     312.7603      1.620     4.68     848.4756     55.15651     6894.268        58     1.650     0.957  41.20   0
       336      4.8398    504.4918 307.9278994  +6.4638338     192106.6       297732     308569.8     78.56271     156.4424     284.8384      1.694     4.89     845.2327     55.15651     27212.29       108     1.716     1.105  41.84  24
       337    663.0852    506.7034 307.6544771  +6.4850231     12129.04     18301.67     18753.66     78.43869     156.8774     312.9781      1.624     5.00     850.5062     55.15651     1873.642        33     1.592     0.827  41.36   0
       338    303.0983    507.2832 307.8039515  +6.4727142     978.3905     1360.711      931.495     78.43869     156.8774     312.9781      1.466     5.23     847.4017     55.15651     149.1714        11     1.289     0.600  38.22   0
       339    220.2144    504.5912 307.8384612  +6.4710406     19135.26     30530.24     32003.18     78.19008     156.2556     312.7914      1.722     5.06      847.162     55.15651     2565.483        48     1.772     0.935  40.37   0
       340    185.9897    505.6474 307.8526375  +6.4694538     1687.091     2335.204     2198.797     77.94067     156.3801     312.5735      1.492     4.87      847.123     55.15651     245.6952        15     1.421     0.671  41.07   0
       341    997.2615    505.0685 307.5157505  +6.4968631     922.3843     1388.666     1490.607     78.43869     156.4424      312.947      1.546     4.82     850.6652     55.15651     153.0118         9     1.366     0.482  53.77   0
       342    837.0905    504.5712 307.5822860  +6.4917218     877.4999     1355.371     1552.662     78.56271     156.2556     312.8225      1.582     4.58     851.6302     55.15651     152.1735         8     1.198     0.498  58.30   0
       343    584.9136    503.4800 307.6870494  +6.4837368     2739.171     4140.659     4148.932     78.19007     156.8153     313.0403      1.589     5.17      849.265     55.15651     440.7942        20     1.440     0.840  39.38   0
       344    925.4037    504.1049 307.5456254  +6.4948634     715.4382     1074.847     1154.817     78.19007     156.1933     312.6669      1.685     5.16     850.9091     55.15651     128.2611         9     1.354     0.556  23.07   0
       345    958.8420    500.5782 307.5318571  +6.4974355     4552.861     6912.152     7232.744     78.06547     156.3801     312.7292      1.641     4.68     850.6166     55.15651     629.5924        24     1.589     0.770  43.09   0
       346    631.8879    499.0799 307.6676901  +6.4871266      6234.73      9253.01     9652.661     78.19008     156.7532     313.0403      1.541     4.91     849.8218     55.15651     1136.133        22     1.525     0.723  40.50   0
       347    119.5040    499.4351 307.8804567  +6.4697823     1091.204     1385.434     1738.138     78.56271     156.3801     313.0714      1.496     5.49     846.1327     55.15651     174.1107        11     1.380     0.617  46.28   0
       348    981.4327    492.9759 307.5227308  +6.5013283     3306.274     5155.023     5354.502     77.81566     156.3801     312.7292      1.659     4.85     850.1597     55.15651     474.8343        25     1.578     0.816  39.84   0
       349    544.1062    490.3038 307.7044409  +6.4878102         7307     11108.77     11854.26     78.43869     157.0634     312.8225      1.660     4.87     848.0032     55.15651     1224.344        27     1.594     0.801  45.70   0
       350    419.4986    491.4807 307.7561484  +6.4831464     813.6982     1247.144     1393.155     78.31448     156.8774     312.9781      1.724     4.61     847.8271     55.15651     174.4906         8     1.407     0.429  40.00   0
       351    390.0379    490.5589 307.7684140  +6.4825384     2568.452     3874.133     4430.195     78.19007     156.5046     312.7914      1.726     5.42     847.5442     55.15651      377.149        19     1.515     0.743  42.71   0
       352    900.5490    486.0240 307.5565561  +6.5014994     3024.935     4743.149     5139.031     78.06547     156.5046     312.8225      1.758     5.25      850.408     55.15651     450.1006        25     1.638     0.854  39.76   0
       353    553.5114    487.0440 307.7006452  +6.4894713     844.9625     1126.417     1599.626     78.43869     156.3801      312.947      1.429     4.51     847.9915     55.15651     128.4682         8     1.220     0.474  30.15   0
       354    249.0852    485.8900 307.8271057  +6.4797325     598.6764      939.861    -122.5794     78.19008     156.8153     313.0403      1.434     4.02     847.0364     55.15651     95.44965         6     0.977     0.473  52.43   0
       355    907.9530    480.4928 307.5536673  +6.5040305     2169.821     3320.115     3409.816     78.31448     156.4424     313.0403      1.696     5.00     850.0765     55.15651     318.5829        19     1.556     0.749  46.08   0
       356    947.4077    479.9214 307.5373007  +6.5055834      1230.35     1923.073     1671.343     78.06547     156.0062      312.698      1.770     6.30     849.7228     55.15651     171.0878        14     1.384     0.805  27.94   0
       357    286.2566    479.3181 307.8118921  +6.4836950     470.9102     794.8807     148.7455     78.43869     156.5046     312.9781      1.642     4.71     846.6791     55.15651     88.68347         5     1.046     0.601  57.58   0
       358    126.6154    479.8248 307.8781687  +6.4781184     810.9465     1176.333     896.3614     78.19008     156.3179     312.8537      1.500     5.20     846.0628     55.15651     100.8248         9     1.236     0.619  37.44   0
       359    731.9666    476.6381 307.6268849  +6.4997416     2873.055      4459.28     4270.154     78.19007     156.3179      312.698      1.625     5.02     850.2249     55.15651     456.6284        19     1.529     0.724  43.58   0
       360    402.8318    474.8058 307.7636336  +6.4894721     3733.419     5714.158     5857.017     77.81566     156.3179      312.698      1.611     5.29     846.9407     55.15651     551.7836        23     1.563     0.777  43.68   0
       361     93.6118    475.3993 307.8920238  +6.4788349     1806.841     3044.597     3119.752     78.06547     156.1933     312.7292      1.758     5.62      845.061     55.15651     231.7913        18     1.625     0.781  47.98   0
       362    443.2595    475.1841 307.7468319  +6.4906723     1042.943     1611.138      1994.21     77.94067     156.4424     312.6669      1.558     4.76     847.0641     55.15651     168.8138        11     1.338     0.659  35.91   0
       363    630.5044    471.1986 307.6692054  +6.4985925     10049.25     15167.69     15499.22     77.94067     156.1933     312.5423      1.635     5.35     848.5961     55.15651     1470.841        30     1.586     0.819  42.71   0
       364    793.2374    467.8004 307.6017368  +6.5054393     16199.64     24809.88     25797.38     77.56504     156.3179     312.7292      1.629     5.00     850.1982     55.15651     2411.656        40     1.621     0.887  44.29   0
       365    436.7240    468.3796 307.7497761  +6.4932626     561.4344     907.5757     1294.692     78.06547     156.2556     312.8537      1.821     5.23     846.5718     55.15651     115.9307         5     1.115     0.693  70.13   0
       366    312.9792    468.1877 307.8011716  +6.4891883     2699.251     4206.372     4236.125     78.19008     156.1933     312.8225      1.565     4.75     845.8367     55.15651     431.7339        21     1.529     0.779  34.91   0
       367    923.3460    465.4747 307.5477798  +6.5107455     522.3457     642.1664     335.8425     78.31448     156.5046     312.9159      1.239     4.33     849.5621     55.15651     85.61761         7     1.273     0.418  40.24   0
       368    822.1852    464.8259 307.5898147  +6.5076349     1078.002     1707.174     1927.526     78.19007     156.3179     312.8537      1.799     5.49     850.1348     55.15651     208.1805        13     1.640     0.579  37.71   0
       369    396.0558    464.8203 307.7667853  +6.4933677     1675.785     2596.771     3162.671     77.94067     156.5046     312.7292      1.762     5.97     846.2104     55.15651     236.8781        15     1.463     0.705  37.63   0
       370    978.5327    462.6746 307.5249541  +6.5137433     1776.497     2551.102     2455.295     78.56271      156.629     312.8848      1.699     5.65     849.1035     55.15651     253.1188        16     1.492     0.700  48.23   0
       371    727.7751    462.4902 307.6291026  +6.5054432     523.6003     783.4211     763.3335     78.56271     156.3179     312.7603      1.284     2.78     849.6339     55.15651      134.436         5     0.784     0.671  74.42   0
       372    797.2495    462.8631 307.6002369  +6.5076121     1392.867      2149.19     2715.612     78.43869     156.4424     312.9781      1.630     5.06       850.05     55.15651     231.9467        14     1.438     0.668  49.51   0
       373    130.5493    459.6828 307.8772180  +6.4865671     4462.683     6797.145     7090.952      78.4387     156.4424     312.9781      1.697     5.27     845.0793     55.15651     586.1339        26     1.674     0.790  40.44   0
       374    768.7972    458.6778 307.6121943  +6.5083891      2144.69     3297.892      3331.59     77.81566     156.0062     312.7292      1.665     6.12     849.7898     55.15651      342.277        17     1.504     0.700  38.30   0
       375    288.5814    456.9190 307.8116850  +6.4930215     1405.623     2254.916     2127.131     78.06547     156.1933     312.8537      1.631     5.91     844.7297     55.15651     195.1439        15     1.476     0.667  45.92   0
       376    366.7430    454.4538 307.7793092  +6.4966642     3260.701     4615.679     4125.043     78.56271     156.5046     312.9159      1.592     5.37     845.3087     55.15651     440.7941        21     1.503     0.762  41.80   0
       377    722.5284    452.1478 307.6316302  +6.5095381     1574.931     2216.998     2702.964     78.31448     156.5046      312.947      1.597     5.78     849.1598     55.15651     233.5781        14     1.468     0.640  46.92   0
       378    996.3848    451.1004 307.5179290  +6.5191179     655.3848     964.3604     1387.555     78.43869     156.2556     312.6358      1.691     5.20     848.6147     55.15651     105.4633         9     1.475     0.518  50.68   0
       379    254.7619    450.4197 307.8259496  +6.4945686     865.1761     1400.627     1334.245     78.06547     156.3179     312.6046      1.796     3.89     844.1763     55.15651     137.4272         8     1.059     0.632  41.26   0
       380    425.4740    449.8325 307.7550752  +6.5005432     560.9137     846.5325     897.8572     78.31448     156.5046     312.8848      1.604     4.60     845.3129     55.15651     92.25122         6     1.147     0.524  41.89   0
       381    564.1188    445.1046 307.6976562  +6.5071435     973.4365     1505.188      1819.17     78.19008     156.8153     313.0092      1.657     5.16     845.3438     55.15651     193.5767        11     1.408     0.535  40.97   0
       382    464.9558    445.8943 307.7388118  +6.5034936     672.0632      821.473     424.1137     78.43869     156.4424     313.0403      1.343     4.44     844.9955     55.15651      134.495         5     1.174     0.477  62.14   0
       383    486.0425    443.3170 307.7301416  +6.5052648     1442.353     2218.786     2307.774     78.43869     156.5046     312.8537      1.608     5.47     844.7659     55.15651     216.7245        15     1.422     0.718  42.12   0
       384    849.0034    442.3958 307.5794321  +6.5177924     1596.563     2377.178     2459.862     77.81566     156.0686     312.7292      1.505     4.60     849.3696     55.15651     267.3517        15     1.412     0.714  42.16   0
       385    834.4200    441.4723 307.5855200  +6.5176866     1906.106     2994.513     2595.813     78.06547     156.3801     312.8848      1.620     5.04     849.3364     55.15651     266.3766        14     1.375     0.654  39.94   0
       386    634.2072    441.7091 307.6686627  +6.5108928     769.8559     1150.134      1302.44     78.06547     156.1933      312.698      1.651     6.21     846.7175     55.15651     116.8255        11     1.422     0.781  46.93   0
       387    731.7063    439.4908 307.6282452  +6.5150712     15118.12     22448.51     23317.37     78.43869     157.0014     312.9159      1.636     5.62     848.8519     55.15651      2233.13        31     1.578     0.800  42.47   0
       388    652.8959    435.6950 307.6611041  +6.5140016     2564.895     3791.708     4435.973     78.43869     157.1254     312.7914      1.650     5.78     846.7172     55.15651     423.1705        17     1.456     0.706  42.82   0
       389    646.9971    434.3894 307.6635980  +6.5143433      667.006     1034.622     1186.925     78.06547     156.1933     312.7914      1.674     3.93     846.4536     55.15651      107.636         5     1.286     0.344  46.37   0
       390    725.4495    434.0167 307.6310284  +6.5171222     635.8109     1032.908     1092.479     77.94067     156.5668     312.6046      1.972     4.72     848.4731     55.15651     103.1092         8     1.293     0.488  27.49   1
       391    625.1544    430.6596 307.6727954  +6.5151521     13970.16     25721.42     30772.43     78.31448     156.5046     313.0092      2.110     8.16     845.7902     55.15651     2413.733        54     2.539     0.871  37.38   0
       392    957.0129    429.3864 307.5350113  +6.5267703      3749.38     5881.089     6015.715     78.31448     156.1933     312.8537      1.653     4.90     848.4296     55.15651     610.9639        22     1.542     0.775  46.72   0
       393    396.1025    425.4153 307.7680988  +6.5096395     29126.57     44660.33     45806.66     78.43869     156.2556      312.698      1.655     5.05     843.5443     55.15651     4505.602        51     1.648     0.935  41.58   0
       394    433.1575    426.7241 307.7526656  +6.5103424     398.1163     400.0526     247.2599     78.31448     156.5046      312.947      1.258     3.45     843.6879     55.15651     86.24054         5     0.982     0.350  44.03   0
       395    911.8883    424.0301 307.5539329  +6.5274758     1277.823     2732.908     3428.293     78.56271     156.3179     312.8537      2.733     8.19     848.7032     55.15651      259.858        24     2.632     0.712  48.94   0
       396    142.1100    424.8593 307.8735980  +6.5013342     2295.799     3644.771      3597.04     78.31448     156.5046     313.0092      1.647     5.35     843.1052     55.15651     372.7352        18     1.480     0.722  40.71   0
       397     75.4876    420.5413 307.9014113  +6.5008747     1552.071     2498.791     2774.814      78.4387     156.5668     313.0092      1.781     5.61     843.2101     55.15651     203.0397        17     1.659     0.699  41.54   0
       398    925.7969    419.7611 307.5483000  +6.5297028     4876.979     7587.869     7265.656     77.56504     156.2556     312.6669      1.651     5.53     848.6002     55.15651     743.1406        27     1.602     0.824  41.00   0
       399    607.2552    420.6567 307.6805667  +6.5186829     592.2704     768.6765     721.9059     78.56271     156.5668      312.947      1.668     4.03     844.7511     55.15651     121.2276         7     1.342     0.346  44.18   0
       400    981.8483    417.8114 307.5250858  +6.5323783     516.8757     877.2206     836.8311     77.81566     156.3801     312.6046      1.378     3.75     847.8054     55.15651     96.14673         5     1.291     0.313  30.96   0
       401    253.5959    415.9690 307.8276008  +6.5087538     13810.66     21477.76     22508.65     77.94067     156.3801      312.698      1.660     5.52     841.1453     55.15651     2058.657        36     1.613     0.890  40.97   0
       402     89.1319    410.0532 307.8961010  +6.5056645      836.761     1152.435     1040.632     78.31448     156.4424     312.8537      1.398     5.08     842.7559     55.15651     121.5884        10     1.327     0.549  49.43   0
       403    748.5902    409.2376 307.6222529  +6.5281275     695.9064     1066.473     1155.926     77.81566     156.3179     312.6046      1.770     5.06     847.8857     55.15651     136.7117         8     1.376     0.746  31.73   0
       404    977.0282    408.1261 307.5274134  +6.5362166      1052.45     1686.489      1385.77     78.31448     156.5046     312.8537      1.531     5.63     847.5831     55.15651     202.9343        12     1.421     0.629  43.44   0
       405    716.7729    408.9510 307.6354770  +6.5271817     764.0497      1291.81     1352.707     78.06547     156.5046     312.8537      1.854     5.16     847.0834     55.15651     145.3077         9     1.506     0.499  24.92   0
       406    366.7417    405.7101 307.7809589  +6.5167901     1353.037     1838.698     1961.123     78.31448     156.5046     313.0403      1.621     5.75     842.0214     55.15651     207.2148        12     1.414     0.659  41.49   0
       407    199.5316    406.0258 307.8503901  +6.5110418     746.0509     1396.306     1007.821     78.06547     156.3801     312.8225      1.988     5.34     841.1372     55.15651     113.3972         7     1.435     0.561  58.90   0
       408    153.8114    404.5406 307.8694276  +6.5101172       5070.8     8057.295     8676.385     77.81566     156.3801     312.6358      1.697     4.92     841.9473     55.15651     752.1166        27     1.590     0.846  40.99   0
       409    451.4509    403.1720 307.7458645  +6.5206806     824.0156     1287.594     1017.794     78.06547      156.629     312.8225      1.744     5.87     842.1338     55.15651     113.8754        12     1.551     0.625  51.05   0
       410    258.5317    403.4638 307.8259745  +6.5140829     1171.875     2058.256     2224.285      78.4387     156.5046     312.9781      1.799     5.94     840.3574     55.15651      176.256        14     1.631     0.609  42.14   0
       411    646.6787    403.3156 307.6647787  +6.5271630     466.6949     700.6885     870.4648     78.43869     156.8153     313.0403      1.585     4.43     844.7376     55.15651     97.92218         5     1.128     0.496  32.12   0
       412    176.0154    400.6574 307.8603381  +6.5124674     2270.064      3841.76     3689.382     77.81566     156.4424     312.6358      1.773     4.59      841.387     55.15651     339.8525        23     1.493     0.930  48.70   0
       413    839.8606    400.8702 307.5846277  +6.5346332     785.6187     1079.254     1349.959     78.56271     156.5046      312.947      1.382     4.35     848.1307     55.15651     158.3807         7     1.216     0.444  33.01   0
       414    571.3875    399.2577 307.6961855  +6.5263172     934.4875     1433.827     1142.884     77.81566     156.3801     312.6358      1.666     4.67     842.7916     55.15651     160.0494         9     1.363     0.454  43.15   0
       415    985.5141    397.9246 307.5242320  +6.5407120     409.3819     624.4034     203.6296     78.56271     156.8153     312.9781      1.462     4.16     847.1649     55.15651     81.78333         5     0.772     0.639  12.16   0
       416    399.4763    395.3101 307.7677159  +6.5221829     2053.107     3101.024     3595.148      78.4387     156.7532      312.947      1.731     4.75     841.3507     55.15651     277.2238        17     1.507     0.716  41.61   0
       417    287.4755    395.8833 307.8142109  +6.5181855     897.4343     1478.314     1143.632     78.56271     156.8153     313.0092      1.693     6.41     839.7856     55.15651     115.9055        13     1.381     0.836  53.64   0
       418     18.1955    395.6430 307.9260486  +6.5092253     784.0478     1355.596     1241.093     77.81566     156.1933     312.6358      1.855     5.59     842.4229     55.15651     112.8389        10     1.403     0.627  31.35   0
       419    988.2527    394.3792 307.5232138  +6.5422673     919.5731     1414.196     1511.376     77.94067     156.5046     312.7292      1.671     5.10     847.0211     55.15651     150.3096        11     1.366     0.577  35.81   0
       420      1.2919    394.5098 307.9331068  +6.5091237     678.8245      793.822     795.0667     67.78644     124.1009     234.8605      1.152     2.71     842.4674     55.15651     135.7095         6     0.848     0.455 -89.69  24
       421    333.3167    392.6479 307.7952825  +6.5210611     575.5043     763.0359     1367.262     78.43869     156.5046     312.9159      1.572     5.56     840.3469     55.15651     103.7166         8     1.263     0.691  45.17   0
       422    606.0045    390.4185 307.6821068  +6.5311264      462.399     862.1508     777.3887     78.06547     156.1309     312.7292      1.347     3.48     843.1412     55.15651     85.14227         5     1.733     0.202  35.52   0
       423    453.2606    388.7548 307.7456003  +6.5266941     7088.502     10992.96      11269.3     78.31448     156.4424     313.0092      1.671     5.17     841.3247     55.15651     1000.718        30     1.627     0.819  43.13   0
       424     49.4843    389.5923 307.9132603  +6.5127775     3167.019     5543.335     5705.646     78.06547     156.1933     312.7603      1.871     4.68     842.0681     55.15651     425.9073        31     1.511     1.273  40.84   0
       425    785.9161    387.5801 307.6074803  +6.5383180     2038.146     3011.707     3007.303     78.06547     156.1933     312.8848      1.607     4.80     847.5095     55.15651      336.712        16     1.474     0.674  44.50   0
       426    793.9299    386.0923 307.6042020  +6.5392002      12881.8     19293.38     20038.26     78.43869      156.629     312.9159      1.607     4.88     847.6063     55.15651     2336.846        34     1.627     0.806  42.33   0
       427    357.2488    384.8161 307.7856083  +6.5250984     1149.215     1764.306     1633.471     77.94067     156.5668     312.6358      1.620     5.36     839.9873     55.15651     189.4243        11     1.384     0.585  36.09   0
       428    203.5879    377.7706 307.8496631  +6.5228444     631.4478     829.4843     562.5384     77.94067     156.2556     312.8225      1.289     3.36     839.6636     55.15651     103.2631         6     0.729     0.632 -43.59   0
       429    968.3955    377.4572 307.5320304  +6.5485921       439.84     727.2349     775.1703     77.81566     156.3801     312.6358      1.681     4.23     846.7838     55.15651       82.922         5     1.182     0.433  36.25   0
       430    918.8227    375.9619 307.5526705  +6.5475550     505.1392     846.9351      674.092     78.06547     156.2556     312.7292      1.484     4.75     847.2924     55.15651      93.4386         7     1.568     0.408  40.67   0
       431      7.5913    374.7661 307.9311612  +6.5174877     970.1055     2244.354     3812.644     77.94067     156.3179      309.223      3.598     7.25     841.8575     55.15651     118.3655        18     1.352     1.316  33.20  16
       432    998.4235    373.4991 307.5196916  +6.5512282     4029.342      5129.33     5310.306     78.56271     156.2556     312.7292      0.980     0.03     846.2822     55.15651     2391.631        12     1.381     0.324 -42.74   0
       433    473.5963    372.9658 307.7376883  +6.5338953     2241.459     3600.606     3936.776     77.69045     156.3801      312.698      1.740     5.74     840.5977     55.15651     334.4362        17     1.555     0.700  44.92   0
       434    930.4536    372.5526 307.5479544  +6.5493510     920.2338     1180.198     788.9906      78.4387     156.5046      312.947      1.589     6.10     847.1483     55.15651     120.1289        12     1.319     0.794  38.75   0
       435    859.2092    368.9821 307.5776654  +6.5484463     32075.34     51839.54     54010.67     78.19008     156.2556     312.7603      1.723     5.45     847.3162     55.15651     4694.266        52     1.702     1.017  48.68   0
       436    501.3389    372.4163 307.7261848  +6.5350524     3159.143     4723.019     4942.441     77.94067     156.4424     312.7292      1.676     6.61     840.7835     55.15651     430.5415        22     1.562     0.798  39.51   0
       437    351.6998    365.0493 307.7885818  +6.5330736     877.4026     1114.613     1288.949     78.43869     156.5046     313.0714      1.507     4.67      837.998     55.15651     158.1168         8     1.287     0.482  40.95   0
       438     76.7768    365.3447 307.9027489  +6.5237079     684.7362     980.2722     1032.762     78.06547     156.5046     312.7292      1.759     5.75     840.8438     55.15651     120.2711         8     1.211     0.769  13.19   0
       439    630.9349    361.3268 307.6727345  +6.5439732     2676.374     4177.394     4402.761     78.56271     156.5046     312.9159      1.686     5.23     842.5197     55.15651     488.5008        19     1.655     0.681  44.43   0
       440     39.1689    361.7685 307.9184886  +6.5239180     1140.538     1790.112     1449.675     77.94067     156.2556     312.6669      1.646     5.47     841.1371     55.15651     164.3478        14     1.520     0.680  41.66   0
       441    162.6155    360.0957 307.8672781  +6.5287640     511.3763     788.5438     655.0176     78.19007     156.2556     312.7603      1.433     3.65     839.7926     55.15651     94.84967         6     1.184     0.324  37.94   0
       442    715.7036    354.9683 307.6377414  +6.5494356     79982.49     121047.9     125686.5     78.56271     156.3179     313.0092      1.644     5.45     844.3496     55.15651      13456.8        74     1.687     0.966  42.67   0
       443    873.9766    356.3370 307.5719576  +6.5541608     1060.623     1631.022     1670.185     78.06547     156.5046     312.8225      1.614     5.91     846.9352     55.15651     155.6853        14     1.481     0.664  40.62   0
       444     95.0243    354.7400 307.8955306  +6.5287007     1215.341     1778.556     1818.292     78.06547     156.5046     312.7914      1.546     5.33     840.1897     55.15651     207.0804        14     1.419     0.680  42.26   0
       445    578.1332    351.6888 307.6949901  +6.5461843     2676.188     4090.434     3912.584     78.56271     156.6911     312.8848      1.647     5.56     840.8668     55.15651     403.2355        18     1.617     0.670  44.83   0
       446    115.3813    350.6407 307.8872153  +6.5310785     6345.956     9850.792     10524.89     78.06547     156.3179     312.6669      1.685     4.88     839.8562     55.15651     878.2622        28     1.610     0.833  43.25   0
       447    957.1377    351.8869 307.5375665  +6.5587746     821.0437     1370.602     1067.524     78.43869     156.6911      312.947      1.664     4.67     846.1312     55.15651     121.2192         9     1.320     0.469  27.56   0
       448    776.5703    350.3774 307.6126157  +6.5533667     656.3309     833.3325     963.9615     77.81566     156.3179     312.7603      1.779     5.10     845.8599     55.15651     88.24146         9     1.032     0.712  33.23   0
       449    561.4326    347.9037 307.7020543  +6.5471877     7236.801     10959.04     11608.07     78.56271     156.3801     313.0092      1.674     5.10     840.4207     55.15651     977.7846        28     1.547     0.845  43.30   0
       450    290.3514    345.4479 307.8147244  +6.5391064     2631.632     4026.511     4138.671      78.4387     156.3801      312.947      1.648     5.83     836.6998     55.15651      364.329        21     1.557     0.753  39.16   0
       451    424.3050    343.0863 307.7591704  +6.5445790     26179.91      40542.6     41366.37     78.43869     156.8774     312.9781      1.684     5.01     838.3774     55.15651     3884.344        45     1.631     0.923  42.25   0
       452    603.3599    342.6557 307.6848176  +6.5507591     662.0954     942.0851     896.7394     78.43869     156.5668      312.947      1.415     4.58      840.874     55.15651     104.4357         8     1.281     0.464  45.24   0
       453    531.8524    341.7099 307.7145491  +6.5487538     1292.481     1738.703     1427.646     78.43869     156.3179     313.0403      1.443     5.09     839.7334     55.15651     230.4272        11     1.456     0.502  39.62   0
       454    404.4045    341.2212 307.7674987  +6.5446813     1320.832      2149.06     3168.897     78.06547     156.2556     312.7292      2.064     5.28     837.8564     55.15651     191.0167        12     1.343     0.586  43.21   0
       455    503.5205    338.2288 307.7264339  +6.5492414     1234.925     1825.358     1744.283     78.31448     156.4424     312.8848      1.611     5.45     839.2583     55.15651     175.2419        12     1.430     0.586  43.80   0
       456    818.8720    335.3747 307.5955512  +6.5609753     826.3863     1193.098     1597.072     78.06547     156.3801     312.8225      1.563     5.70     845.9485     55.15651     125.5392        11     1.423     0.643  44.67   0
       457    655.2512    335.3527 307.6635115  +6.5555119     734.0756     1043.834     1441.425     78.56271     156.3801     312.9781      1.985     4.53     842.3236     55.15651     106.3326         6     1.159     0.502  44.92   0
       458    401.4110    335.6628 307.7689300  +6.5468758     933.6099     1374.309     2348.764     77.94067     156.3179     312.7292      1.803     4.57     837.5891     55.15651     152.5081         9     1.218     0.486  40.60   0
       459    782.6793    332.2943 307.6106877  +6.5610375     3074.243      4943.65     5628.734     78.19008     156.7532     312.9781      1.785     5.74     845.1426     55.15651     451.7548        21     1.752     0.696  41.91   0
       460    513.3566    333.4758 307.7225093  +6.5515337     8692.784      13223.3     13984.88     78.31448     156.5668      312.947      1.688     5.94     839.1214     55.15651     1223.686        29     1.593     0.837  40.99   0
       461    730.3057    332.1701 307.6324453  +6.5593375     843.3255      1247.32     1196.063     78.56271     156.2556     312.8225      1.503     4.21     843.4231     55.15651     138.8558         9     1.128     0.571  46.15   0
       462    937.6559    331.5759 307.5463417  +6.5665110     954.2859      1559.05     2141.646     78.06547     156.5046     312.7292      1.799     6.21     845.0983     55.15651     129.4472        13     1.442     0.751  39.12   0
       463    339.8892    330.1383 307.7946686  +6.5470915      1076.63     1564.794     1854.541     78.43869      156.629     312.9781      1.691     5.57     836.3262     55.15651     162.1888        12     1.394     0.628  39.06   0
       464    175.5336    324.0161 307.8631364  +6.5440953     1202.781     1828.273     1808.979     77.94067     156.3801     312.8225      1.694     4.78     838.3487     55.15651     169.3246        15     1.399     0.885  62.06   0
       465    452.6296    324.0592 307.7480497  +6.5533854     527.9514     774.8226     769.3481     78.19007     156.5046     312.8848      1.647     3.45     838.0118     55.15651     86.07013         5     1.736     0.198  54.63   0
       466    275.7403    323.9709 307.8215200  +6.5474830      672.739     997.2078     1156.916     78.06547     156.5046     312.8848      1.452     4.21     836.5143     55.15651     113.6949         7     1.139     0.443  33.97   0
       467    622.8066    322.8449 307.6774093  +6.5595902     515.1149     466.0614     279.5251     77.94067     156.3179     312.5735      1.181     3.93     840.6795     55.15651     80.04529         6     0.803     0.552  52.51   0
       468    403.2891    317.6940 307.7687578  +6.5543581     7652.977     11786.67     12413.36     78.43869     156.9394     312.9781      1.681     5.11     836.9377     55.15651     1069.569        30     1.610     0.835  45.05   0
       469    259.0142    318.1523 307.8286639  +6.5493234     2037.624     3071.682     3385.705     77.81566     156.3801     312.6358      1.632     5.16     836.6613     55.15651     298.5066        17     1.495     0.688  44.01   0
       470    756.7879    317.4190 307.6219432  +6.5663139     937.1431     1360.412     1604.239     78.19008     156.2556     312.8225      1.641     4.97      843.452     55.15651      178.944         9     1.494     0.467  37.49   0
       471    771.1750    313.5064 307.6160993  +6.5684105     53907.44      81515.8     84032.39     78.56271     156.2556     312.7603      1.641     5.28     843.7865     55.15651     8468.507        57     1.667     0.898  44.20   0
       472    442.9099    313.1093 307.7524569  +6.5575805     2338.674      3938.15     4227.296     78.43869     157.0014     313.0092      1.738     6.17     837.3904     55.15651     361.8423        20     1.532     0.831  41.35   0
       473   1006.1014    310.5049 307.5186208  +6.5774951     1708.102     2882.014     2712.056     78.43869     157.0014     312.7603      1.727     5.21     842.2526     55.15651     226.9857        20     1.587     0.857  51.95   0
       474    946.9984    309.7039 307.5431971  +6.5758539     2338.002     3532.414     3515.242     77.94067     156.2556     312.5735      1.579     5.86     843.5032     55.15651     384.1093        17     1.470     0.704  46.35   0
       475    588.8432    310.2936 307.6919396  +6.5636351     1151.504     1703.515     1805.323     78.56271     156.5046     313.0403      1.555     5.56     839.2183     55.15651     222.0562        12     1.416     0.615  40.19   0
       476    429.3528    308.7725 307.7582343  +6.5589163      2036.96     3163.024     2964.323     78.06547     156.5668     312.8537      1.625     6.20     836.9986     55.15651     292.4386        17     1.520     0.711  47.21   0
       477    479.8652    309.3513 307.7372349  +6.5603717     1018.456     1512.353     1445.735     78.31448     156.3801     312.8848      1.504     4.77     837.8081     55.15651     197.5029         9     1.314     0.490  42.58   0
       478    309.1843    308.0812 307.8081679  +6.5551674     749.6876     1352.179     1170.582     78.06547     156.2556     312.7914      1.736     5.56     835.9443     55.15651     115.6818        11     1.482     0.589  48.72   0
       479    850.7444    302.9670 307.5834044  +6.5754215     1262.894       1917.1     1823.618     78.31448     156.5046     312.9159      1.706     5.44     844.2412     55.15651     196.0088        12     1.464     0.569  50.24   0
       480    479.8741    303.5627 307.7374269  +6.5627620     762.2662     1091.059     1234.432     78.31448     156.5668      312.947      1.499     5.49     837.6008     55.15651     132.3563         9     1.258     0.676  20.70   0
       481    982.7472    301.8322 307.5286131  +6.5802971     592.8423     1010.759     920.9568     78.31448     156.5046     312.8225      1.784     6.37     842.0967     55.15651     89.22467         8     1.434     0.795  42.31   0
       482    459.7958    299.8147 307.7458930  +6.5636362     1277.632     2037.901     2229.394     78.06547     156.1309     312.7603      1.673     4.97     837.1129     55.15651     195.9302        17     1.498     0.777  47.97   0
       483    205.8073    299.8830 307.8513811  +6.5550777     2330.224     3700.149     3631.384     78.06547     156.1933     312.7914      1.673     4.74     837.1586     55.15651     339.9216        19     1.523     0.792  47.03   0
       484    769.6057    298.0761 307.6172712  +6.5747292     6029.242     9335.877     9942.562     78.06547     156.0062     312.7603      1.666     6.34     842.9301     55.15651     978.1744        28     1.589     0.796  45.48   0
       485    360.6551    297.9985 307.7871316  +6.5610590     670.9193     1077.874     1002.676     77.81566     156.2556     312.6046      1.663     5.28     835.6401     55.15651     114.9077         9     1.462     0.537  31.48   0
       486    240.9741    297.6201 307.8368520  +6.5571944     673.2082     959.6047     928.1625     78.06547     156.3179     312.8225      1.427     4.35     836.5438     55.15651     140.1992         7     1.594     0.338  45.33   0
       487    101.9115    297.2249 307.8946216  +6.5526795     1094.299     1835.588     2302.582     78.56271     156.3179     312.7914      1.893     5.46     838.2911     55.15651      191.371        12     1.342     0.626  31.76   0
       488    785.9469    295.9918 307.6105539  +6.5761362     2661.709     4217.449     4242.564     77.94067     156.3801     312.6358      1.652     4.78     843.3643     55.15651     455.3823        20     1.535     0.739  42.28   0
       489    489.0299    295.7613 307.7338878  +6.5662902     498.7486     621.1572     321.1038     78.06547     156.2556     312.7914      1.547     3.87     837.3227     55.15651     108.1203         5     1.468     0.292  40.49   0
       490    375.4626    290.6166 307.7812313  +6.5646041     1700.724     3380.069     3772.915     77.94067     156.4424     312.7603      2.139     7.53      835.601     55.15651     205.7395        25     1.827     1.013  18.60   0
       491     89.2748    291.3513 307.9000692  +6.5546792      1324.63     2061.744     2222.943     78.31448     156.5668      312.947      1.717     6.17      838.143     55.15651     203.9609        14     1.289     0.831  27.29   0
       492   1023.2082    286.2543 307.5123305  +6.5880788     4056.288     5025.905     5330.682     73.17339     130.8965     242.6084      1.216     3.00     840.0415     55.15651     720.4659        18     1.196     0.798  74.17  24
       493    502.2207    286.7648 307.7287130  +6.5704471     2127.649     3320.157     3202.697     77.94067     156.3179      312.698      1.631     5.32     837.0056     55.15651     278.9606        19     1.486     0.795  40.85   0
       494    264.8174    282.4527 307.8274630  +6.5642583     5660.259     9093.551     9758.818     77.94067     156.5668     312.6358      1.698     5.42     835.8584     55.15651     817.2705        27     1.638     0.824  42.74   0
       495    933.1691    281.9217 307.5498763  +6.5868637     510.8824     917.8293     868.2236     78.31448     156.5046     312.8848      2.033     3.93     842.2974     55.15651      91.2384         6     0.935     0.473  50.02   0
       496    829.4860    280.3135 307.5929975  +6.5840650     572.8245     793.7186     1054.956     78.19008     156.6911      312.947      1.373     4.30     843.0786     55.15651     108.4725         6     1.185     0.445  45.91   0
       497    955.8971    277.8157 307.5405738  +6.5893177     498.1176      808.642     626.5968     78.31448     156.2556     312.7292      1.578     5.11     841.6411     55.15651     88.14197         6     1.303     0.566  52.85   0
       498    784.1192    275.3805 307.6120077  +6.5845855     864.5692     1346.361     1083.802     78.06547     156.1933     312.8537      1.708     4.91     842.4034     55.15651     139.8488        10     1.374     0.498  44.36   0
       499    136.7633    276.2764 307.8808574  +6.5625019     542.2822     891.2449     931.7888     78.31448     156.5668      312.947      1.702     4.55     837.5398     55.15651     112.5644         5     1.207     0.488  33.44   0
       500    241.8088    275.3271 307.8372607  +6.5664270     555.9395     954.7344      1230.33     77.94067     156.0686     312.7603      2.069     4.00     836.0032     55.15651     79.01331         6     1.099     0.416  12.26   0
       501    398.9924    273.1810 307.7720482  +6.5725929     1553.571      2642.49     2840.547     78.06547     156.1933     312.7603      1.835     5.62     835.4578     55.15651     266.8989        17     1.501     0.810  46.89   0
       502    985.9086    272.0095 307.5283030  +6.5927165     1036.622     1480.894       1797.6     78.06547     156.1933     312.6669      1.553     5.63     840.8935     55.15651     206.2626        12     1.461     0.611  40.97   0
       503    321.3252    269.1682 307.8044429  +6.5716420     1174.908     1653.402     1514.452     78.31448     156.5668     312.8848      1.604     5.60     835.1375     55.15651     203.8208        13     1.551     0.569  38.96   0
       504    168.8471    269.0673 307.8677765  +6.5665579     1796.093     2881.649     2554.662     78.43869     156.4424     312.9159      1.645     5.64     836.9619     55.15651      278.141        16     1.445     0.774  42.67   0
       505    578.3792    264.6641 307.6978267  +6.5821248     2154.425     3158.329      3097.09     78.06547     156.5046     312.7914      1.669     5.61     837.4009     55.15651     290.6669        18     1.577     0.703  45.05   0
       506    922.2511    263.8798 307.5550186  +6.5939488     1708.951     2746.096      3138.52     78.43869     156.5668     312.9159      1.748     5.28     841.8643     55.15651     258.0284        16     1.547     0.664  43.04   0
       507    742.0074    262.2083 307.6299438  +6.5886162      5023.52     7711.381     7451.298     77.81566     156.3179     312.7914      1.622     5.27     841.1036     55.15651     876.2035        23     1.566     0.763  45.01   0
       508    682.9244    262.0717 307.6544897  +6.5866958     2177.795      3429.34      3699.31     78.68652     156.7532     312.9159      1.664     4.83     840.1073     55.15651     358.4075        21     1.613     0.742  47.28   0
       509    970.8090    260.2080 307.5349721  +6.5970856     1709.099     1686.523     1920.583     77.81566     156.3179     312.7914      0.707     1.71     841.0187     55.15651     702.0438         5     0.625     0.373  18.59   0
       510    873.4517    259.1347 307.5754486  +6.5942786     573.3016     837.8301     889.9582     78.43869     156.4424     312.9159      1.651     4.72     842.0583     55.15651     86.48865         6     1.378     0.458  26.15   0
       511    397.8608    256.2695 307.7730904  +6.5795376     709.0845     1030.623     989.4946     78.56271     156.5046      312.947      1.558     4.64     835.1169     55.15651      123.795         7     1.308     0.468  27.63   0
       512    937.8416    254.2975 307.5488651  +6.5984259       1010.8     1561.319     1617.973     78.43869     156.3801     313.1336      1.688     5.74     841.3585     55.15651     143.2391        13     1.568     0.591  48.41   0
       513    241.4112    247.5769 307.8383661  +6.5778713     2393.367     3785.087     4167.901     78.06547     156.3179     312.7914      1.790     5.11     835.3397     55.15651     295.7629        22     1.513     0.866  36.79   0
       514    884.2314    246.4695 307.5713974  +6.5998681      1720.14     2565.726     2688.528     78.31448     156.5046     312.9159      1.542     4.61     841.4301     55.15651     290.8352        17     1.463     0.720  47.02   0
       515    774.7222    245.8514 307.6169063  +6.5964639     1652.406      2653.66      2789.87     78.43869     156.5668     312.9159      1.868     5.85     841.2101     55.15651     254.4579        16     1.574     0.674  48.22   0
       516    263.3218    241.3278 307.8294773  +6.5811880     515.1447     702.2047     528.8236     78.68652     156.7532     312.9159      1.543     4.11     834.9398     55.15651     84.56659         5     1.246     0.387  52.26   0
       517    475.4669    237.3763 307.7414949  +6.5899422     22938.83     35634.91     36621.34     78.06547     156.4424     312.8537      1.708     5.54      835.047     55.15651     3191.415        43     1.657     0.919  41.79   0
       518    801.4709    236.5017 307.6061105  +6.6012187     13397.68     20583.13     21892.38     78.31448     156.6911     312.9159      1.719     5.48     841.0802     55.15651     1990.104        42     1.620     1.028  35.16   0
       519    481.3815    232.0188 307.7392193  +6.5923526     1351.541     2159.401     2872.376     78.19007     156.4424     312.8537      1.656     4.75     834.8835     55.15651      250.925        15     1.545     0.734  39.67   0
       520    163.5518    230.7977 307.8712735  +6.5821806     2350.483     3846.812     3395.844     77.81566     156.1933     312.5112      1.727     5.08     836.0037     55.15651     361.5798        18     1.517     0.730  37.27   0
       521    190.3554    229.1909 307.8601952  +6.5837457      752.061     995.5698     1063.643     77.94067     156.3801     312.6358      1.648     5.49     835.5485     55.15651     123.0325         8     1.320     0.644  39.04   0
       522    138.3938    229.7689 307.8817577  +6.5817588     1196.583      1652.24     1751.373     77.81566     156.3179      312.698      1.529     5.45     836.5881     55.15651     205.3268        12     1.330     0.629  36.10   0
       523    740.1247    232.3594 307.6317323  +6.6008778      592.074     661.3368     744.7614     78.31448     156.5046      312.947      1.352     4.48     840.6101     55.15651      94.0296         7     1.106     0.516  46.47   0
       524    937.7351    226.8602 307.5498327  +6.6097513     1336.427     2052.495     1738.743     78.43869     156.4424      312.947      1.613     4.51     840.5726     55.15651      241.115        13     1.447     0.588  40.60   0
       525      2.0502    224.4241 307.9385681  +6.5793740     4271.663     5320.312     5314.889     75.78754     134.7084     246.7858      1.356     4.94     837.8204     55.15651        619.1        16     1.264     0.721  57.74  24
       526    599.5197    223.0921 307.6904495  +6.5999980     4712.002      7190.88     7214.044     78.19007     156.7532     312.9781      1.659     5.23     836.9162     55.15651     689.1343        25     1.588     0.767  43.96   0
       527    319.9597    224.0408 307.8065380  +6.5902287     1112.261     1514.542     1279.935     78.19008     156.5046     312.7914      1.555     5.51     834.3427     55.15651     188.4303        12     1.383     0.620  46.86   0
       528    562.1187    223.0332 307.7059870  +6.5987692     2189.263     3275.534     3661.009     78.31448     156.4424     312.9159      1.630     4.74     835.8177     55.15651     365.5991        18     1.517     0.697  44.67   0
       529    404.0041    222.2753 307.7716888  +6.5937796     1588.307     2312.429     2304.432     78.06547     156.0062     312.8225      1.564     4.79     834.5129     55.15651     269.9208        15     1.423     0.673  42.96   0
       530    960.4402    220.2982 307.5406219  +6.6132186     2813.874     4012.438     3911.581      78.4387     156.3801     313.1336      1.597     5.71     840.1439     55.15651       396.89        19     1.484     0.749  45.23   0
       531    906.5508    219.7460 307.5630259  +6.6116477     11288.98     17262.73     17676.73     78.43869     156.5046      312.947      1.675     5.86     840.2294     55.15651      1522.52        34     1.628     0.860  43.00   0
       532     32.6894    216.3927 307.9261152  +6.5837223      26051.1     40708.44     42484.63     77.94067     156.1933     312.6669      1.713     5.03     837.7701     55.15651     3667.145        54     1.726     0.984  43.98   0
       533    334.1585    219.8875 307.8007810  +6.5924205     950.9775     1549.971      1675.13     78.43869     156.5046      312.947      1.864     6.43     834.3427     55.15651     139.0143        14     1.605     0.723  56.39   0
       534    581.5595    219.5501 307.6980294  +6.6008588     917.5849     1218.245     1436.905     78.56271     156.5046     312.8537      1.689     4.24      836.317     55.15651     168.5441        10     1.327     0.601  46.62   0
       535    225.7284    219.6600 307.8458260  +6.5888705     648.1979     984.0329     1119.795     78.56271     156.5046     312.9781      1.735     5.14     834.8514     55.15651     131.9409         9     1.594     0.469  40.88   0
       536    993.2197    217.5333 307.5270985  +6.6154539     9350.403     14780.41     15409.85     78.06547     156.5046     312.8225      1.694     4.96     839.9059     55.15651     1392.446        32     1.660     0.845  44.01   0
       537    704.5424    217.5003 307.6470138  +6.6058228     2928.494     4514.617     4894.876     78.19008     156.5046     313.1336      1.694     5.85     839.1744     55.15651     415.3159        22     1.567     0.748  44.23   0
       538    279.0322    217.3413 307.8237645  +6.5916197     1175.031     1635.867     1683.096     78.31448     156.5668     312.8537      1.491     5.37     834.4194     55.15651     193.3961        13     1.450     0.615  45.00   0
       539    513.1815    212.4214 307.7266729  +6.6015106     2116.026     3018.122     2648.464     78.19008     156.4424     312.8537      1.558     4.92     834.7614     55.15651     371.7831        17     1.477     0.716  46.27   0
       540    845.0918    209.0690 307.5889152  +6.6140034     2000.232     3069.708     3134.292     78.43869      156.629     312.9159      1.579     4.75     839.6178     55.15651     344.2374        18     1.507     0.708  43.59   0
       541    525.0627    208.3761 307.7218744  +6.6035792     2614.607     4063.303     3844.361     78.06547     156.5046     312.8225      1.703     5.05     834.8126     55.15651     424.0514        20     1.545     0.774  41.83   0
       542    897.6020    208.2546 307.5671301  +6.6160937     1989.198     3076.119     3080.847     77.81566     156.3179     312.5735      1.587     5.23     839.4991     55.15651     291.4677        13     1.439     0.604  38.82   0
       543    756.7186    205.6657 307.6257395  +6.6124546     41017.17     61611.51     64026.38     78.68652     156.6911     312.9159      1.665     6.05     839.6646     55.15651     6131.986        52     1.642     0.897  44.29   0
       544    359.4838    206.9508 307.7906997  +6.5986124     3733.726     5444.356     6018.211     78.43869     156.5046     313.0092      1.624     5.49     834.3514     55.15651     498.6393        21     1.585     0.729  40.29   3
       545    360.1397    203.7648 307.7905351  +6.5999498     5184.049     8322.074     8837.702     78.43869     156.5046     312.8848      1.747     4.69     834.3502     55.15651     699.0953        29     1.639     0.878  40.91   3
       546    990.4607    204.4068 307.5286861  +6.6207819     2753.173     4362.925     4517.963     77.81566     156.3179     312.6669      1.709     5.43     838.8163     55.15651     377.4584        22     1.635     0.741  45.12   0
       547    924.5939    202.7819 307.5561019  +6.6192546     7261.477     11159.72     10854.08     78.06547     156.1933     312.7603      1.686     5.90     839.1832     55.15651     1055.558        30     1.627     0.831  44.84   0
       548    468.0920    201.8195 307.7457604  +6.6043760     5028.233     7907.245     8335.831     78.31448     156.2556     312.7914      1.694     5.60     834.2928     55.15651     756.9714        23     1.566     0.781  45.20   0
       549    242.4637    198.6424 307.8395872  +6.5981110     778.8911     1165.875     877.9419      78.4387     156.4424      312.947      1.691     6.07     834.5872     55.15651     148.8982        11     1.564     0.662  43.61   0
       550    125.4555    193.1946 307.8883723  +6.5964242      4833.62     7341.273     7160.451     77.94067     156.3179     312.6358      1.654     5.06      835.724     55.15651      672.418        23     1.526     0.812  43.84   0
       551    944.5956    192.1879 307.5481497  +6.6242966      868.536     1583.876     2576.933     78.06547     156.2556     312.7914      2.279     5.61     838.3442     55.15651     132.3107        11     1.475     0.602  41.78   0
       552    271.1306    190.9535 307.8279404  +6.6022493     6737.123     10365.65     10884.05     78.43869     156.4424     312.9159      1.627     4.53     834.4166     55.15651     1032.988        27     1.554     0.845  41.89   0
       553    622.2569    191.5901 307.6820685  +6.6137665     758.5806     1131.991     1285.215     77.81566     156.4424     312.6358      1.689     5.33     836.5345     55.15651     138.2316         9     1.348     0.595  35.95   0
       554    295.7913    189.8870 307.8177333  +6.6035184     34251.65     53238.23     54599.27     78.06547     156.1933     312.7292      1.657     5.00     834.3427     55.15651     5038.058        50     1.658     0.928  42.74   0
       555    725.1996    189.3427 307.6393827  +6.6181401     880.3789     1404.446     1152.634     77.69045     156.1309     312.6046      1.599     5.03     838.7543     55.15651     188.6566         9     1.295     0.553  34.19   0
       556    419.8611    185.3285 307.7663521  +6.6095668      50746.4     78490.62     81477.59     78.56271     156.5046     312.9781      1.663     4.95     834.2451     55.15651     8071.974        62     1.675     0.967  44.31   0
       557    175.7906    186.7408 307.8676841  +6.6007827     3980.399     6304.051     6387.973     77.81566     156.3801     312.6358      1.665     4.83     834.2655     55.15651     562.5032        24     1.581     0.837  46.12   0
       558    436.9884    185.6960 307.7592254  +6.6099898     1442.284     2318.406     2520.965     78.19007     156.2556     312.7292      1.651     6.08      834.188     55.15651     217.8687        15     1.405     0.780  48.19   0
       559    590.3609    184.4462 307.6955590  +6.6156479     471.9537     708.9093     1045.156     78.31448     156.5046     312.7914      1.944     4.30     835.5529     55.15651     98.66479         6     1.511     0.348  34.73   0
       560    323.8429    183.0637 307.8063125  +6.6072781     18418.55     28475.35        29465     78.43869     156.4424      312.947      1.636     5.11     834.3427     55.15651     2932.396        40     1.626     0.900  43.29   0
       561    759.1608    181.5556 307.6255379  +6.6224914     33248.88     50985.73      53016.7     78.19008     156.5046     312.8225      1.644     5.37     838.5864     55.15651     5328.992        51     1.639     0.916  44.22   0
       562    707.3936    183.5083 307.6469760  +6.6199534     952.9096     1503.341     1437.014     78.06547     156.1933     312.7292      1.545     5.05     838.2346     55.15651     147.3633        10     1.458     0.494  39.71   0
       563    331.3169    183.0592 307.8032082  +6.6075310      2299.98     3712.395     4531.861     78.43869     156.5668     312.9781      1.776     4.77     834.3427     55.15651     350.8718        20     1.530     0.801  41.78   0
       564     46.3716    181.8164 307.9216064  +6.5984590     651.2673     1159.206     1447.433     78.06547     156.2556     312.8225      1.940     5.40       837.65     55.15651     95.54022         8     1.455     0.566  33.55   0
       565     75.9098    178.8667 307.9094377  +6.6006718      9250.39     14374.12      14545.6     78.56271      156.629     312.9159      1.638     4.98     836.8875     55.15651      1345.47        34     1.585     0.912  43.12   0
       566    807.5671    182.1798 307.6054088  +6.6238520     1211.758     1799.734     1970.034     77.94067     156.3179     312.7603      1.621     5.22     838.3016     55.15651     183.9279        15     1.526     0.691  40.02   0
       567    109.7090    176.6797 307.8954731  +6.6027128     1453.815     2219.111     2041.207     78.19008     156.6911     312.9781      1.659     5.08     835.7787     55.15651     210.6342        16     1.538     0.753  44.69   0
       568   1017.3472    175.6560 307.5184842  +6.6335501     1084.581     1658.621     2107.899     78.56271     156.5046     309.7263      1.740     5.59     836.2137     55.15651     128.2206        12     1.319     0.667  42.13  16
       569   1018.7408    162.6050 307.5183442  +6.6389853     2203.997     3530.265     4574.975     77.94067     156.3801      299.109      2.011     8.23     835.0554     55.15651     329.7365        23     2.157     0.877  61.13  16
       570    593.0294    166.1421 307.6950687  +6.6232950     858.9955     1387.209     1262.945     78.06547     156.5668     312.8225      1.438     4.45     835.1171     55.15651     141.0071         7     1.195     0.471  47.53   0
       571      9.2773    163.7261 307.9376280  +6.6046782     955.6683      1401.43     1257.427     78.68652     156.7532      312.947      1.659     5.43     838.8469     55.15651      133.377        11     1.407     0.592  36.27  16
       572    601.5786    160.2836 307.6917152  +6.6260003     1057.173     1397.277     1947.005     78.19008     156.1933     312.7914      1.636     5.88     835.1218     55.15651     174.6379        12     1.268     0.922  20.79   0
       573    609.9998    158.0214 307.6882934  +6.6272164     2019.976     3152.927     3862.054     78.06547     156.1933     312.6046      1.704     4.55     835.2225     55.15651     334.0049        18     1.495     0.731  42.85   0
       574    353.9572    158.0591 307.7946503  +6.6186136     1111.064     1719.044      1857.45     78.31448     156.5046     313.0092      1.785     6.21     834.3642     55.15651     175.1042        15     1.720     0.662  50.09   0
       575    294.7115    156.1445 307.8193247  +6.6174139      31245.8     48068.98     49935.97     78.43869     156.3801     313.0714      1.666     5.26     834.3865     55.15651     4787.842        50     1.665     0.942  42.32   0
       576     39.9057    154.6046 307.9252160  +6.6094763     4384.851     6641.274     7175.367     78.19007     156.1933     312.6669      1.648     5.03     837.7095     55.15651     687.1949        25     1.545     0.810  41.04   0
       577    203.8866    154.0266 307.8571231  +6.6152349     996.5461     1458.898     1080.961     78.56271     156.3179     312.8225      1.554     5.00     833.7575     55.15651     167.0167        10     1.514     0.467  38.19   0
       578    726.4026    152.7208 307.6401182  +6.6333015     8198.759     12291.06     12812.42     77.81566     156.0062      312.698      1.669     5.66     837.1699     55.15651     1211.485        29     1.571     0.821  43.53   0
       579    280.8751    151.4117 307.8252324  +6.6189030     705.7629     1123.989     1201.792     78.06547     156.1933     312.7292      1.662     5.45     834.3904     55.15651     125.2067        10     1.732     0.484  49.95   0
       580    137.1334    149.8691 307.8849916  +6.6147055     4876.675      7565.09     8020.932     78.43869     156.5668     312.9159      1.650     4.86     833.7752     55.15651      699.576        25     1.569     0.824  41.39   0
       581    599.1145    147.9155 307.6931565  +6.6310244     764.9888     847.6339     878.2075     78.19008      156.629      312.947      1.407     4.90     834.7354     55.15651     125.0852         9     1.273     0.535  47.05   0
       582    476.1066    147.0615 307.7442827  +6.6272539     1471.209     1857.262     1582.689     78.31448     156.5046     312.9781      1.466     5.18     833.6042     55.15651     235.0824        13     1.381     0.643  37.75   0
       583    407.8291    146.0338 307.7726795  +6.6253874     3738.081     6289.059      6704.62     77.94067     156.2556      312.698      1.726     5.27     834.1207     55.15651     521.8995        25     1.650     0.822  45.23   0
       584    664.5873    146.7204 307.6659992  +6.6337104     893.8686     1420.938     1403.443     78.06547     156.1933     312.7603      1.674     4.37     836.1732     55.15651     133.8068        10     1.118     0.634  36.62   0
       585    372.2025    144.8496 307.7875185  +6.6246803     3298.975     5163.816     4995.744     77.81566     156.1309     312.5112      1.655     4.99     834.3582     55.15651     475.5896        22     1.536     0.789  41.45   0
       586    126.5659    144.7351 307.8895552  +6.6164696     1769.189     2682.125     3097.786     78.31448     156.5046     312.9159      1.667     5.13     834.0049     55.15651     233.0317        17     1.530     0.730  48.62   0
       587    762.3945    142.8227 307.6255005  +6.6385922     483.3749     745.1308     966.1752     78.06547     156.2556     312.7603      1.688     4.21     836.3895     55.15651     81.69958         5     0.949     0.532  39.60   0
       588    688.5458    142.6968 307.6561824  +6.6361736     744.5844     1192.897     748.9941     78.31448     156.5046     313.1336      1.534     4.71     836.2181     55.15651     120.8756         7     1.443     0.436  42.43   0
       589     65.2206    140.6427 307.9151751  +6.6160936     368.6066     540.0146      579.571     77.94067     156.3801     312.7603      1.791     3.42     836.3176     55.15651     78.52527         5     1.246     0.272  55.38   0
       590   1019.1851    138.8896 307.5189572  +6.6487923     1357.894     2060.023     2283.887     78.19007     156.3179     295.1116      1.644     5.74     834.3719     55.15651     218.8696        17     1.638     0.670  41.98  16
       591    745.0115    138.9996 307.6328506  +6.6395894     548.5793     571.7361     316.7686     78.06547     156.1933     312.7292      1.372     3.82     836.2089     55.15651     79.04816         5     1.044     0.400  31.49   0
       592    863.0125    133.6063 307.5840127  +6.6457608     583.8036      1046.89     2197.385     78.06547     156.3179     312.8225      2.311     4.62      835.288     55.15651     121.6699         7     1.801     0.337  47.73   0
       593    224.1332    133.6938 307.8494024  +6.6243109     5544.335     8535.029     8538.085     78.31448     156.6911     312.9159      1.625     4.80     833.7011     55.15651     797.4555        26     1.554     0.838  41.76   0
       594    106.8578    133.6823 307.8981165  +6.6203695     2332.313     3719.691     3750.614     78.56271     156.5046     312.9781      1.618     4.56     834.2676     55.15651     348.1217        21     1.525     0.794  45.66   0
       595    685.9048    132.4580 307.6576249  +6.6403128      6191.59     9457.849     9272.334     78.31448     156.5046     313.0403      1.655     5.34     835.4886     55.15651     975.3224        27     1.602     0.806  46.40   0
       596    834.1770    132.2650 307.5960368  +6.6453512     1198.849     1668.006     1582.351     78.06547     156.5046     312.8225      1.447     4.97     835.3156     55.15651     208.4279        10     1.166     0.600  39.16   0
       597    638.0995    129.7802 307.6775742  +6.6398181     9497.211     14493.63     15349.65     78.43869     156.3801      312.698      1.627     4.84     834.7738     55.15651     1539.792        34     1.607     0.871  42.00   0
       598    272.7656    130.1902 307.8293199  +6.6273925     857.6746     1407.972     1141.496     77.94067     156.3179     312.7603      1.486     5.85     834.3673     55.15651     136.9606        11     1.465     0.658  52.40   0
       599    576.4968    129.4931 307.7031742  +6.6378732     736.1769     1183.013     1312.415      78.4387     157.0014     312.8537      1.574     5.06     833.9923     55.15651     104.9738         9     1.386     0.522  45.60   0
       600     36.8305    128.7952 307.9273698  +6.6200288     833.6498     1520.651     1207.407     77.94067     156.3801      312.698      1.819     7.08     837.3021     55.15651     140.0501        13     1.503     0.935  28.55   0
       601    365.2812    125.4839 307.7910491  +6.6324437     3748.981     6645.278     6766.679     78.19008     156.7532     312.9781      1.900     4.85     834.5464     55.15651     551.5889        33     1.523     1.245  43.34   0
       602   1011.5323    124.3069 307.5226269  +6.6545584     722.8643     1436.378     2251.647     78.31448     156.6911      312.947      2.361     5.26     834.0832     55.15651     99.12152         9     1.235     0.634  42.91   0
       603    546.9658    124.5792 307.7156076  +6.6389125     1804.256     2741.335     2865.724     77.94067     156.3179      312.698      1.649     5.93      833.666     55.15651     313.8016        15     1.474     0.671  41.32   0
       604    641.6221    121.2818 307.6763978  +6.6434450     54350.88     82471.28     85331.52     78.19008     156.1933     312.8537      1.650     5.72     834.4103     55.15651     8551.896        58     1.645     0.926  43.12   0
       605    598.6168    119.3990 307.6943263  +6.6427821     452.2986     544.3524     323.8841     78.06547     156.0686     312.6046      1.340     4.18      833.939     55.15651     84.29974         5     0.997     0.500  42.28   0
       606    320.6468    114.9152 307.8099479  +6.6353083     3604.075     5756.234     5653.578     78.43869     156.4424     312.9159      1.690     5.23     834.7456     55.15651     510.5329        27     1.596     0.887  45.55   0
       607    516.2515    112.3941 307.7287784  +6.6429140     584.2133     818.5433     849.5644     77.94067     156.3179     312.5735      1.337     3.97     833.4582     55.15651     104.1718         6     1.180     0.383  32.59   0
       608     18.1127     98.0674 307.9361883  +6.6320848       724245      1495135      1614193     78.56271     156.7532      312.947      2.144    11.76     837.9008     55.15651      61964.3       433     2.228     1.730  46.39   4
       609    720.5443    109.4082 307.6440128  +6.6509891     905.7734     1367.262     1181.526     77.81566     156.3801     312.6358      1.584     5.45     834.0667     55.15651     172.8152        10     1.465     0.572  47.14   0
       610    691.9745    108.4984 307.6559120  +6.6504088     1430.623     2255.136     2542.712     78.56271     156.2556     312.7914      1.734     5.61     833.9505     55.15651     219.6057        15     1.482     0.693  37.76   0
       611    706.0168    105.2310 307.6501887  +6.6522278     3204.862     4787.278      4446.91     78.06547     156.2556     312.8225      1.581     5.08     833.7708     55.15651     576.4724        20     1.577     0.720  46.76   0
       612     78.4055    103.4925 307.9109596  +6.6318761      472.802     433.0999     733.3346     78.06547     156.1933     312.7292      1.332     4.95     834.2538     55.15651     91.95349         7     1.287     0.538  40.29   0
       613    447.7219     96.2562 307.7577920  +6.6472787     4215.882     6407.792     6372.583     78.43869     156.5046     312.9159      1.621     5.53     833.6779     55.15651     665.6351        23     1.580     0.773  43.51   0
       614    902.3170     92.6685 307.5690633  +6.6639768     2129.861     3286.616     3535.563     78.68652     156.7532      312.947      1.675     5.36     833.3141     55.15651     344.2034        18     1.516     0.831  47.57   0
       615    920.3339     91.6126 307.5616140  +6.6650144     3878.243     6013.161     5696.738     77.94067     156.3179     312.8225      1.664     5.68      833.283     55.15651     535.1335        22     1.508     0.781  44.54   0
       616    600.5612     92.0181 307.6944433  +6.6541526     656.1078     903.3665      874.703     78.06547     156.3179      312.698      1.480     5.16     833.1198     55.15651     113.3098         8     1.380     0.545  26.13   0
       617    612.3331     90.1348 307.6896166  +6.6553245     1655.468     2591.685      2408.06     78.43869     156.5046      312.947      1.646     5.56     833.0412     55.15651     229.5015        16     1.443     0.832  37.01   0
       618    258.1280     89.3386 307.8367845  +6.6437673     788.8365     1430.079     1638.943     78.56271     156.5046     312.9781      1.635     4.92     833.9167     55.15651     140.2482         9     1.533     0.447  50.58   0
       619    411.1904     88.0335 307.7732457  +6.6494478     1745.768     2821.018     2408.877     77.94067     156.3179     312.7603      1.622     5.49     833.9604     55.15651     320.2415        16     1.640     0.648  43.17   0
       620    159.0465     84.9853 307.8780903  +6.6422322     3292.612     5234.541     5129.979     77.81566     156.3179     312.6669      1.658     5.23     831.8727     55.15651     494.4849        25     1.621     0.834  43.76   0
       621    307.3602     83.3552 307.8165361  +6.6478924     1368.934     2165.276     2565.955     78.19008     156.5046     312.8225      1.816     5.75     835.0847     55.15651     217.6108        13     1.605     0.579  54.39   0
       622     40.8888     82.8061 307.9272458  +6.6391533     12522.54     19634.22     21071.22     77.94067     156.1933      312.698      1.669     4.84     835.1008     55.15651     1834.533        37     1.646     0.903  43.99   0
       623    776.1913     82.2978 307.6218098  +6.6640442     814.0934     1144.706     1021.114     78.19008     156.1309      312.698      1.544     5.28     832.7855     55.15651     178.7485        10     1.129     0.696  41.00   0
       624    580.7114     82.8273 307.7029998  +6.6572824     645.3105     1024.134     891.4572     78.56271     156.2556     312.8225      1.758     5.05     832.6835     55.15651     95.64819         7     1.145     0.629  29.55   0
       625    568.1209     82.5731 307.7082388  +6.6569655     692.5931     947.4173     470.2775     78.31448     156.4424     312.9159      1.310     4.12     832.6512     55.15651     120.9849         7     1.380     0.352  44.77   0
       626    842.7083     77.3549 307.5943428  +6.6683085     6200.916     9471.647     9524.953     78.43869     156.4424     313.0403      1.672     5.47     832.7572     55.15651     909.8591        27     1.603     0.860  47.58   0
       627    787.8203     77.7583 307.6171317  +6.6663073     3400.733     5237.194      5741.42     78.06547     156.3179     312.7603      1.675     5.35      832.668     55.15651     513.6746        21     1.490     0.785  45.32   0
       628    432.9870     78.4509 307.7645153  +6.6541358     1061.995     1382.035     1130.989     77.81566     156.4424     312.6669      1.377     4.97     833.3477     55.15651     180.5579        11     1.207     0.608  50.28   0
       629    909.3436     78.0543 307.5666363  +6.6702457     792.2668     1076.153     1499.235     78.56271     156.5668      312.947      1.667     4.22      832.848     55.15651     108.0294         7     1.228     0.413  33.65   0
       630    112.3908     78.0378 307.8977065  +6.6435302      542.199     922.3419     817.4759     77.69045     156.3179     312.6358      1.606     3.88     832.0682     55.15651     96.93201         5     1.306     0.330  41.64   0
       631    774.7578     77.0161 307.6225834  +6.6661770     492.8425     946.5734     1134.279     77.94067     156.3179      312.698      1.694     4.44     832.6313     55.15651     97.70728         7     1.204     0.466  31.67   0
       632     65.8276     75.8391 307.9171231  +6.6428699     1048.575     1650.701     1441.285     78.06547     156.3179     312.7914      1.621     5.74     833.3967     55.15651     161.0977        12     1.374     0.674  33.18   0
       633    550.0129     75.6418 307.7159954  +6.6592204      1183.42     1889.935     2190.662     77.81566     156.3179     312.6669      1.718     5.52     832.2426     55.15651     213.3021        11     1.438     0.597  43.13   0
       634     81.1692     74.6984 307.9107891  +6.6438576     3373.506     5214.066     5534.602     78.43869     156.2556     312.9781      1.649     5.26     832.7152     55.15651     520.0921        20     1.559     0.712  43.74   0
       635    442.4319     74.1706 307.7607366  +6.6562201     985.4216     1529.165     1792.021     77.94067     156.2556     312.6669      1.811     5.99     833.0748     55.15651     135.4837        12     1.522     0.662  44.57   0
       636    605.1789     71.3120 307.6932243  +6.6628567     1274.626     1966.217     1065.357     78.43869     156.2556     312.7914      1.643     4.72     832.2357     55.15651     221.5236        13     1.431     0.616  34.58   0
       637     23.6759     70.1336 307.9348262  +6.6438054      2608.62     4443.412     5513.031     78.56271     156.5668     312.8848      1.937     6.39     834.4954     55.15651     391.9463        23     1.629     0.865  35.11   0
       638    423.0728     65.3847 307.7690759  +6.6591980     1212.134     1708.578     1596.821     77.94067     156.3179     312.8225      1.617     4.86     833.1867     55.15651     221.6338        12     1.412     0.649  42.39   0
       639     96.4924     66.2973 307.9047091  +6.6478422     844.9717      1123.46     812.6111     78.43869     157.0014     312.8537      1.414     4.09      831.791     55.15651     143.4516         8     1.139     0.488  49.53   0
       640    782.4625     65.2357 307.6197797  +6.6712988      1987.74     3162.149     2584.907     78.31448     156.5046     312.8848      1.683     5.56     832.2659     55.15651      294.425        17     1.577     0.695  38.75   0
       641    120.1515     64.3988 307.8949456  +6.6494227      976.018     1645.733     1841.521     77.81566     156.1309       312.48      1.725     5.34     831.6607     55.15651     167.7634        14     1.574     0.731  48.20   0
       642    108.9760     59.0175 307.8997705  +6.6512682      9607.66     15210.37     15988.06     78.19008     156.3801     312.8537      1.671     4.80     831.5297     55.15651     1518.312        34     1.630     0.893  45.89   0
       643    438.1023     58.7991 307.7630552  +6.6624215     2615.261     4055.402     4053.735     77.94067     156.1309     312.5735      1.631     4.85     832.7042     55.15651     398.3659        20     1.548     0.773  42.36   0
       644    275.6278     52.7843 307.8307537  +6.6594482     1702.398     2733.522     3429.659     78.06547     156.3179     312.8225      1.799     5.28     834.8229     55.15651     228.7047        15     1.492     0.671  37.08   0
       645    651.7607     50.9369 307.6745607  +6.6728294     18637.63      28316.9     29438.33     78.43869     156.4424      312.947      1.619     5.31     831.5643     55.15651     3047.087        35     1.602     0.844  44.23   0
       646    680.7964     52.1328 307.6624578  +6.6733077     554.0977     889.6716     612.1212     77.81566     156.1933      312.698      1.657     5.43     831.6898     55.15651     83.55377         7     1.010     0.824  -0.08   0
       647    960.9809     51.0447 307.5460930  +6.6831217     519.6774     646.4512     331.4731     78.06547     156.3801     312.7292      1.470     3.76     831.3413     55.15651     84.54572         5     1.033     0.392  31.60   0
       648    551.5569     47.0763 307.7163193  +6.6710666     5220.523      7847.77     8328.403     78.31448     156.5046      312.947      1.647     5.46      830.752     55.15651     769.3762        23     1.527     0.775  39.67   0
       649    638.1166     41.5063 307.6805474  +6.6762664     3223.291     5543.367     6547.835     78.19007     156.8153     313.0403      1.968     6.87      831.172     55.15651     486.6006        32     2.215     0.915  63.56   0
       650     19.1021     45.5684 307.9375606  +6.6537935     1162.398     1688.269     1539.766     78.43869     156.3179     313.0092      1.588     5.50     831.8721     55.15651     161.1609        12     1.423     0.600  40.47   0
       651    457.0620     42.6595 307.7557248  +6.6697214     23224.25      35760.8     36947.44     78.43869     156.4424      312.947      1.660     5.05      831.728     55.15651     3468.306        44     1.642     0.905  43.00   0
       652    277.6634     43.0523 307.8302378  +6.6635348     9373.274     14750.48     16128.67     78.43869     156.4424     312.8848      1.694     5.58     835.0071     55.15651     1379.279        34     1.649     0.885  45.76   0
       653    935.0236     42.7414 307.5571565  +6.6856837     1964.763      3204.11     2887.519     78.06547     156.5046     312.7914      1.662     5.14     831.6139     55.15651     298.4925        18     1.522     0.744  43.04   0
       654    269.8656     47.4062 307.8333296  +6.6614751     2063.144     3207.202     4218.854     77.94067     156.2556     312.7292      1.711     5.13     834.5532     55.15651     290.5311        17     1.582     0.647  39.24   1
       655    522.9971     44.0332 307.7282869  +6.6713657     485.7747     833.1049     666.6799     77.69045     156.3179     312.6358      1.694     3.81     830.7378     55.15651     107.0701         5     1.665     0.250  32.43   0
       656    337.8040     43.4550 307.8052406  +6.6653894     1076.694     1715.439     2050.798     77.81566     156.3179     312.5735      1.748     5.22     835.6031     55.15651     149.9279        12     1.507     0.670  28.48   0
       657     43.0782     42.7027 307.9276983  +6.6557846     2203.857     3294.287     3381.234     78.19007     156.6911      312.947      1.636     5.30     831.3595     55.15651     362.2469        16     1.533     0.681  44.64   0
       658    570.2678     42.4059 307.7087040  +6.6736221     642.6383     1264.294     740.0527     77.94067     156.1309     312.7292      1.803     4.62      830.669     55.15651     111.9335         6     1.375     0.440  37.76   0
       659    265.6750     39.7771 307.8353290  +6.6644841     3039.217     4705.201     5326.851     78.06547     156.3801     312.8537      1.719     5.80     834.3672     55.15651     377.3077        20     1.560     0.773  48.02   0
       660    318.4781     37.5807 307.8134679  +6.6671656     1083.181     1634.386     1587.581     77.94067     156.1933     312.8848      1.741     5.99     835.6679     55.15651     147.6627        13     1.493     0.677  48.42   0
       661    955.4050     32.9556 307.5490183  +6.6904046     1080.924     1495.472     1275.583     77.81566     156.1309     312.5735      1.561     5.50     830.6994     55.15651     137.1282        12     1.220     0.700  31.81   0
       662    706.9881     32.0766 307.6522535  +6.6824654     1798.495     2933.416     3134.439     78.06547     156.1309     312.7603      1.790     5.26     831.1069     55.15651     294.7106        19     1.519     0.818  46.81   0
       663    111.5747     32.7323 307.8995831  +6.6622082     471.5961      945.588     787.2766     78.06547     156.3801     312.8225      1.633     3.71     830.7944     55.15651     88.72394         5     1.623     0.244  47.98   0
       664    218.3531     28.2890 307.8553767  +6.6676361     800.3276     1351.186     1137.642     78.43869     156.3801     313.0714      1.839     6.43     831.8495     55.15651     120.6427        12     1.475     0.786  41.92   0
       665    272.4491     27.2810 307.8329384  +6.6698712     913.1415     1313.907     1875.882      78.4387     156.5668      312.947      1.627     5.92     834.7769     55.15651     138.4847        13     1.352     0.729  44.06   0
       666    195.1691     25.1402 307.8651145  +6.6681563     10705.09     16837.55     16793.37     78.19007     156.5046     312.8848      1.648     4.83     831.5368     55.15651       1728.7        36     1.613     0.907  44.74   0
       667      8.4408     25.3105 307.9426775  +6.6617981     1055.792     1677.452     1603.394      78.4387     156.5046      312.947      1.714     5.21     829.2835     55.15651     177.7632        11     1.421     0.540  45.61  16
       668    539.4130     23.2988 307.7221679  +6.6804770     3049.696     4580.962     4855.689     78.19008     156.2556      312.698      1.625     6.17     829.4991     55.15651     444.3549        20     1.524     0.746  47.01   0
       669    940.7028     22.7386 307.5554705  +6.6941325     3856.641     6078.789     6275.245     78.19008     156.5668     312.9781      1.720     5.52     830.7394     55.15651     576.7848        25     1.608     0.836  42.92   0
       670    477.5642     21.8041 307.7479129  +6.6790202     1883.904     2846.319     3230.691     77.56505     156.3801     312.7292      1.658     4.81     830.3151     55.15651     307.1399        18     1.553     0.714  38.35   0
       671    741.5768     21.1873 307.6382510  +6.6881187     1984.866     2954.702     2529.959     78.19008     156.3179     312.8225      1.612     5.72     830.8885     55.15651      276.973        14     1.425     0.647  47.25   0
       672    456.0515   1020.3027 307.7231020  +6.2660224      811.828     1296.002     985.2156     78.31448     156.5046     283.1931      1.595     5.85     862.4956     55.15651     141.7992        11     1.745     0.552  49.28  16
       673    733.2136   1019.5057 307.6080755  +6.2756298     2546.003     4518.866      5502.22     78.19008     156.2556     291.6606      2.010     5.07     861.7288     55.15651     333.1228        26     1.680     0.945  44.84  16
       674    748.6661   1019.0577 307.6016759  +6.2763314     838.0017     1460.777      1364.51     78.56271     156.4424     296.2639      1.897     4.05     861.6365     55.15651     145.1514         7     1.075     0.618  43.06  16
       675    379.7679   1016.9910 307.7548794  +6.2648317     1785.417     3061.442      2963.75     77.94067     156.2556     311.4502      1.758     5.85     862.7977     55.15651     223.5895        18     1.529     0.794  39.89  16
       676    226.7707   1014.2189 307.8184818  +6.2608400     373.4813     521.7809     414.3543     78.06547     156.3179     312.8537      1.478     4.42     861.3656     55.15651     67.87122         5     0.772     0.719  35.72   0
       677    766.6351   1006.5721 307.5946370  +6.2820873     6933.683     12163.01     12642.97     78.06547     156.2556      312.698      1.861     4.89     861.4981     55.15651     821.8832        33     1.680     1.033  41.86   0
       678    562.0041   1007.1746 307.6795632  +6.2749929      3815.25     6657.027     7741.382     77.94067     156.2556     312.7603      1.882     5.05     863.0304     55.15651     466.3812        30     1.638     1.012  48.50   3
       679    559.2327    999.3301 307.6809782  +6.2781391     7816.954     13032.67     14124.39     78.31448     156.5046      312.947      1.788     4.71     862.9258     55.15651     1020.057        36     1.665     1.016  45.26   2
       680    532.5939   1008.4736 307.6917279  +6.2734715     1034.731     1419.662     1204.145     78.06547     156.0686     312.8225      1.549     6.44     862.8892     55.15651     123.4287        14     1.255     0.927  34.97   0
       681    312.3430   1005.8305 307.7832448  +6.2671772     13735.46     23171.16     25559.35     78.31448     156.5668     312.7914      1.846     4.68     861.3831     55.15651     1679.237        57     1.717     1.470  13.58   0
       682    827.7023   1005.7640 307.5693135  +6.2844613     873.8067     1665.447     1701.439     78.43869     156.3801     313.0714      2.144     7.33     861.1255     55.15651     112.1327        17     1.743     0.863  44.39   0
       683    436.8419   1006.1229 307.7315549  +6.2712332     891.7833     1592.959     1563.339     78.31448     156.5046     312.9781      1.744     6.12     862.4271     55.15651     121.5049        14     1.816     0.579  43.02   0
       684    283.0411   1003.2610 307.7954950  +6.2672544      914.767     1593.724      1743.47     78.43869     156.5046      312.947      1.762     6.92     860.7329     55.15651     108.0582        15     1.607     0.835  34.66   0
       685    928.0235   1000.0815 307.5278582  +6.2901567     7275.995        13771     15241.99     78.19008     156.1933     312.8225      1.992     4.87     860.7271     55.15651     866.7096        44     1.885     1.182  40.65   0
       686    901.5096    996.2256 307.5389946  +6.2908641     10571.05     19580.95     21188.58     78.56271     156.2556     312.7603      2.000     4.80     860.6606     55.15651     1193.482        54     1.857     1.297  38.43   0
       687   1022.6103    995.3978 307.4887491  +6.2952453     3627.306     5726.411     5496.565     77.69045      138.556     251.7072      1.764     4.97     860.8365     55.15651     430.4184        29     1.635     1.046  67.27  24
       688    614.2827    996.6793 307.6582153  +6.2810766     1262.923     2103.675     2007.819     78.56271     156.7532     313.0403      1.704     5.45     862.8697     55.15651     178.9388        15     1.596     0.686  50.98   0
