#   1 NUMBER                 Running object number                                     
#   2 X_IMAGE                Object position along x                                    [pixel]
#   3 Y_IMAGE                Object position along y                                    [pixel]
#   4 ALPHA_J2000            Right ascension of barycenter (J2000)                      [deg]
#   5 DELTA_J2000            Declination of barycenter (J2000)                          [deg]
#   6 FLUX_APER              Flux vector within fixed circular aperture(s)              [count]
#   9 FLUXERR_APER           RMS error vector for aperture flux(es)                     [count]
#  12 FLUX_RADIUS            Fraction-of-light radii                                    [pixel]
#  13 FWHM_IMAGE             FWHM assuming a gaussian core                              [pixel]
#  14 BACKGROUND             Background at centroid position                            [count]
#  15 THRESHOLD              Detection threshold above background                       [count]
#  16 FLUX_MAX               Peak flux above background                                 [count]
#  17 ISOAREA_IMAGE          Isophotal area above Analysis threshold                    [pixel**2]
#  18 A_IMAGE                Profile RMS along major axis                               [pixel]
#  19 B_IMAGE                Profile RMS along minor axis                               [pixel]
#  20 THETA_IMAGE            Position angle (CCW/x)                                     [deg]
#  21 FLAGS                  Extraction flags                                          
         1    793.9698     24.1832 307.6127164  +6.7266464      1858.54      7296.26     9441.712      94.5994     189.3499     379.1147      3.048    10.60      1253.36     66.83842     254.4325        57     2.211     1.933 -76.50   0
         2    899.3034      7.9139 307.5692865  +6.7368381     616.4403     1347.168      2272.68     95.05167     190.1033     376.9213      1.723     4.42     1251.415     66.83842     95.45459         5     1.958     0.283  51.33  18
         3    898.7059     14.0540 307.5693292  +6.7342848     883.5214     1561.316     2805.216     94.90115     189.5762     379.4539      3.913     6.59     1251.659     66.83842     146.2223        10     2.106     0.578  61.03   3
         4    894.8368     16.6638 307.5708567  +6.7330802     1683.874      3193.13     4096.598     94.90115     189.6516     379.2278      2.136     7.69     1251.818     66.83842     209.6022        19     1.508     1.097  32.57   3
         5    894.4764     10.9261 307.5712004  +6.7354359     1453.495     3474.906     5776.268     95.35199     189.9529     379.2278      3.570     8.61     1251.587     66.83842     178.0692        23     1.932     1.071 -89.42  19
         6    529.3849     12.1286 307.7235878  +6.7228655     5646.017     20321.61     29880.26     94.44817     189.5008      379.077      3.236     9.63     1262.188     66.83842     724.0498        86     2.617     2.320 -43.72  18
         7    527.2957      8.6511 307.7245776  +6.7242312      4436.42     6071.277     6370.466     94.90115     189.5762     379.4163      1.517     4.57     1262.497     66.83842     585.1379        11     1.331     0.611  57.16  19
         8      7.2798     12.5448 307.9415414  +6.7053451     1313.752     4304.586      6085.91     95.20195     189.6516     372.5725      3.143     9.76      1289.51     66.83842     236.8773        36     2.283     1.744 -48.57  18
         9    823.9243      3.8328 307.6008959  +6.7360332     14227.06     48312.27     58368.25     94.90115     185.9983     330.1358      2.827     8.48     1252.411     66.83842     1639.172        84     2.358     1.902  -6.85  24
        10    659.6215    990.4800 307.6362225  +6.3234742     3699.104     9433.353        10440      94.5994     189.2743     379.1901      2.426     6.07     1317.089     66.83842     407.6941        45     1.860     1.548 -44.22   0
        11    332.0979   1023.5151 307.7717380  +6.2989954     2940.032     4305.907     4348.042     85.21834      153.862     288.5439      1.503     5.24     1318.944     66.83842     482.5555        16     1.577     0.603   8.92  24
        12    252.2569   1023.1369 307.8050561  +6.2965018     3194.452     5251.321     5316.582       90.269     160.1447     295.7372      1.768     7.00      1318.23     66.83842      462.728        21     1.608     0.879   6.19  24
        13    897.1165    986.5623 307.5372756  +6.3329343     1916.697     4033.704     3558.278     95.05167     189.5762     379.1147      2.093     5.98     1314.844     66.83842     248.8661        27     1.567     1.276 -51.90   0
        14    342.6993    983.9941 307.7686515  +6.3156547     6806.991     21157.97     25066.87      94.7504     189.1988     378.8507      2.655     7.14     1318.808     66.83842     833.1029        71     2.058     1.890 -70.70   0
        15     77.6298    984.8011 307.8791984  +6.3065175     778.0714     1713.259     1209.698     94.29668     189.4253     378.9639      1.905     6.55     1317.154     66.83842     100.1255         8     1.688     0.713 -73.96   0
        16    106.4045    974.9434 307.8675292  +6.3115419     750.3864      1959.05     2833.815     94.29668     189.5008     378.8507      2.807     8.75     1317.283     66.83842     158.3267        13     1.588     1.347  22.01   0
        17    858.3419    968.0114 307.5540757  +6.3393100     1207.714     2992.055     2947.458     94.29668     189.5762     378.8507      2.124     8.84     1314.236     66.83842     152.5944        19     1.660     1.315 -64.61   0
        18    887.7435    967.9233 307.5418125  +6.3403164     1483.598     3003.421     3967.319     95.05167     189.5762     379.1524      2.468     7.73     1313.812     66.83842     186.3887        23     1.772     1.095 -41.23   0
        19    821.6013    967.1740 307.5694318  +6.3384429     1763.135      4157.88     4203.237      94.5994     189.2743     378.9261      2.265     7.05     1314.685     66.83842     233.7802        28     1.732     1.348 -48.02   0
        20     89.5808    967.9048 307.8747857  +6.3138868      1121.48     3041.021     3319.848     94.90115     189.4253     378.9639      2.512     9.54     1316.896     66.83842     169.5518        23     1.940     1.427 -22.47   0
        21    557.7192    959.0167 307.6797947  +6.3330860     142882.9     435364.8     506182.4      94.5994     189.2743     379.0016      2.632     6.64     1317.474     66.83842     16348.28       165     2.198     1.978 -52.68   0
        22    402.0182    961.8218 307.7446549  +6.3267708     2960.169     9982.652     11650.86      94.7504     189.5008     379.1147      2.727     7.44     1318.357     66.83842     426.3085        56     2.037     1.849 -40.03   0
        23    345.1702    960.1620 307.7684263  +6.3255706         5027     16484.35     19440.99      94.5994     189.3499     379.0393      2.714     7.45     1318.706     66.83842     646.6576        64     2.079     1.894 -44.91   0
        24    663.2916    955.8865 307.6358570  +6.3378703     1636.354     4503.036     5610.976      94.7504     190.1785     379.3032      2.681     7.12     1315.685     66.83842      181.384        37     1.792     1.570 -30.24   0
        25    895.9769    954.8982 307.5388154  +6.3459628     3219.588      7451.37     7903.744     95.20195     189.3499     378.9639      2.313     5.46     1312.905     66.83842     364.1578        43     1.753     1.532 -53.98   0
        26    638.3481    950.0627 307.6464594  +6.3394486     1515.392     4374.004     5025.488     95.05167     189.5762     379.1524      2.894     7.03     1315.829     66.83842      241.887        33     1.742     1.673 -62.26   0
        27    826.5452    948.8320 307.5679862  +6.3461748     891.5977     2133.484     1956.931     94.90115     189.6516     379.1524      2.283     8.07     1313.843     66.83842     117.6548        14     1.754     1.039 -26.36   0
        28    631.7756    947.0075 307.6493044  +6.3404919     886.5648     2797.821     5185.929     94.44817     189.5008     379.0016      3.445     8.34     1315.829     66.83842     143.3495        17     2.202     0.882 -39.41   2
        29    951.7347    947.8051 307.5157916  +6.3507285     504.4219     1222.154     1171.477     94.44817     189.2743     378.9261      2.137     5.27     1311.301     66.83842     82.33459         5     1.247     0.629  22.08   0
        30    914.5712    942.5480 307.5314730  +6.3516724     2178.071     4563.102      5015.66      94.7504     189.8023      379.077      2.185     5.59     1311.867     66.83842     276.1781        30     1.652     1.264 -38.74   0
        31    373.9504    938.1479 307.7571640  +6.3356088     1246.071     3022.902      4066.44     95.20195     189.5008     379.1524      2.925     6.83     1318.401     66.83842     176.8251        20     1.730     1.142  33.04   0
        32    511.6830    928.6273 307.7000257  +6.3441017     1071.166     1845.032     3339.048     94.90115     189.3499     379.1147      2.939     9.54     1317.743     66.83842     170.4032        15     2.701     0.941 -34.93   2
        33    509.6766    926.3414 307.7009399  +6.3449785     1125.658     2112.217     3330.454     95.20195     189.6516     379.1524      2.620     7.22     1317.627     66.83842     148.5404        13     1.773     0.824 -36.47   2
        34    556.3080    924.8998 307.6815343  +6.3471173     2762.836     8247.169     10413.36     95.05167     190.1785     379.1524      2.778     6.75     1317.023     66.83842     311.6404        53     2.025     1.727 -18.39   0
        35    891.6320    922.4736 307.5417182  +6.3591994      769.598     1656.727     1833.881     94.90115     189.6516     379.1901      2.083     5.32     1311.156     66.83842     129.5458         8     1.566     0.620 -10.53   0
        36    212.4926    922.8779 307.8250366  +6.3365511     2936.509     2778.907     2660.944      94.7504     189.8776     379.2278      0.703     2.73     1318.353     66.83842      1257.32         6     0.553     0.398  -8.31   0
        37    526.8578    918.6742 307.6940308  +6.3487112     7676.694     24941.91     29563.43     95.05167     189.6516     379.1901      2.721     7.32     1317.158     66.83842      991.827        71     2.082     1.909 -47.60   0
        38    940.3163    916.4147 307.5216102  +6.3633053     2414.349     5072.967     4536.283      94.5994     189.2743     379.0393      2.105     5.24     1309.965     66.83842     286.2367        32     1.599     1.340 -48.05   0
        39    320.1030    907.4406 307.7806661  +6.3464935     1434.436     4229.479     4676.492     95.05167     189.5008     379.4539      2.571     7.89     1318.282     66.83842     184.9523        32     1.862     1.640  82.35   0
        40     37.4202    908.3226 307.8985644  +6.3367367     877.8027     1514.227     1266.476      94.5994     189.3499     379.1524      1.706     5.74     1315.313     66.83842     144.9209        10     1.477     0.627   8.87   0
        41     19.7916    905.7274 307.9060064  +6.3372209      885.197     2688.082     2609.517     94.44817     189.1232     379.0016      2.632     8.12     1315.318     66.83842     184.7443        18     1.844     1.546 -14.85   0
        42    784.8754    903.0244 307.5869125  +6.3637013     26258.88      72030.3      81466.2      94.5994     189.4253     379.1524      2.473     6.13     1312.001     66.83842     3172.936        88     2.062     1.776 -52.71   0
        43    242.2807    901.2794 307.8133407  +6.3464526     2234.009     7142.317     10466.82       95.352     189.9529     379.3786      3.283     7.95     1318.279     66.83842     296.7859        60     2.224     1.904 -77.60   1
        44    910.0594    898.2119 307.5348457  +6.3698188     4858.197     11525.75     12842.58     94.29668     189.5008     378.8507      2.301     5.55     1309.988     66.83842     602.1591        43     1.789     1.475 -56.44   0
        45    708.0761    894.8629 307.6192288  +6.3645318     32825.11     107189.8     157282.9       95.352     189.6516     379.1524      3.300    11.07     1312.819     66.83842      4465.39       165     3.390     2.149  27.39   0
        46    413.7056    893.2184 307.7420967  +6.3554664     7861.629     28114.16     34066.35     94.90115     189.3499     379.0393      2.827     7.83     1317.083     66.83842     1099.186        80     2.181     2.032 -60.33   0
        47    647.6884    888.9476 307.6446225  +6.3649761     2717.167     8253.199     9850.178     95.05167     189.5008     379.3409      2.680     7.79     1313.225     66.83842     315.0148        47     1.998     1.647 -73.55   0
        48    241.7428    880.0368 307.8142839  +6.3552000     672890.2      2582036      3250521     95.05167     189.6516     379.1901      3.011    10.80     1317.939     66.83842     63702.25       465     2.517     2.351 -75.59   4
        49    907.0969    889.5226 307.5363738  +6.3733067     3674.524     9084.815     10730.37      94.5994     189.8776     379.2655      2.412     5.82     1309.772     66.83842     413.9907        45     1.782     1.594 -55.24   0
        50    438.1911    886.5020 307.7321083  +6.3590494     893.0633     2056.813     2338.942      94.7504     189.1988     378.9261      2.472     5.91     1316.801     66.83842     108.9548         8     1.295     0.759  87.22   0
        51    682.4313    878.2662 307.6304873  +6.3705325     1046.314     2906.085     3880.318      94.7504      189.727     379.1147      2.902     8.65     1311.806     66.83842     122.8466        18     1.953     1.069 -31.61   2
        52    416.6087    875.8688 307.7414717  +6.3627217     18183.21     66522.95     82636.15     94.44817     189.3499      379.077      2.888     7.75     1316.656     66.83842     2510.419       103     2.271     2.102 -51.05   0
        53    534.3391    874.7617 307.6923913  +6.3670789     2579.809      9050.18     11017.62     95.05167      189.727     379.1901      2.799     7.85     1314.853     66.83842     363.6807        55     2.059     1.852 -61.76   0
        54    450.8810    873.1848 307.7272638  +6.3649652     1794.282     6097.177     9419.022      94.5994     189.3499     379.0016      3.582     9.84     1316.317     66.83842     237.9406        53     2.300     1.854 -89.59   2
        55    779.4628    871.1768 307.5902427  +6.3766643     5311.666     14928.54     17281.72      94.5994     189.6516      379.077      2.552     6.35     1309.969     66.83842     671.0426        57     2.002     1.699 -55.93   0
        56    137.5484    863.8796 307.8582996  +6.3584050     4044.057     14581.85      19212.2     95.05167     189.6516     379.1901      3.006     7.72     1315.145     66.83842     571.6348        72     2.149     2.103  35.88   3
        57    146.3651    863.7872 307.8546245  +6.3587362       1347.3     3534.762     3226.305     94.44817     189.4253     378.9639      2.345     9.24     1315.401     66.83842     195.1006        25     1.745     1.366  44.03   3
        58    129.6553    860.3518 307.8617120  +6.3595983     1169.871     3921.417     7086.035     95.05167     189.6516     379.3032      3.897    11.83      1314.72     66.83842     223.4236        39     2.277     1.759 -78.65   3
        59    950.6660    891.2214 307.5181387  +6.3740425      1213.44     2595.628     3104.235      94.5994     189.6516     379.1147      2.460     7.28     1308.712     66.83842     145.0272        19     1.700     1.031 -21.74   0
        60    802.4347    863.5792 307.5809140  +6.3805580     593.5904     1376.744     2090.293     94.44817     189.4253     378.9261      2.070     5.22     1308.341     66.83842     102.6205         7     1.579     0.488  -2.96   0
        61    924.8801    859.4384 307.5299655  +6.3863074     3777.482     9207.299     10714.21     94.90115      189.727     379.1524      2.413     5.80     1307.985     66.83842     472.1156        46     1.918     1.502 -60.49   0
        62    974.1409    858.9079 307.5094301  +6.3881505     947.4979     1807.729     2246.598     94.90115     189.5762     379.3409      2.346     4.83     1306.658     66.83842     140.4384         9     1.005     0.815 -14.15   0
        63    565.8171    857.9818 307.6798244  +6.3750451     859.1063     1808.736     2048.074      94.7504     189.2743     379.1147      2.482     7.58     1313.517     66.83842     131.3771        11     1.812     0.887  89.05   2
        64    569.6176    856.4132 307.6782917  +6.3758181     897.7224     1309.273     1580.092      94.5994     189.1988      379.077      1.971     4.97     1313.353     66.83842     133.4635         8     0.975     0.717 -88.57   3
        65    415.1803    855.5356 307.7427545  +6.3710646     671.5433     1827.887     2176.693      94.5994     189.6516     379.0016      2.739     8.77     1315.938     66.83842     102.7555        10     1.827     1.177  -9.23   0
        66    351.8969    895.4724 307.7678067  +6.3524868      7187.07     25941.03     31565.21      94.7504     189.8023     379.1524      2.826     7.74     1317.416     66.83842     977.2935        73     2.117     2.010 -62.66   0
        67    948.1468    850.5276 307.5205573  +6.3907516     1675.631     4217.731     4798.182     94.90115     189.5762     379.1524      2.450     7.42     1306.785     66.83842      228.105        26     1.794     1.219 -39.94   2
        68    919.2897    851.3892 307.5325685  +6.3894445     1713.447      4209.03     4594.538      94.7504     189.2743     378.9639      2.376     7.12       1307.5     66.83842     211.2922        29     1.748     1.547 -50.80   0
        69    978.4329    850.4025 307.5079251  +6.3918017     1076.213     1743.207     2547.897     94.14496     189.4253     378.8884      2.308     7.59     1305.965     66.83842     147.7742        15     1.979     0.814  81.55   2
        70    981.2134    849.9869 307.5067789  +6.3920648      720.529     1168.773     1246.192     94.90115     189.2743     379.1147      1.444     3.57     1305.891     66.83842     122.0051         5     0.817     0.448  74.16   3
        71    673.7603    851.4044 307.6350102  +6.3813302     603.5898     1650.043     3577.947     94.14496     189.3499     378.8507      3.415     4.28      1310.09     66.83842     96.94275         5     1.052     0.495 -85.63   2
        72    242.5916    849.7267 307.8149555  +6.3677351     902.1257     2631.813     5716.402      94.5994     189.1232     379.0016      4.841    10.73      1316.81     66.83842     132.6932        22     2.187     1.466  26.05   0
        73    963.3775    838.9613 307.5145912  +6.3960266     1510.766      3226.86     3638.152      94.5994     189.3499     378.9261      2.129     6.75      1305.58     66.83842     189.2999        23     1.663     1.216 -69.28   0
        74    682.6982    840.9316 307.6316339  +6.3859472     513.8069     1053.068     1764.183     95.05167     189.8023     379.1901      3.698     4.66     1309.497     66.83842     111.8828         5     1.081     0.571 -19.80   0
        75   1004.7617    831.6552 307.4975694  +6.4004055     933.5612      1664.58     1814.876     95.05167      189.727     379.2278      1.855     6.04     1304.256     66.83842     119.5377         9     1.438     0.714 -26.46   0
        76    892.2366    827.3863 307.5446631  +6.3984569     891.5137     1890.823     2043.472     94.44817     189.4253     378.8884      2.203     6.00     1306.202     66.83842     104.6475         9     1.394     0.725 -20.56   0
        77    867.1694    823.9056 307.5552393  +6.3990661     607.1832     1463.033     996.3982     95.20195     189.3499     379.1524      2.248     6.73     1306.504     66.83842     120.9536         7     1.307     0.971 -19.18   0
        78     51.2521    818.4001 307.8958430  +6.3743009     1042.038     2367.729     4372.843     94.14496     189.0476     378.6242      3.867    10.37     1312.266     66.83842     162.3345        17     2.217     1.351 -82.34   2
        79    849.9459    818.4979 307.5626075  +6.4007291     723.8245         1558     1481.541     94.90115     189.6516     379.4539      2.157     4.86     1306.164     66.83842     100.3096         6     1.342     0.498  -1.91   0
        80    661.5094    807.0977 307.6416148  +6.3992079     2198.702      7855.95      9205.36     95.05167     190.1785     379.1901      2.782     7.59     1307.329     66.83842      323.384        54     2.130     1.797 -48.66   0
        81    125.1001    803.9078 307.8655248  +6.3827371     1160.454     4343.547     5609.874     95.05167     190.2537     379.1524      2.981     9.76     1312.224     66.83842     209.0383        36     2.082     1.762  74.97   0
        82    636.9594    801.0522 307.6520618  +6.4008905      822.977     1700.594     2656.393     95.05167      189.727     379.1901      3.730     5.44     1307.491     66.83842     108.2631         8     1.116     0.747 -18.60   2
        83    998.5116    801.7360 307.5011822  +6.4125457     1503.129     3610.166     4219.233     94.90115     189.9529     379.2278      2.336     6.97     1302.599     66.83842     161.1487        28     1.591     1.318  -8.13   0
        84    778.4420    799.2029 307.5930915  +6.4063302     8031.178      25495.5      29682.4     94.29668     189.2743     378.8507      2.673     7.11     1306.178     66.83842     942.8628        72     2.168     1.815 -49.72   0
        85    908.3282    798.6124 307.5389165  +6.4108612      1892.49     4884.286     5631.697     94.44817     189.1988     378.9639      2.412     6.43     1303.651     66.83842     257.4867        31     1.726     1.492 -36.76   0
        86    507.2784    799.0600 307.7062365  +6.3974202     596.3094     1405.524     1499.875     95.20195     189.6516     379.1524      2.502     4.66     1311.141     66.83842     99.78418         5     1.211     0.510  19.90   0
        87    252.3460    793.1063 307.8128020  +6.3914222     1873.495     7048.168     9613.732     94.90115     189.5762     379.4539      3.186     8.41     1313.513     66.83842     322.8657        58     2.228     1.949 -51.75   0
        88    657.8315    791.1672 307.6436863  +6.4056598     2751.437     6138.306     7864.095     94.44817     189.3499     378.8884      2.404     9.31     1306.574     66.83842     299.1068        32     2.193     1.190 -83.72   3
        89    661.0000    791.0340 307.6423687  +6.4058196     2317.254     4181.926     5315.443     93.84077     189.3499     378.8507      2.040     7.70     1306.509     66.83842     301.9436        19     2.253     0.736 -85.84   3
        90    732.6857    779.3549 307.6128516  +6.4130087     1294.587     2408.139     3559.687     95.05167     189.5008     379.1901      1.873     6.46     1305.316     66.83842     156.2644        14     1.725     0.679  81.92   3
        91    729.6890    778.9911 307.6141142  +6.4130597     1385.268     2694.927     3776.316      94.5994     189.2743     378.8507      2.316     9.97      1305.34     66.83842     197.3865        25     2.648     1.046 -86.35   2
        92    996.8162    776.8885 307.5027243  +6.4227431      4987.77     12274.28     13804.62      94.7504     189.3499     379.0016      2.329     5.72     1300.449     66.83842     607.8511        46     1.799     1.546 -57.94   0
        93    935.4282    777.3158 307.5283248  +6.4205430     1266.297     3189.604     3474.452     95.05167     189.2743     379.0393      2.452     9.55     1301.797     66.83842     144.5684        26     1.817     1.646 -55.72   0
        94     74.6117    772.6039 307.8876499  +6.3939747      7884.06      31138.3     39063.76      94.5994     189.2743     379.0393      2.963     8.37     1310.446     66.83842     1370.667        87     2.248     2.142 -88.38   0
        95     17.3475    776.0188 307.9114253  +6.3906600     778.1767     2060.203     3323.011     94.44816      189.727     378.9639      2.336     5.72     1310.536     66.83842      138.785        10     1.661     0.556  38.59   0
        96    534.4429    775.5793 307.6956950  +6.4080089     648.5032     1238.616     1246.255     94.44817     189.5008     379.0016      2.235     5.12     1309.013     66.83842     98.24207         5     1.072     0.692 -25.05   1
        97    537.5706    772.5371 307.6944927  +6.4093677     980.8132     1715.296     2687.965      94.7504     189.6516     379.1147      1.935     5.15     1308.701     66.83842      146.024         9     1.100     0.785  62.41   0
        98    533.7905    771.7175 307.6960975  +6.4095808     646.5012     1132.164     1855.336      94.5994     189.1988     379.0016      1.699     3.73     1308.822     66.83842     102.0605         5     1.209     0.331 -78.28   0
        99    721.2661    763.9172 307.6181365  +6.4190015     1339.681      3906.24     4653.569       95.352     189.9529     379.2655      2.694     9.34     1304.322     66.83842     179.6702        32     1.832     1.722 -65.64   2
       100    741.0390    761.8880 307.6099545  +6.4204923     1627.993     3758.269     4569.849     95.05167     189.5762     379.2278      2.276     9.63     1303.808     66.83842     201.1836        29     2.132     1.214 -84.95   3
       101    744.3525    761.9891 307.6085685  +6.4205601     1200.522     2301.313     2774.974     94.44816     189.5008     378.8129      1.989     6.97     1303.773     66.83842      146.238        16     2.020     0.673 -83.31   3
       102    574.0142    758.2671 307.6797682  +6.4164626     978.1429     2430.878     3463.942     94.44817     189.5008     379.1147      2.565     6.71     1306.879     66.83842     127.0039        13     1.518     0.832   6.26   3
       103    576.0028    761.3657 307.6788339  +6.4152498     998.0189     1833.003     2725.675     93.99299     189.4253     378.8884      1.967     6.25     1306.977     66.83842     147.2157        11     1.657     0.663 -70.62   3
       104    571.8654    761.9946 307.6805390  +6.4148534      1160.01     2438.391     3449.346     94.44817     189.2743     378.9261      2.298     7.15     1307.135     66.83842     142.0165        14     1.637     0.875  67.00   3
       105   1015.0671    758.2181 307.4957360  +6.4310489     2865.362     6794.915     7457.828      94.5994     189.5762      379.077      2.302     5.61      1298.24     66.83842     344.6672        39     1.763     1.466 -68.47  16
       106    980.6245    757.1602 307.5101434  +6.4303503      4183.08      10867.8     12390.31      94.5994     189.4253     378.9261      2.434     6.19      1299.17     66.83842     545.8528        50     1.913     1.608 -50.34   0
       107    139.3435    751.4470 307.8613597  +6.4048573     6807.208     28378.58     36195.78     95.05167     189.6516     379.3032      3.039     8.69     1310.198     66.83842     1103.311        88     2.298     2.182 -88.36   0
       108    425.2692    750.4594 307.7420951  +6.4147572     935.7253     2711.263     4456.875     95.20195     189.6516     379.1524      3.439    10.44     1310.364     66.83842     136.7062        21     2.126     1.429  -6.30   2
       109    975.4222    740.1477 307.5128858  +6.4371990     3582.004      9863.98     11826.21     94.44817     189.6516     378.9639      2.677     6.19      1298.01     66.83842     420.0974        54     1.962     1.713 -54.30   0
       110    569.1277    735.8174 307.6825645  +6.4255645     13242.86     56075.28     71807.94     94.44817     189.5762     379.1147      3.037     8.85     1305.903     66.83842     1829.289       101     2.377     2.143 -50.46   0
       111    177.4167    731.7537 307.8461416  +6.4142488     879.5906     2794.004     3900.924     94.44817     189.5008     378.9261      2.891     8.13     1309.639     66.83842      119.426        18     2.221     0.831  21.19   2
       112    466.4022    719.7376 307.7259702  +6.4287973     15623.56     72045.52     94295.34     94.29668     189.4253     378.8507      3.119     9.15     1308.338     66.83842     2324.907       113     2.451     2.221 -49.57   0
       113    143.7645    714.9486 307.8607518  +6.4200644     547.3957     912.7291     1323.255     94.90115     189.6516      379.077      1.739     4.48     1308.691     66.83842     91.29724         5     1.346     0.424 -89.58   0
       114    313.2326    707.9115 307.7902805  +6.4285976      788.749     1814.923     2964.421     95.20195     189.4253     379.1901      3.265     5.62     1308.325     66.83842     97.79199         8     1.102     0.808  25.03   0
       115    741.0000    702.8904 307.6119579  +6.4448360     1349.514     2321.278     3162.512     94.14496     189.0476     378.8507      1.816     5.20     1300.493     66.83842     231.7504        11     1.610     0.475 -73.21   3
       116    737.4118    701.7819 307.6134925  +6.4451748     1946.631     4896.842     6417.962      94.5994     189.2743      379.077      2.779    11.11     1300.479     66.83842     220.7377        39     2.273     1.514 -76.76   2
       117    640.0400    704.1966 307.6540419  +6.4409590     1645.404      1997.61     2647.425     94.14496     189.3499     378.8507      0.637     1.66     1302.376     66.83842     778.1279         5     0.585     0.361 -87.88   0
       118    790.7089    697.5536 307.5913951  +6.4486804      5475.52     11850.72     14242.76     95.05167     189.5762     379.3409      2.302     7.38     1300.036     66.83842     669.6008        42     2.252     1.211 -79.09   3
       119    794.2086    697.8002 307.5899265  +6.4486942     4168.798     7687.653     8693.497     94.29668     189.2743     378.9639      1.947     7.17      1300.02     66.83842     524.8505        23     1.904     0.755 -76.70   3
       120    616.5187    695.5534 307.6641481  +6.4437474     1022.938     3011.086     4102.994     95.05167     189.6516     379.2278      2.911     9.35     1302.216     66.83842     136.5126        17     1.832     1.333  53.77   2
       121   1008.1805    696.8373 307.5006715  +6.4561507     609.4852     1262.839     1745.118      94.5994     189.4253     378.9261      1.843     3.33     1295.685     66.83842     119.8613         5     0.956     0.336  44.70   0
       122    931.5696    690.9690 307.5328377  +6.4560465     619.8641     1331.536     860.5369     94.44817     189.3499     378.8884      2.640     3.91     1296.387     66.83842     90.62134         5     0.884     0.495  88.48   0
       123    870.0259    682.1705 307.5588151  +6.4576468     875.4385      1600.81      1397.94     94.44817     189.4253     379.0016      1.960     7.85     1296.745     66.83842     125.7588        12     1.960     0.880 -59.40   3
       124    866.4438    680.6561 307.5603608  +6.4581535     1216.985     2331.501     2301.045     95.05167     189.6516     379.2278      1.855     8.20     1296.749     66.83842     157.2578        18     1.808     1.038 -55.31   2
       125    826.5832    678.6588 307.5770614  +6.4576619     952.1538     3257.478      3656.45     94.44817     189.5008     378.8884      2.798    10.72     1298.236     66.83842     151.3156        23     1.948     1.643 -44.38   0
       126    254.8040    677.4257 307.8156916  +6.4392371     1891.343     3675.929     4405.222     94.44817     189.3499     379.0016      2.120     6.85     1306.513     66.83842     246.0065        20     1.727     0.858   2.17   3
       127    255.7271    673.1968 307.8154495  +6.4410127     2446.809     6677.024     8975.318     94.44817     189.1232     379.0016      2.753     9.93     1306.271     66.83842     338.1854        48     2.509     1.575   5.70   3
       128    807.1607    670.1860 307.5854514  +6.4605168      51768.5       193320     236829.9     94.44816     189.4253     378.8884      2.869     8.12     1298.601     66.83842     6846.865       166     2.534     2.118 -40.74   0
       129    189.1000    669.0447 307.8433907  +6.4405125     13920.32      64993.6     88224.77     95.05167     189.5008     379.4539      3.208     9.65     1306.566     66.83842     2377.289       113     2.466     2.324 -62.21   0
       130    114.8660    665.6998 307.8744784  +6.4394248     2177.023     5814.205     9185.022     95.05167     189.8023     379.1524      3.360    10.69     1306.135     66.83842     242.7079        49     2.446     1.867 -24.98   2
       131    978.0623    659.9935 307.5144777  +6.4703615     617.8265     1467.679     1927.591     94.29668     189.4253     378.9261      2.660     5.31     1294.109     66.83842     91.62732         5     1.463     0.544  12.44   0
       132    842.7032    657.2015 307.5710567  +6.4670483     1877.641      4322.64     5193.198     94.44817     189.3499     378.7752      2.444     7.39      1296.14     66.83842     248.5575        32     1.993     1.335 -74.18   2
       133    846.0211    657.2495 307.5696706  +6.4671381     1171.281     2004.019     3317.844     94.44817      189.727     379.0393      2.309     5.58     1296.025     66.83842     169.3138        11     1.588     0.553 -59.75   3
       134    362.4530    655.9785 307.7714991  +6.4516600     3722.293     18525.61     25238.77     94.44817     189.6516     378.9639      3.251    10.57     1304.883     66.83842     700.1268        82     2.413     2.254 -59.63   0
       135    166.3803    654.7924 307.8533535  +6.4456383     745.8448     1648.862     2249.293      94.5994     189.3499     378.9639      2.416     3.43     1306.295     66.83842     104.5845         5     0.767     0.442 -71.40   0
       136    531.0070    649.9674 307.7013684  +6.4597273     2019.074     4042.441     5154.057     94.44817     189.5008     378.9639      2.203     9.29     1301.637     66.83842     242.3372        29     2.301     1.046 -79.66   3
       137    527.2012    649.2166 307.7029818  +6.4599111     1844.977     3970.634      4862.41      94.5994     189.1232     378.8507      2.456    10.41     1301.597     66.83842     211.4531        30     2.756     1.095 -80.66   3
       138    795.8624    650.4324 307.5908311  +6.4682949     2049.009     5013.595     5682.881      94.7504      189.727     379.1147      2.504    11.33     1297.175     66.83842     232.8535        34     2.208     1.620  84.85   2
       139    799.6562    650.0085 307.5892622  +6.4685951     1876.791     3080.827     3482.807     94.29668     189.5762     378.8507      1.742     6.28     1297.153     66.83842     230.8042        13     1.563     0.709  81.36   3
       140    175.9899    644.2263 307.8497017  +6.4503175     1445.467     7274.158     9682.977      94.5994     189.4253     379.0393      3.182     9.04     1305.592     66.83842     269.0227        59     2.312     2.147  38.57   0
       141    271.0746    640.6186 307.8101482  +6.4549651     18597.85     94867.84     131764.7     94.44816     189.5008      379.077      3.285    10.65     1303.937     66.83842     3430.095       135     2.546     2.404 -65.67   0
       142     45.4637    640.7663 307.9042821  +6.4474039     1162.351     1924.188     2849.725     94.90115      189.727     379.1524      2.396     6.59     1304.023     66.83842     156.3328        15     1.710     0.713 -69.35   3
       143     48.5476    645.4849 307.9028353  +6.4455595     1263.777     2681.986     3615.904     95.05167     189.5762     379.3409      2.955     9.36     1304.324     66.83842      167.483        20     2.445     0.999  -6.37   3
       144     49.5430    642.2579 307.9025294  +6.4469241     1927.875      3323.14     3750.056     95.20195     189.6516     379.2278      1.913     4.82     1304.119     66.83842     229.2518        19     1.390     0.941  42.87   3
       145    572.8994    644.4504 307.6840735  +6.4633909     719.7637     2290.693      3632.43     95.05167     189.6516     379.3786      3.100     7.46     1300.187     66.83842      114.856        10     2.125     0.734  71.64   0
       146    792.8661    632.1103 307.5926983  +6.4757564      5757.63     14560.37     17015.65     95.05167     189.8023     379.1901      2.520     8.31     1295.654     66.83842      621.491        48     2.394     1.280 -81.22   3
       147    796.3154    632.1416 307.5912579  +6.4758574     4543.316     7637.595     8961.729     95.05167     189.6516     379.3032      1.827     7.10     1295.637     66.83842     530.6473        26     1.878     0.850 -79.79   3
       148    496.1950    633.1961 307.7164611  +6.4654946     10648.58     23435.62     27500.88     94.29668     189.1988     379.0016      2.268     7.06     1300.575     66.83842     1083.898        40     2.213     1.061  31.11   3
       149    498.6725    629.7041 307.7155452  +6.4670176     13148.96     36476.46      46516.9      94.7504     189.8023     379.1524      2.773     9.13     1300.291     66.83842     1373.718        80     2.528     1.827  25.80   3
       150    971.3829    632.1633 307.5182003  +6.4816254     583.9365     1446.416     2105.557     94.44817     189.5008     378.9261      3.086     7.84     1291.989     66.83842     97.54675         9     1.939     0.887   5.39   0
       151    212.1203    627.6448 307.8351873  +6.4583602     806.5187     2014.517     3224.421     95.05167     189.6516     379.1901      2.838     7.01     1303.838     66.83842     113.8267         9     1.445     0.953 -57.50   0
       152    658.1955    628.5138 307.6490176  +6.4727894     719.7297     1855.532     3483.494     94.44817     189.2743     378.8507      2.543     3.36     1297.247     66.83842     160.2814         5     1.578     0.207 -16.91   0
       153    656.2567    623.7186 307.6499883  +6.4747039     930.6632     1700.688     3466.063     95.20195     189.6516     379.1901      3.277     4.08     1296.973     66.83842     145.9701         7     0.934     0.641 -36.26   2
       154    329.1986    619.2405 307.7866178  +6.4657158       1146.1     2607.748      3664.97     94.14496     189.3499     378.8884      2.301     7.91     1302.114     66.83842     137.7002        17     1.987     0.880  88.83   2
       155    325.4197    622.4197 307.7880871  +6.4642786     783.1223     2205.831     2710.925      94.7504     189.5762     379.1147      2.751     8.03     1302.343     66.83842     127.4719        13     1.707     1.056  43.33   2
       156    142.1794    619.1387 307.8646596  +6.4595453     5698.641     27901.17     37523.57      94.5994     189.6516     379.1147      3.199     9.55     1304.305     66.83842     1116.095        92     2.445     2.258 -71.83   0
       157    507.3879    621.4252 307.7121879  +6.4707226     533.1922     1317.259     1972.872      94.5994     189.4253     379.1147      3.044     4.34     1299.455     66.83842     78.10364         5     0.997     0.538 -43.68   0
       158    504.1918    619.0688 307.7136012  +6.4715890     497.5392     1117.485     2469.318     94.44817     189.3499      379.077      2.805     5.05     1299.314     66.83842     94.72461         5     1.549     0.466 -66.11   1
       159    871.0356    617.6608 307.5605640  +6.4842998      547.972     1281.124     1265.472     95.05167     189.6516     379.1524      1.963     5.42     1292.851     66.83842     111.2466         5     1.713     0.483  35.68   0
       160    108.4499    615.9767 307.8788410  +6.4597283     823.6976     2107.702     3038.274      94.5994      189.727      379.077      2.645     7.95     1303.073     66.83842     145.7893        11     2.054     0.861  31.72   0
       161    967.2842    612.7963 307.5205617  +6.4894819      2308.32     6320.925     7235.581     94.44817     189.1988     378.8129      2.488     6.88     1290.687     66.83842     291.8739        39     1.793     1.602 -72.78   0
       162      6.5487    603.6322 307.9217795  +6.4614307     6067.998     28664.59     37494.82     94.90115      189.727     365.6398      3.128     9.25     1301.324     66.83842     1297.453        91     2.409     2.218 -81.79  16
       163    439.0251    599.9825 307.7414396  +6.4773051     9070.264     44842.13     62577.34      94.7504     189.4253     379.1147      3.279    10.53     1299.083     66.83842     1449.856       111     2.529     2.352 -53.00   0
       164    644.4885    600.5144 307.6556816  +6.4838896     3246.481     6944.754     8740.473      94.7504     189.9529     379.3409      2.310     8.48     1295.729     66.83842     361.1486        29     1.902     1.132  54.49   3
       165    649.4180    598.6730 307.6536866  +6.4848126     3389.506     6667.228     8071.353     94.44817     189.5762     379.1147      2.199     8.65     1295.479     66.83842     385.6554        29     2.249     0.930 -83.05   3
       166    646.0256    597.4905 307.6551421  +6.4851883     3543.272     5714.954     7019.479     95.20195     189.3499     379.0016      1.778     4.18      1295.41     66.83842     394.7917        19     1.353     0.978  43.56   3
       167    204.3907    597.7615 307.8394247  +6.4704340     4353.198     20864.37     29277.36     94.14496     189.4253     378.8507      3.280    10.23     1302.082     66.83842     774.5753        95     2.449     2.366 -64.86   0
       168    167.9749    598.2809 307.8546026  +6.4690093     590.1049     1525.899     1983.266      94.7504     189.4253     379.1901      2.884     6.11     1303.322     66.83842     92.11963         7     1.424     0.736  82.27   0
       169    571.0634    595.2446 307.6865001  +6.4836343     772.6245     1540.362     2910.565     95.05167     189.5762     379.2278      3.075     4.71     1296.775     66.83842     112.7178         6     1.044     0.602  23.82   3
       170    566.9995    595.0065 307.6882040  +6.4835980     809.0578      1940.95     3053.459     94.29668     189.2743     378.9639      2.762     7.46     1296.842     66.83842     114.3473        11     1.947     0.799 -72.61   2
       171    941.1140    592.7075 307.5321584  +6.4969086     1995.502     4518.045      5291.39     94.90115     190.1785     379.3032      2.350     7.93     1290.313     66.83842     262.3269        33     2.169     1.293  86.65   2
       172    944.6708    592.3531 307.5306860  +6.4971721     1509.192     2503.556     2916.281     95.05167     189.5762     379.1901      1.890     5.49     1290.047     66.83842     213.7793        13     1.284     0.812  72.32   3
       173    618.1241    590.6334 307.6670169  +6.4870947     1927.217     3663.173     4291.286     94.90115     189.6516     379.1524      1.950     8.56     1295.682     66.83842     195.7598        25     1.735     1.180  88.51   3
       174    614.3856    593.9974 307.6684636  +6.4855828     1832.427      3789.11     4721.959      94.5994     189.2743     379.0016      2.119     7.32     1295.965     66.83842     209.6664        20     1.765     0.851  30.13   3
       175    614.5106    589.9640 307.6685475  +6.4872513     1707.551     2764.465     2811.143     95.20195     189.5762     379.1901      1.851     7.08     1295.693     66.83842     214.6062        14     1.683     0.835 -64.28   3
       176    965.0477    585.1694 307.5224237  +6.5008084     1242.617     4192.365     4554.445      94.5994     189.6516      379.077      2.618     9.43     1288.583     66.83842     192.7527        36     2.073     1.618 -56.90   0
       177    526.5438    584.9402 307.7054261  +6.4864121     1918.779     4735.216     6186.423     95.20195     189.6516     379.2278      2.539     8.99     1296.746     66.83842     234.1896        26     2.096     1.077  30.14   3
       178    529.1770    581.6212 307.7044393  +6.4878689     2277.396     5842.446     7455.903      94.7504     189.4253     379.1524      2.550     9.34     1296.535     66.83842     284.2223        32     2.201     1.107  25.27   3
       179    376.0330    581.3080 307.7683571  +6.4829219     769.9078     1835.832     2764.397     95.20195     189.5008     379.2278      2.603     5.78     1298.403     66.83842     123.5214         7     1.912     0.493  11.11   2
       180    371.3813    584.7411 307.7701822  +6.4813510     717.3325     1611.938     2937.246      94.5994     189.5008     378.9639      2.483     4.38     1298.822     66.83842     83.95789         5     1.161     0.471 -83.53   0
       181    883.1369    578.6294 307.5568271  +6.5008052     1243.386     2761.626     4629.769      94.7504     189.6516     379.1147      3.434     8.35     1290.203     66.83842     159.8862        21     2.014     1.084  70.95   2
       182    886.3553    577.6290 307.5555176  +6.5013242     1107.453     2082.581     4343.583      94.5994      189.727      379.077      2.417     4.43     1290.095     66.83842     164.5219         9     1.264     0.682  54.54   3
       183    716.2999    569.3242 307.6267652  +6.4991347     827.0902     3506.807     4408.503     94.44817     189.8023      379.077      3.045     9.07     1291.767     66.83842     156.5934        29     2.055     1.859  54.91   0
       184    388.4936    567.5387 307.7636228  +6.4890169     1067.824     2710.685     3687.563     94.90115     189.6516     379.2278      2.642     9.09     1297.137     66.83842     167.3789        22     1.945     1.186 -79.63   2
       185    384.6012    566.6902 307.7652758  +6.4892379     1004.892     1991.266     3727.154     94.14496     189.1232     378.8507      3.178     7.02     1297.064     66.83842     144.9039        16     2.091     0.661 -86.58   2
       186    613.1039    563.4297 307.6700295  +6.4981539     2763.075     8219.833     11898.66     95.20195     189.3499     379.1901      3.134    12.11     1294.081     66.83842     324.4379        58     2.622     1.768 -87.87   2
       187    617.0000    563.9175 307.6683872  +6.4980815     2589.946     4509.544     4337.833     94.14496     189.0476     378.7752      1.799     5.24     1294.021     66.83842     375.7419        17     1.589     0.740 -83.49   3
       188    775.6019    559.9791 307.6023319  +6.5049506     5284.392     13516.71     17607.16      94.5994     189.2743     378.8507      2.727     9.21     1290.187     66.83842     582.9253        56     2.524     1.524  89.60   3
       189    779.7544    559.7411 307.6006070  +6.5051860     4728.301     8467.223     11011.11     94.90115     189.6516     379.3032      2.094     7.13     1290.134     66.83842      553.385        29     1.852     0.966 -84.65   3
       190    299.6812    561.3779 307.8008927  +6.4886119     833.8229     2065.003     3403.962      94.7504     189.2743     379.1147      2.743     5.16     1296.655     66.83842     116.3247         9     1.261     0.596  82.40   2
       191    295.0560    557.7473 307.8029456  +6.4899564     639.4061      1494.99     3345.726     95.20195     189.6516     379.1524      2.818     3.86     1296.361     66.83842     96.49463         5     0.856     0.500 -50.97   0
       192    116.0996    552.7058 307.8777938  +6.4860897      1323.12     4297.286     6964.818     95.05167     190.2537     379.0016      3.455    10.47     1300.059     66.83842     200.0695        40     2.506     1.964 -89.62   2
       193    960.7075    555.2361 307.5252412  +6.5130171     867.3038     1791.515     2133.863     95.20195     189.5008     379.2278      2.338     5.11     1286.354     66.83842      120.418         9     1.040     0.709 -69.98   0
       194    753.3032    549.2953 307.6119977  +6.5086224     706.8831     1826.742     2840.106     95.05167     190.3288     379.0016      2.740     6.91     1289.715     66.83842     143.7721        10     1.803     0.742  11.31   2
       195   1015.4631    551.6542 307.5025101  +6.5163002     1706.247     3083.232     4195.532     95.05167     189.5762     379.1524      2.194     5.57     1284.139     66.83842     212.0352        17     1.586     0.752  21.80  19
       196   1016.3652    548.5946 307.5022364  +6.5175924     1647.656     3808.667     4631.622     94.14496     189.4253     378.9261      2.345     7.65     1283.898     66.83842     207.0885        24     1.921     0.975  14.54  19
       197    350.8762    550.6573 307.7798916  +6.4947347     769.1887      1856.76     3165.099     95.05167     189.5762     379.1147      2.613     3.97     1295.676     66.83842     131.2205         5     1.223     0.487   2.58   2
       198    351.8339    546.0075 307.7796492  +6.4966852     1049.294     2743.683      4281.32     94.44817     189.4253     378.9261      3.173     8.72     1295.187     66.83842     128.8411        18     2.052     1.034  24.79   2
       199    275.4046    548.8007 307.8114490  +6.4929956      568.609     1177.563     1946.152     94.29668     189.1232     378.8884      2.956     3.35     1295.867     66.83842     115.7535         5     0.820     0.670  26.53   0
       200    713.7920    531.1831 307.6290972  +6.5147903     4477.915     10993.44     16187.07      94.5994     189.3499     379.0016      2.968    12.18     1289.154     66.83842     490.9781        55     2.809     1.471  84.76   3
       201    717.7645    531.4937 307.6274288  +6.5147935     4162.796      7847.48     9501.243     95.20195     189.5008     379.3032      2.036     7.31     1289.079     66.83842     488.0774        25     1.894     0.897  88.21   3
       202    637.9728    530.0280 307.6607778  +6.5127596     663.1831     2014.871     3277.736     94.44817     189.4253     379.0016      3.196     4.53     1290.998     66.83842     88.76001         5     1.223     0.476  57.84   3
       203    609.0085    523.4759 307.6730865  +6.5145048     4412.061     17425.18     28734.92      94.5994     189.0476     378.9261      3.547     9.22     1291.405     66.83842     635.6534       112     2.917     2.385  34.70   0
       204    635.4728    526.2722 307.6619478  +6.5142266      874.041      2245.75     3916.165       95.352     189.8023     379.1901      3.465     6.09     1290.798     66.83842     113.7903         9     1.359     0.767 -39.12   0
       205    940.3110    521.5512 307.5348861  +6.5262444     1582.043     4508.423     5402.633     95.05167     189.5008     379.3032      2.744    10.30     1284.312     66.83842     215.7614        30     2.171     1.617 -29.99   2
       206    381.0507    521.3121 307.7682918  +6.5078446     6187.368     11195.95     12126.35     95.05167     189.4253     379.3409      1.969     7.42     1293.215     66.83842     818.9508        22     2.034     0.758 -21.49   3
       207    381.2289    516.8255 307.7683691  +6.5097018     7842.608      22855.3     33664.41     94.44817     189.4253     379.0393      3.163    13.80     1292.902     66.83842     1037.815        83     2.886     2.073 -16.51   2
       208    128.7132    517.8533 307.8737117  +6.5008902     846.5427     1775.406     2865.048     95.05167     189.5008     379.3786      2.861     5.54     1297.481     66.83842     110.7257         8     1.441     0.600  83.47   0
       209    912.2877    511.6494 307.5469145  +6.5294060     1269.684      2041.48      2199.76     95.05167     189.4253     379.3409      1.677     4.60     1283.965     66.83842     180.8933        10     1.230     0.641  63.66   3
       210    907.9809    514.0000 307.5486329  +6.5282940      1496.63     3126.479     4127.854     94.44817     189.0476     378.7752      2.323     8.00     1284.228     66.83842     189.8768        19     2.109     0.848  14.07   3
       211    908.2266    511.0366 307.5486300  +6.5295249     1776.153     2853.118      3575.71      94.5994     189.4253     378.9639      1.986     5.16      1283.94     66.83842     218.6976        15     1.312     0.839 -62.81   3
       212    237.6723    509.1543 307.8285371  +6.5081015     2523.756     13937.35     20444.92     94.90115      189.727     379.1901      3.434    10.15     1293.083     66.83842      447.088        86     2.504     2.348 -63.26   0
       213    138.3758    497.8536 307.8703574  +6.5094639     1086.398     5279.788     7124.952     94.44817     189.6516     378.9639      3.199    11.68     1295.876     66.83842     238.5959        46     2.224     2.142 -35.73   0
       214    161.8391    493.4384 307.8607156  +6.5120659     933.9636     2328.036     3553.347      94.7504     189.5762     379.0393      3.059     7.72     1295.173     66.83842     125.4596        14     1.876     0.890 -79.31   0
       215    434.4696    482.6898 307.7473044  +6.5255530     1628.139      4006.76     5028.239     95.20195     189.9529     379.1901      2.643     9.53     1289.634     66.83842     208.6006        29     2.275     1.115  68.71   3
       216    439.8523    482.2951 307.7450714  +6.5258943     1988.158     4028.394     4252.712     94.90115     189.5762     379.4916      2.149     7.84     1289.467     66.83842     257.6024        25     2.127     0.886 -79.19   3
       217    436.5091    479.5135 307.7465606  +6.5269312     1963.588     3173.005     4142.622      94.7504     190.1785     379.3409      2.022     4.80     1289.317     66.83842     202.4696        18     1.229     1.079  77.93   3
       218     33.4364    485.5610 307.9145661  +6.5110443     943.6245     2176.294     2875.579      94.7504     189.5008     379.0393      2.292     7.15     1299.176     66.83842     122.0964        12     1.774     0.806  -1.25   2
       219     35.5431    481.9448 307.9138097  +6.5126065       1156.1     2397.942     3741.093     95.20195      189.727     379.2278      2.707     7.40     1298.905     66.83842     147.1726        18     1.933     0.793  27.28   2
       220    780.0175    478.6275 307.6032291  +6.5386655     3329.307     6829.788     7917.138      94.5994     189.4253      379.077      2.216     8.50     1284.457     66.83842     392.2831        28     2.328     0.867 -71.07   3
       221    776.0582    478.1882 307.6048964  +6.5387160     3898.135     9908.042     13548.21     94.29668     189.5762     378.8507      2.745     9.22     1284.445     66.83842     446.2373        48     2.380     1.428 -69.01   3
       222   1020.2325    473.7206 307.5031382  +6.5486163     1445.473     3104.305     3194.592     94.90115     189.6516     343.7965      2.061     6.50     1279.861     66.83842     198.6394        19     1.717     0.904 -85.53  18
       223   1023.5514    473.1983 307.5017706  +6.5489412     868.4606     1312.626     1656.877     84.20581     152.3682     287.1035      1.435     3.41     1279.759     66.83842     164.7758         5     0.781     0.429 -67.38  27
       224    484.1431    467.4180 307.7270898  +6.5335011     751.0131     1980.779     3363.548     94.44817     189.5762     378.8884      3.339     7.48     1287.509     66.83842     123.7789        10     1.710     0.916  44.27   0
       225    613.8665    452.1880 307.6734642  +6.5440815     867.2837     2087.334     3238.872     94.44817     189.4253      379.077      3.313     7.80      1285.08     66.83842     133.6947        15     1.660     1.024 -59.69   0
       226    698.1768    447.7021 307.6384280  +6.5487217     21153.11      63940.1     82575.83     95.20195     189.3499     379.0016      2.875    11.30      1283.42     66.83842     2460.715        90     2.689     1.679 -89.28   3
       227    702.1888    447.3901 307.6367641  +6.5489830     21289.77     40298.82      44241.4      94.7504     189.4253     379.1524      2.017     6.97      1283.31     66.83842     2440.181        37     1.903     0.957 -84.11   3
       228    843.0015    461.6212 307.5775149  +6.5477631      10060.7     39022.64     50221.19      94.5994     189.2743     378.8507      3.012     8.30     1281.236     66.83842     1225.954        92     2.393     2.065 -61.75   0
       229    560.7301    445.9110 307.6958527  +6.5449127     665.5486     2160.308     3077.303     95.05167     189.9529     379.1901      2.816     7.27     1285.021     66.83842      107.974        10     2.375     0.623  59.53   2
       230    563.9310    443.7716 307.6945890  +6.5459015     950.1705     2138.234     3906.038      94.7504     189.6516     379.1147      3.062     8.12     1284.784     66.83842     123.6667        16     1.971     0.935  43.24   2
       231     99.6619    443.7431 307.8883478  +6.5305032     1244.125     6504.012     8699.346     95.20195     189.5762     379.2278      3.246    12.35     1293.918     66.83842     294.9268        58     2.434     2.089  84.06   0
       232    543.7462    438.2478 307.7031997  +6.5475123      1628.62     2811.062     3928.531     95.05167     189.6516     379.2278      2.052     6.25     1284.347     66.83842     199.6759        16     1.355     0.836 -33.71   3
       233    547.8701    440.7292 307.7013948  +6.5466250     2196.894     4547.819     5571.873     95.05167     189.8023     379.1524      2.300     9.27     1284.624     66.83842     255.1948        28     1.885     1.271 -63.26   3
       234    543.5300    442.9984 307.7031296  +6.5455449     1841.984     3436.711     4379.125     94.44817     189.1232     379.0016      1.985     7.01     1284.868     66.83842     214.9304        19     1.676     0.822  45.83   3
       235    276.5805    437.6796 307.8147197  +6.5388862     930.6592     2069.211     3386.162      94.5994     189.2743     379.1147      2.965     5.78     1286.311     66.83842     150.6002        10     1.262     0.744  71.75   2
       236    406.9901    433.7446 307.7604272  +6.5448380     6018.778     10584.35     12141.81     94.29668     189.5762     378.8129      1.909     4.86     1284.777     66.83842     664.2687        22     1.361     1.138 -27.27   3
       237    410.2929    436.5685 307.7589533  +6.5437823     6834.843      19268.7     30800.28     95.20195     189.4253     379.2278      3.375    14.30     1285.061     66.83842     864.1344        77     3.142     1.982 -32.78   2
       238    495.3935    425.2825 307.7238178  +6.5512604     2180.635     5009.933     7013.471      94.5994     189.2743     379.0016      2.658     9.05     1283.452     66.83842     274.6152        32     2.216     1.041 -65.02   3
       239    497.5659    429.4889 307.7227691  +6.5495967     2130.844     3760.199     3782.958     95.20195     189.5762     379.1901      1.940     6.31      1283.81     66.83842     265.2136        19     1.541     0.840 -24.03   3
       240    500.1482    425.3876 307.7218299  +6.5513746     2282.726     3794.922     3993.645     94.29668     189.5762     378.8507      1.767     4.43     1283.405     66.83842     272.2117        19     1.290     1.001  80.91   3
       241    768.2370    424.5623 307.6099671  +6.5605858     1058.578     2442.887     3877.932      94.7504     189.5008     379.0393      3.074     7.70     1280.526     66.83842      130.996        16     1.913     0.866 -82.35   2
       242    764.3538    424.1571 307.6116015  +6.5606247     948.5505     2067.412     2887.163     95.05167     189.6516     379.1147      2.507     5.30     1280.583     66.83842     108.6021        10     1.201     0.679 -56.85   3
       243    388.4328    411.7581 307.7689156  +6.5532947     1630.134     5739.406     8560.142      94.7504     189.6516     379.0016      3.264    12.58     1282.889     66.83842     255.4166        47     2.593     1.699 -34.38   2
       244    385.8039    408.0461 307.7701383  +6.5547392     1845.763     3521.946     4732.895     94.29668     189.3499     378.8129      2.164     5.57     1282.668     66.83842     238.0317        17     1.279     1.032 -45.40   3
       245    754.9396    406.3239 307.6161316  +6.5676723     12977.88     59453.89     78814.35     95.35199      189.727     379.1524      3.155     9.49     1279.342     66.83842     1770.436       107     2.462     2.233 -60.78   0
       246    988.5477    403.6085 307.5187191  +6.5765034     598.7947     1539.295     1458.497     94.44817     189.5008     378.8507      2.381     5.31     1273.804     66.83842     105.9684         7     1.618     0.492 -87.09   0
       247    933.0937    401.6831 307.5419296  +6.5754692      754.969     2185.578     3518.789      94.7504     190.0281     379.3409      3.494     6.18     1273.711     66.83842     131.9075        10     1.337     0.863  52.54   2
       248    192.5797    392.7704 307.8512978  +6.5546258     655.3608     1726.557     2894.388     94.44817     189.4253     379.0393      3.243     6.36     1287.392     66.83842     100.3342         9     1.713     0.664 -84.11   2
       249    755.3843    391.4416 307.6164474  +6.5738280     1665.364      3592.13     5226.647     94.44817     189.3499     378.8884      2.544     9.22     1277.935     66.83842     212.7166        28     2.443     0.970 -55.38   3
       250    752.1931    389.8159 307.6178342  +6.5743933     1983.861     4600.217     5380.061      94.5994     189.3499     379.0016      2.376     8.63      1277.91     66.83842     203.4504        32     2.096     1.126 -62.46   3
       251    769.6072    387.0462 307.6106591  +6.5761117     807.7936     2149.576      2491.37     94.44816     189.3499     378.7752      2.366     8.38     1277.238     66.83842     141.3131        11     2.270     0.864  21.83   0
       252   1006.9171    379.4733 307.5118632  +6.5870681     2553.864     5704.382     6956.094     95.35199     190.0281     379.2278      2.396     6.34     1271.678     66.83842     334.1157        33     2.023     1.221  86.93   3
       253   1010.2253    378.6893 307.5105087  +6.5875007     1948.849     3292.257     3638.115     95.20195     189.4253     379.0016      1.898     5.08     1271.673     66.83842     222.3804        14     1.462     0.721 -88.01   3
       254    249.9356    374.6451 307.8279741  +6.5640107     1500.747     5249.308     9003.055     95.05167     189.5762     379.1901      3.546    13.48     1283.928     66.83842     211.7942        61     2.722     2.400 -85.12   2
       255    903.9856    355.6944 307.5556263  +6.5934858      713.453      1898.19      3118.16      94.7504     189.3499     379.0016      3.605     4.64     1271.603     66.83842      121.901         7     1.282     0.689  78.26   2
       256    726.7640    357.6214 307.6295329  +6.5868375      1257.47      2664.41     3901.687     94.44817     189.3499     378.8884      2.505     8.20     1274.931     66.83842     166.8789        19     1.852     1.014 -43.02   3
       257    724.2093    353.5985 307.6307349  +6.5884130     1293.188     3343.814     4416.108     94.29668     189.2743     378.9261      2.505     9.44     1274.502     66.83842     163.8348        23     2.236     1.112 -64.42   2
       258    560.8026    355.1937 307.6988851  +6.5823481       665.69     1174.534     2349.855     94.29668     189.2743     379.0016      1.816     4.37     1274.778     66.83842     107.9508         6     1.438     0.377 -45.08   0
       259    866.9874    341.5404 307.5715457  +6.5981053     577.2703     1430.417     1686.212     94.29668     189.5762     378.8129      2.231     5.77     1272.932     66.83842     92.60059         7     1.587     0.591  37.79   0
       260    228.4868    340.5426 307.8380811  +6.5773695      804.125     1632.944     2793.227     95.05167     189.6516     379.3409      2.351     5.59     1283.187     66.83842     99.01294         9     1.164     0.756  61.91   0
       261    459.4706    330.5323 307.7420126  +6.5891667     3792.554     22670.75     35569.39     95.05167     189.8023     379.1524      3.578    11.38     1275.358     66.83842     722.3806       109     2.728     2.459 -46.30   0
       262    783.6592    329.6328 307.6067282  +6.6002670     3892.949     12137.26     16614.62     94.90115      189.727     379.1524      3.045    11.02     1272.341     66.83842     427.6338        62     2.527     1.829  85.63   2
       263    788.0000    329.0400 307.6049363  +6.6006550      3236.29     5949.059     6861.362     93.84077     189.1988     378.6997      1.848     5.53     1272.246     66.83842     418.1104        20     1.779     0.817 -86.27   3
       264    149.8623    324.5696 307.8714376  +6.5813465      729.802     1825.168     2185.106      94.7504      189.727     379.1524      2.074     3.78     1287.418     66.83842     103.4906         6     0.812     0.505   2.81   2
       265    584.3749    317.2286 307.6903279  +6.5987943     936.6146     3897.617     6434.074     94.44817     189.4253     379.0393      3.703    13.62      1270.83     66.83842     158.1295        41     2.475     2.084 -19.97   2
       266    889.2430    312.7156 307.5632262  +6.6107341      3699.16     10008.67     12283.72     95.05167     189.5762     379.1524      2.637     8.49      1269.58     66.83842      435.429        48     2.321     1.461  86.96   3
       267    892.6321    312.1972 307.5618290  +6.6110599     3139.221     5202.376     6643.645     94.14496     189.4253     378.9261      1.863     6.34     1269.372     66.83842     361.4323        16     1.598     0.724 -82.55   3
       268    944.0375    312.7817 307.5403520  +6.6125147     953.0984     3420.377     3545.591      94.5994     189.5008     378.8884      2.666    10.11     1268.029     66.83842     165.2023        29     1.987     1.746 -75.54   0
       269     16.8286    309.9547 307.9274569  +6.5829492     5077.771     27195.39     39543.51     94.44817      189.727      379.077      3.379     9.65      1295.16     66.83842     985.0319        98     2.571     2.338 -80.39   0
       270    975.6097    310.1414 307.5272620  +6.6146454     3860.844     8878.438     10784.93     94.29668     189.5008     378.8507      2.393     7.63     1267.566     66.83842     440.9309        37     2.144     1.173  74.19   3
       271    978.9606    308.7818 307.5259090  +6.6153169     2802.875     5104.143     5602.919      94.5994     189.4253     378.9261      1.888     7.21     1267.487     66.83842     355.9464        21     1.672     0.917  72.21   3
       272    686.9299    309.4052 307.6477852  +6.6054161     775.2509     2451.225     3979.632     94.44816     189.1988     379.0016      3.742     6.36     1270.583     66.83842     143.1086         6     1.171     0.970 -64.49   2
       273    496.0127    308.0041 307.7275215  +6.5996737     545.5321     1474.689     2757.501      94.5994     189.2743     379.0393      1.982     3.68     1271.898     66.83842     95.66919         5     1.472     0.264  22.00   0
       274    741.0992    299.9099 307.6254946  +6.6111253     10319.41     34085.95     45350.23     95.05167     190.1785     379.1524      2.980    12.01      1269.95     66.83842     1243.964        80     2.655     1.878 -37.56   2
       275    739.0089    296.1941 307.6264924  +6.6125894     9866.156     16025.25      17440.5     94.29668     189.4253     379.0016      1.695     4.92     1269.612     66.83842     1257.154        24     1.483     0.962 -52.43   3
       276    345.5473    298.3303 307.7906517  +6.5986751     2119.287     5364.012     8358.778     94.90115     189.5008     379.1147      3.051    12.94     1276.615     66.83842     251.2874        54     3.061     1.523 -73.94   3
       277    341.1773    298.1608 307.7924814  +6.5986000     1759.252     3732.571     5362.502      94.5994     189.3499     378.9639      2.837     8.78     1276.916     66.83842     247.4619        29     2.326     0.970 -75.52   3
       278    511.8142    300.0896 307.7211934  +6.6034631     658.9405     1379.987     2449.494      94.7504     189.4253     379.0016      2.186     4.32     1270.729     66.83842     93.45068         5     1.438     0.369 -84.96   0
       279    879.5278    299.7531 307.5677178  +6.6157623     659.2202     1436.466     2353.273     95.05167      189.727     379.1901      2.105     3.44     1268.878     66.83842     111.8633         5     1.099     0.312 -68.29   0
       280    976.3248    296.3261 307.5274281  +6.6203697     768.9161     1339.773     2300.023       95.352     189.9529     379.3032      2.104     4.05     1266.917     66.83842     115.3451         5     0.951     0.493 -53.74   3
       281    973.8524    298.8759 307.5283744  +6.6192360     991.8904     1915.098     3198.284     95.05167      189.727     379.1901      2.039     6.12     1267.081     66.83842     136.3933        10     1.549     0.679   7.23   2
       282    973.5715    294.6492 307.5286337  +6.6209709     927.7356     1709.226     2840.441      94.5994      189.727      379.077      2.079     5.44     1266.897     66.83842     125.5024         8     1.294     0.646 -48.72   2
       283    907.1816    297.3284 307.5562562  +6.6176754     2341.602     4890.152     6126.127     94.44817     189.5762     379.1147      2.276     9.45     1268.061     66.83842     275.6226        31     2.129     1.169  -0.04   3
       284    906.8026    293.3872 307.5565470  +6.6192892     2299.426     4541.295     6355.644      94.5994     189.2743     379.0016      2.365     9.66     1267.839     66.83842     311.5378        28     2.594     1.004   9.82   3
       285    450.4460    292.6633 307.7470593  +6.6044933     1166.227     2329.137     3465.061     94.90115     189.5762     379.2278      2.752     5.08     1272.152     66.83842      179.559        13     1.314     0.889  82.90   3
       286    454.5200    295.1820 307.7452737  +6.6035891      1431.06     3193.722     4701.546      94.5994     189.2743      379.077      2.838     8.41     1272.126     66.83842     178.7747        23     1.923     1.027  89.21   3
       287    450.3688    296.9583 307.7469464  +6.6027185     1335.387      3110.99      4306.21     94.44816     189.5008     378.9639      2.291     5.85     1272.525     66.83842     179.4919        15     1.529     0.885  42.58   3
       288   1011.1790    296.3980 307.5128767  +6.6214890     827.1386     1629.648     1683.737      94.5994     189.2743     378.8507      2.137     5.22     1266.445     66.83842     111.0354         7     1.409     0.547  75.36   0
       289    108.1054    283.7505 307.8902499  +6.5968001     1252.457     2236.102     3490.133     94.90115     189.5008     379.3786      2.239     5.83     1289.656     66.83842     163.1807        11     1.315     0.728  84.20   3
       290    107.5530    288.7548 307.8903108  +6.5947168     1226.055      2635.48     4092.036     95.05167     189.5008     379.2278      2.409     7.39     1289.498     66.83842     148.1263        19     1.814     0.844  44.77   3
       291    112.0499    285.9070 307.8885305  +6.5960415     1545.224     3104.068     4290.079     94.90115     189.5008     379.3786      2.170     7.64     1289.334     66.83842     217.5409        21     1.779     0.918 -81.60   3
       292    279.7711    283.1798 307.8186188  +6.6027425     5544.453     32604.78      50443.8     94.44816     189.4253      379.077      3.517    11.71     1279.945     66.83842     1075.291       112     2.689     2.484 -72.18   0
       293    256.2449    285.8017 307.8283496  +6.6008792      1706.58     5104.879     8705.583     94.29668     189.1232     378.7375      3.569    12.11     1280.757     66.83842     233.7554        53     2.561     2.260 -55.88   2
       294    403.7556    278.5364 307.7670255  +6.6087740     8267.926     48733.93     75108.82     95.05167     189.5762     379.2278      3.533    11.08     1273.277     66.83842     1575.467       123     2.709     2.497 -59.97   0
       295    161.7705    281.4786 307.8679283  +6.5995226     1283.868     3331.639     6014.176     94.90115      189.727     379.1901      3.817     9.99     1286.098     66.83842     170.3821        29     2.177     1.279 -65.07   2
       296    743.4483    275.1779 307.6253477  +6.6214082      7931.42     31845.56     44028.78      94.5994     189.6516     379.0393      3.150     9.76      1268.12     66.83842      1026.53        96     2.628     2.207 -51.52   2
       297    741.3534    272.3076 307.6263189  +6.6225233     8520.511       9517.9     10971.84     95.05167     189.5762     379.3409      1.314     4.40     1267.932     66.83842      976.526         8     0.985     0.676 -28.04   3
       298    308.9660    277.2700 307.8066332  +6.6061506     4086.806     15679.26     24555.12     94.90115     189.6516     379.2655      3.518    11.64     1278.169     66.83842     654.1726        98     3.174     2.216 -23.08   2
       299    306.4741    273.5049 307.8078008  +6.6076214       4037.1     5989.902     6194.264      94.7504     189.8776     379.1901      1.646     4.11     1278.303     66.83842     442.7936        14     1.224     0.910  17.90   3
       300     60.8568    273.0950 307.9103319  +6.5996241     2331.903     8295.986     11971.07     94.90115     189.6516     379.4163      3.095     9.56     1293.673     66.83842     402.1101        60     2.671     1.679 -44.81   2
       301     57.9834    269.9766 307.9116370  +6.6008151     1999.298     3693.489     4940.934      94.7504     189.5008      379.077      2.054     5.28     1294.156     66.83842     228.2571        15     1.428     0.749 -53.84   3
       302   1003.4326    255.5430 307.5174837  +6.6380922      927.891     2112.851     3101.403     94.90115      189.727     379.1524      2.576     6.88     1263.154     66.83842     129.0928        12     1.700     0.780 -50.48   2
       303   1000.4434    253.5577 307.5187982  +6.6388128     842.8241     1523.653     2681.223      94.7504     189.6516     379.0016      3.100     6.33     1263.043     66.83842     122.9949        10     1.328     0.848 -57.88   3
       304    595.4006    253.1444 307.6878889  +6.6256025     623.5651     1330.115     2718.888     94.14496     189.3499     378.8129      2.935     4.74     1265.092     66.83842      80.6123         7     1.079     0.590 -14.64   0
       305     21.2057    249.8397 307.9276707  +6.6078992     1024.769     2048.604     2474.786     94.14496     189.2743     378.8507      2.047     5.64      1299.67     66.83842     152.1968        12     1.465     0.612  66.72   3
       306     26.0569    248.8362 307.9256800  +6.6084749     1433.116     3164.633     3872.276     94.90115     189.6516     379.2278      2.492     8.19     1299.261     66.83842     202.5731        19     2.103     0.892 -74.03   2
       307     22.5587    245.5219 307.9272526  +6.6097259     936.3209     1746.222     2158.082     94.90115     189.6516     379.2278      2.055     3.71     1299.939     66.83842     145.5887         7     0.947     0.538  58.35   3
       308    709.6795    248.1878 307.6403535  +6.6314289     2244.661      4689.81     5705.507      94.5994     189.2743     379.0016      2.169     8.99     1266.406     66.83842     301.9283        25     2.164     1.042 -13.13   3
       309    708.5571    244.0433 307.6409618  +6.6331019     2276.323     5395.575     7738.741      94.7504     189.6516     379.0016      2.757    12.69     1266.154     66.83842     273.2922        43     2.637     1.698  -4.53   3
       310    119.6834    241.2948 307.8868574  +6.6147032     916.6083     2017.008     3838.597     94.90115     190.1033     379.3409      3.394     6.41     1289.919     66.83842     139.9597        11     1.399     0.825  69.24   3
       311    119.0439    245.2750 307.8869893  +6.6130396     1085.318     2218.118     3466.347     94.90115      189.727     379.2278      3.235     6.74      1289.91     66.83842     146.0134        16     1.834     0.696  45.99   3
       312    123.5812    243.3043 307.8851623  +6.6140037     1491.616     3422.978     4180.271     94.90115     189.4253     378.9261      2.505     8.39     1289.509     66.83842     194.7557        24     2.245     1.014  88.31   3
       313    392.1034    242.3772 307.7731121  +6.6233077     923.8364     2189.917     3208.582     95.05167     189.3499     378.9639      2.664     4.96     1272.218     66.83842     125.7946         9     1.167     0.597  11.29   2
       314    394.4137    239.0791 307.7722594  +6.6247452     954.5826     2377.235     3900.497      94.5994     189.3499     378.9261      2.509     6.93     1272.011     66.83842     160.8856        10     1.911     0.705  71.37   3
       315    390.8852    236.9405 307.7738045  +6.6255106     1138.959     2760.262     4983.584     95.05167      189.727     379.3032      3.653     6.46     1272.055     66.83842     151.7108        12     1.483     1.025  18.12   3
       316    357.3396    237.2199 307.7877974  +6.6242821     851.3058      2774.02      4272.99      94.5994     189.5008     379.1147      3.376    11.88     1273.492     66.83842     144.3398        23     2.297     1.710  47.21   2
       317    206.1316    224.4046 307.8513467  +6.6245474     1264.124     2703.954      3397.26     94.44817     189.1988     378.9639      2.582     6.33     1283.363     66.83842     153.8121        15     1.457     0.900 -45.75   3
       318    209.7644    228.0341 307.8497074  +6.6231706     1289.356     3984.542     5851.171      94.7504     189.3499     378.8884      3.052    10.45     1283.026     66.83842     201.7086        31     2.660     1.144 -62.05   2
       319     91.2465    230.5543 307.8990911  +6.6181886     591.8147     1257.371      1876.99     95.05167     189.5008     379.2278      1.870     3.66     1293.163     66.83842     117.4921         5     1.496     0.258 -40.53   0
       320    278.5918    249.5122 307.8202511  +6.6165953     5042.615     30531.18     46681.06      94.5994     189.2743     378.8884      3.518    11.26     1279.487     66.83842     1005.545       110     2.673     2.466 -64.47   0
       321    668.5010    223.2447 307.6583839  +6.6403593     1467.147     3410.769     4627.364     95.05167     189.5762     379.4539      2.921     8.18      1264.75     66.83842     170.9958        20     1.909     0.980 -27.19   3
       322    669.7615    227.8107 307.6577037  +6.6385169     1726.885     4238.127     6625.368     94.44817     189.4253     378.8507      3.030    10.36     1265.071     66.83842     211.3237        34     2.224     1.346 -27.61   2
       323    624.8918    215.5099 307.6768488  +6.6421079     12882.56     50935.47     86000.98     95.05167     190.2537     379.3032      3.808    13.70     1263.303     66.83842     1629.915       183     4.097     2.382 -67.27   0
       324    347.4026    216.4435 307.7926483  +6.6325251      872.538     2220.209     3590.972     94.29668     189.1232     378.7752      2.996     4.61     1273.717     66.83842     130.1797         6     1.010     0.597 -24.10   2
       325    350.5934    220.0820 307.7911933  +6.6311297     1008.338     3052.366     4628.038      94.5994     189.1232     378.9639      3.288     9.13     1273.379     66.83842     159.4247        21     2.382     0.976 -43.72   2
       326    305.2567    208.5585 307.8105076  +6.6343794     613.7184       3219.9     5083.455     94.90115     189.6516     379.2278      3.495    12.01     1277.285     66.83842     164.2106        27     2.172     2.047 -37.12   0
       327      2.9847    194.5128 307.9371545  +6.6301207     495157.3      1010687      1121862      94.5994     176.4534     315.7491      2.187     6.88     1304.969     66.83842     55890.45       105     2.116     1.390 -29.43  23
       328      5.0000    191.0051 307.9364324  +6.6316352       538827      1254297      1809539     94.14496     189.1988     346.9011      2.939    12.03     1304.695     66.83842     62319.23       153     2.687     1.499  52.82  23
       329    687.6778    199.8402 307.6511682  +6.6506511     922.5476      2275.12     4615.136     94.90115     189.6516     379.2278      4.238     9.57     1263.505     66.83842     139.3075        17     2.246     1.137  83.71   2
       330    430.1333    187.2692 307.7591014  +6.6473082     1069.046     2857.601     5283.572     95.05167      189.727     379.1901      3.742    12.23     1266.597     66.83842     159.0181        21     2.587     1.610 -56.41   2
       331    904.6166    185.4104 307.5610933  +6.6637725     1280.813     4075.367     4928.441      94.7504     189.3499     379.0393      2.899    10.24     1260.625     66.83842     162.3558        29     2.194     1.331 -37.99   2
       332    393.3948    183.4025 307.7745680  +6.6476849     508.2394     1290.699     2685.148     94.29668     189.2743     378.9639      3.117     4.88     1269.691     66.83842     86.22046         5     1.124     0.600  34.62   0
       333    143.8777    179.5978 307.8788509  +6.6409652     705.3513     2612.473     4122.788     94.29668     189.0476     378.9261      3.411    10.98     1290.742     66.83842     141.9955        18     2.447     1.372 -41.54   0
       334     24.9946    176.4120 307.9285821  +6.6383225     2603.658     13439.98     20558.47      94.5994     189.3499      379.077      3.521     9.41     1302.129     66.83842     493.3162        90     2.542     2.367 -72.27   0
       335    769.8442    172.6870 307.6177834  +6.6645719     1014.181      2220.91     3670.011     95.05167     189.5008     379.1901      2.550     6.15     1260.725     66.83842     165.8185        12     1.463     0.727  44.80   3
       336    770.8938    168.8757 307.6174737  +6.6661793     1024.213     2859.927     4493.158     94.90115     189.8776     379.1901      3.604     9.39     1260.396     66.83842     131.1598        21     2.283     1.077  29.16   2
       337    829.5509    169.8079 307.5929554  +6.6677324     1525.749     2870.437     3227.954     94.44817     189.4253     378.7752      1.928     6.29     1259.805     66.83842     217.9653        16     1.556     0.817  80.37   3
       338     67.3193    167.7470 307.9112095  +6.6433072     1124.072     2669.086     4165.712     95.05167     189.6516     379.2278      3.233    11.55     1296.919     66.83842     149.5381        26     2.125     1.747 -17.28   2
       339      6.0512    165.2330 307.9368688  +6.6423040     825.0812       2367.2     3664.109     94.90115      189.727     360.2833      3.374     8.64     1304.459     66.83842     98.57422        17     1.891     1.103  70.38  16
       340    825.2679    170.7514 307.5947116  +6.6672017     1890.814     5714.785     7271.531     95.05167     189.5762     379.1901      2.784    10.71     1259.892     66.83842     248.4639        42     2.355     1.528  79.26   3
       341     91.7907    149.7775 307.9016045  +6.6515363     2190.677     4929.154     6969.025      94.5994     189.3499     379.0016      2.660    10.90     1293.661     66.83842     242.2125        36     2.399     1.379 -68.33   3
       342     93.3825    155.2890 307.9007530  +6.6493152     2586.707     4451.945     5590.162      94.7504     189.3499      379.077      1.865     5.87     1293.645     66.83842     378.0729        16     1.542     0.844  -8.56   3
       343     95.6115    152.1888 307.8999278  +6.6506685     2801.481     5088.163     6553.445     94.90115     189.4253     379.1901      1.939     6.62     1293.233     66.83842     335.3092        21     1.775     0.766 -85.32   3
       344    636.2568    145.0531 307.6744824  +6.6715566     4539.756     15847.54     22191.06     95.20195     189.6516     379.1901      3.112    10.15      1260.32     66.83842     563.6633        79     2.734     2.029 -40.44   2
       345    634.1714    141.5963 307.6754696  +6.6729140     4539.458     6921.386     8363.572     94.44817     189.4253     379.0016      1.699     4.66     1260.201     66.83842     502.7285        18     1.346     0.945 -22.35   3
       346    844.2443    146.9315 307.5875920  +6.6776573     1976.642     1913.741     2034.361     95.05167     189.5762     379.2655      0.769     1.81     1258.184     66.83842     759.1317         6     0.786     0.375  39.78   0
       347    534.1016    137.9636 307.7173670  +6.6710993     1273.073     3099.292     3793.574     95.05167     189.5008     379.4163      2.700     9.81     1259.846     66.83842     149.6215        25     1.919     1.399 -14.40   3
       348    534.8643    142.7576 307.7168867  +6.6691464     1373.392     2840.312     3954.669     95.05167     189.5762     379.2278      2.341     7.18     1259.961     66.83842     183.2146        17     1.893     0.763  13.29   3
       349    538.3326    140.0082 307.7155317  +6.6703958     1090.899      1922.29     3196.054     94.44816     189.3499      379.077      2.008     5.90      1259.85     66.83842     147.3231        10     2.075     0.472 -63.00   3
       350    261.1433    136.9313 307.8313473  +6.6624688     1683.603     9222.195      16158.7     95.20195     189.5762     379.1147      4.245    12.80     1283.957     66.83842     363.7491        87     2.884     2.359 -38.22   0
       351    441.6621    137.0335 307.7559875  +6.6684189     5471.794     20014.22     29976.66      94.7504      189.727     379.1147      3.319    10.58     1263.898     66.83842      727.726        87     2.751     2.204 -44.61   2
       352    439.3942    133.1864 307.7570643  +6.6699311     4175.343     6141.516      6622.95      94.5994     189.4253     379.0393      1.479     3.87     1264.157     66.83842     546.6582        13     1.288     0.728  63.81   3
       353    250.0825    134.4094 307.8360500  +6.6631418     686.1451     2920.617     5874.172      94.5994     189.1988     379.0016      5.673    14.14     1285.279     66.83842     128.0765        33     2.413     2.305 -61.14   1
       354    916.9092    137.1161 307.5575870  +6.6841060     760.3511     1524.836     2638.873      94.7504     190.0281     379.3409      3.292     6.02     1257.552     66.83842     114.1791         7     1.241     0.822  11.84   0
       355    620.1266    135.2390 307.6815473  +6.6750723     1053.416     2807.958     4491.059     94.90115     189.6516     379.2655      3.384    11.32     1259.953     66.83842     130.0386        26     2.689     1.327 -77.82   2
       356    623.9725    134.5108 307.6799664  +6.6755001     965.9902      2050.66     3808.291     95.20195     189.3499      379.077      2.126     5.40     1259.951     66.83842     154.9404         9     1.815     0.453 -69.85   3
       357     29.0187    136.2409 307.9282662  +6.6550315     632.5925     1653.851     2228.869      94.5994     189.4253     378.8884      2.764     6.50     1300.166     66.83842     89.86572         9     1.560     0.761 -67.47   2
       358    179.8595    119.4252 307.8658715  +6.6669901     2733.145     10103.63     15658.77      94.5994     189.6516     379.0016      3.361     9.79     1290.055     66.83842     425.7604        74     2.599     2.217 -50.63   2
       359    177.3571    115.6572 307.8670438  +6.6684616     1637.572     2552.316     3045.135     94.90115     189.5762     379.1901      1.364     3.81     1290.151     66.83842     275.8024         5     0.935     0.476  51.18   3
       360    923.4084    116.1654 307.5555788  +6.6929655      1483.25     4474.978     5416.411     94.44817     189.4253     378.9639      2.803     9.76     1256.227     66.83842     186.8656        34     2.093     1.317  76.15   2
       361    524.1711    118.3973 307.7221736  +6.6788438     705.5424     2019.396     3083.307     94.44817     189.3499     378.9639      2.683     6.05     1259.554     66.83842     117.3191         9     1.926     0.535 -41.34   0
       362    464.0015    115.2507 307.7473984  +6.6781478       601.58     1327.882     2686.739     94.29668     189.1988     378.6997      2.807     5.82     1261.937     66.83842     104.4816         7     1.387     0.688  77.01   0
       363    728.0066    114.7836 307.6372011  +6.6870818     732.8782     1412.638     2180.597      94.5994     189.3499     379.0016      2.068     3.96     1257.767     66.83842     101.7374         5     0.854     0.527  53.87   0
       364    988.7637    111.5039 307.5284509  +6.6970446     1099.135     2662.071     2693.532     95.20195     189.5008     379.3409      2.315     8.87     1253.705     66.83842     147.8275        19     1.902     1.154  72.02   0
       365    521.3140    114.0824 307.7235122  +6.6805296     760.3564     1834.435     2800.591      94.7504     189.9529     379.3032      2.433     5.58     1259.538     66.83842     113.5723         7     1.453     0.603 -22.43   2
       366    708.8439    109.7431 307.6453710  +6.6885279      2139.29     7592.054     10781.72     94.90115     189.6516     379.1901      3.219     8.84     1257.807     66.83842     289.6661        58     2.469     1.849 -47.50   2
       367    628.9266    109.8163 307.6787317  +6.6858537     891.9304     2738.564     3880.588     94.44817     189.4253      379.077      2.896     9.72     1259.109     66.83842     150.7576        21     2.283     1.154 -16.24   0
       368    428.4085    101.6995 307.7627152  +6.6825590     1364.089     2594.623     3600.066      94.7504     189.1988     379.0016      2.146     6.10     1265.108     66.83842     181.1085        12     1.525     0.685  13.74   3
       369     31.4132    105.1655 307.9283218  +6.6679332     2528.988     7742.788      10328.1     94.44817     189.3499     379.0393      2.888     8.30     1298.184     66.83842     427.1974        55     2.520     1.773 -40.78   2
       370     28.6358    101.7006 307.9295988  +6.6692704     1766.796     2856.361     3385.685     95.05167     189.5008     379.3786      1.851     4.51     1298.188     66.83842     229.7854        13     1.172     0.784 -52.08   3
       371    430.2311    105.6621 307.7618203  +6.6809844     1648.208     5119.237     7452.544      94.7504      189.727     379.1147      3.232    11.25     1264.932     66.83842     219.6989        50     2.599     1.973 -42.38   2
       372    326.7969    100.2606 307.8051824  +6.6797805     3277.619      11452.6     17712.94     94.29668     189.3499     378.8507      3.516    10.38     1278.718     66.83842     445.5242        70     2.642     2.059 -33.27   2
       373    324.0298     96.4752 307.8064657  +6.6812506     2967.666     4472.584     6294.213     94.90115      189.727     379.2278      1.789     4.23     1279.419     66.83842     310.7538        14     1.239     0.825   5.73   3
       374     99.6211    103.1854 307.8999167  +6.6710213     769.8005     1236.985     3209.761      94.7504     189.3499      379.077      1.431     3.47     1292.159     66.83842     114.7358         5     0.756     0.460 -75.13   2
       375    102.3897     99.7986 307.8988759  +6.6725109     778.5657     1567.702     2597.741      94.5994     189.2743     378.9639      2.336     3.88     1292.046     66.83842     134.4148         6     0.926     0.465 -51.93   3
       376    394.4108     96.9584 307.7770682  +6.6833874     756.9938     2062.029     2857.029     94.29668     189.4253     378.8884      2.808     5.81     1269.191     66.83842     119.7919         8     1.177     0.808 -49.17   2
       377    388.9857     99.3719 307.7792513  +6.6822115     498.9669     1372.499     3250.296      94.5994     189.4253      379.077      2.728     4.10     1269.846     66.83842     112.4015         5     1.073     0.446  63.48   0
       378    652.5927     81.3901 307.6698111  +6.6983664     950.5074         2168     4383.786     94.44817     189.4253     379.0393      3.994    10.05     1257.402     66.83842      143.918        18     2.469     1.140   5.36   3
       379    652.4146     92.3992 307.6695140  +6.6938178     2239.039     11673.64     18665.21      94.5994     189.2743     378.9261      3.590    12.97     1257.946     66.83842     371.2474        99     3.283     2.344 -70.28   3
       380    644.2544     87.9516 307.6730707  +6.6953830     1931.702     9855.325     15033.04     95.05167     189.6516     379.2655      3.537    10.31      1257.93     66.83842     299.1932        76     2.509     2.222 -71.32   3
       381    251.4973     86.9914 307.8370658  +6.6827543     1550.782     3396.768     5493.279      94.7504     189.1988     378.9261      3.029     8.13      1287.98     66.83842     182.4161        23     1.744     1.168 -35.79   3
       382    252.9830     92.9629 307.8362433  +6.6803397     1827.782     3553.422     5491.136      94.5994     189.5008     378.8884      2.804     8.62     1287.777     66.83842     223.2664        25     2.305     0.901  13.91   3
       383    255.3966     89.4028 307.8353564  +6.6818889     2005.625     4169.801     6066.201     94.29668     189.1232     378.9639      2.529     6.83      1287.68     66.83842     220.5663        18     1.568     0.835 -83.83   3
       384    414.8846     89.4592 307.7687749  +6.6871610     2096.494     7077.253      9394.45     95.05167      189.727     379.3032      2.931    10.16     1267.182     66.83842     302.0399        52     2.640     1.663 -42.27   2
       385    412.1938     85.7372 307.7700241  +6.6886075     1731.804     3535.482     4273.844     94.29668     189.3499     378.9261      2.204     7.26     1267.887     66.83842      213.697        19     1.548     1.067 -59.73   3
       386    676.0699     85.4990 307.6598712  +6.6974477     5303.112     17288.83     30718.08     94.90115     189.8023     379.2278      3.794    10.11     1257.101     66.83842     621.5118       117     3.186     2.281 -40.17   0
       387    731.6861     88.9606 307.6365357  +6.6978588     523.9203     935.0511     2064.388     95.05167     189.6516     379.1901      2.125     4.23     1256.226     66.83842     121.8862         5     0.926     0.550 -41.60   3
       388    728.4896     87.6880 307.6379131  +6.6982781     817.6859     1659.252     2245.539      94.7504     190.2537     379.3032      2.303     5.68     1256.263     66.83842     98.36804         8     1.259     0.721  67.44   3
       389     61.9749     82.1965 307.9163440  +6.6784283     962.6362      3058.74     4484.668     94.44817     189.2743     379.0016      3.078    11.16     1294.073     66.83842      151.563        23     2.599     1.336 -62.88   0
       390    149.7743     77.1012 307.8798655  +6.6834529     1229.615     3163.233     4372.026     95.20195     189.3499     379.1147      2.544     9.30     1290.313     66.83842     159.8507        23     2.115     1.141 -46.59   3
       391    152.7381     80.3761 307.8785172  +6.6822002     1521.795     3998.706     6067.467      94.5994     189.5762      379.077      2.821     9.23     1290.283     66.83842     226.4232        29     2.307     1.030 -49.20   2
       392    884.0162     76.3229 307.5733657  +6.7081058      660.433     1639.263     3100.894     94.44816     189.3499     379.0393      3.514     5.36     1254.212     66.83842     111.2902         7     1.152     0.732  50.64   2
       393    792.5097     66.5670 307.6118976  +6.7091094      1038.37     2368.848     3386.844     95.20195     189.5008     379.1901      2.495     8.82     1254.448     66.83842     163.5614        18     2.452     0.885 -84.09   2
       394    796.0479     66.2643 307.6104307  +6.7093512     873.4506      2145.39     2829.302     94.90115     189.5008     379.2278      2.509     8.21     1254.378     66.83842     147.4741        12     2.051     0.919 -66.75   2
       395    620.1310     62.0576 307.6840158  +6.7052691     3252.027     10269.84     14539.88     95.20195     189.5762     379.1147      3.082    10.60     1257.255     66.83842     388.2017        59     2.620     1.807 -38.36   2
       396    617.9490     58.4208 307.6850496  +6.7066975       3030.3     5545.051     6715.867     94.44816      189.727     379.0393      1.968     4.53     1257.117     66.83842     346.5031        19     1.293     1.078 -76.65   3
       397    760.7470     49.7077 307.6257266  +6.7150163     746.7584     2094.992     4628.656     94.90115     189.5008     379.3786      2.602     3.91     1254.383     66.83842     112.9181         5     1.044     0.420   6.17   2
       398    757.7545     52.3897 307.6268856  +6.7138107     1488.895      3480.84     5842.179     94.44817     189.5008     378.8129      3.425     6.25     1254.483     66.83842     205.8745        19     1.521     1.034 -31.64   3
       399    757.9901     57.6835 307.6266087  +6.7116342     1485.577     3009.413     5048.698      94.5994     189.2743     379.0016      2.319     6.33     1254.682     66.83842     198.6339        15     1.451     0.777  34.51   3
       400    761.4172     55.6696 307.6252458  +6.7125784     1435.242     2891.457     4877.227     94.44817     189.5008      379.077      4.724     7.61     1254.577     66.83842     191.4696        20     1.719     1.022 -82.77   3
       401     21.1819     49.1388 307.9344951  +6.6907094     4301.335     21222.46        30494      94.5994     189.5762     378.9639      3.302    10.01     1293.369     66.83842      884.884        95     2.543     2.305 -66.23   0
       402    245.9476     50.9618 307.8406034  +6.6974362     2148.567     11542.29     17258.08      94.7504      189.727     379.1901      3.419    12.19     1288.482     66.83842     425.5165        79     2.482     2.311 -50.90   0
       403    497.4579     41.6176 307.7359204  +6.7096396      2303.46     7844.148     10655.49      94.5994     189.5762     378.8884      3.096     9.65     1263.361     66.83842     300.5579        61     2.576     1.873 -33.41   2
       404    495.4521     37.9269 307.7368825  +6.7110960     2218.465     3709.136     4435.041     95.05167      189.727     379.2278      1.853     4.86     1263.761     66.83842     252.7429        14     1.094     1.015 -47.92   3
       405    205.4771     37.2207 307.8579641  +6.7017606     2842.901     8353.524     11670.92      94.5994     189.3499     379.1524      3.014    10.18     1289.243     66.83842     369.0875        57     2.595     1.922 -38.31   2
       406    202.8580     32.9989 307.8592006  +6.7034155      2102.47     4246.048     4888.887     94.29668     189.1988     378.8129      2.010     5.88     1289.216     66.83842     241.2753        19     1.380     1.060 -32.01   3
       407    806.2415     37.4908 307.6071445  +6.7215608     738.4493     2043.252     3625.114     95.05167     189.6516     379.2655      3.662     5.61     1253.564     66.83842     122.9343         8     1.367     0.650  69.05   0
       408    346.2399     33.7329 307.7993177  +6.7078766     992.7833     3133.856     6145.935     94.90115     189.5762     379.3032      4.526     9.31     1280.749     66.83842     151.6644        22     2.287     1.057 -35.82   0
       409    849.1508     29.9700 307.5894830  +6.7260814     1015.618     2671.046     4278.368      94.5994      189.727      379.077      3.174     8.53     1252.795     66.83842     118.2189        19     1.965     1.035 -75.88   2
       410    845.7578     28.8412 307.5909376  +6.7264351     1068.336     2253.792     4018.745      94.7504     189.6516     379.0393      2.426     6.86     1252.804     66.83842     175.5621        16     2.168     0.609 -83.31   2
       411    343.8357     29.8432 307.8004531  +6.7094017     783.9813     1704.582     3378.174      94.7504     189.6516     378.9639      3.502     5.33       1281.3     66.83842     116.8848         5     1.241     0.645  16.16   1
       412    745.9061   1007.6997 307.5996467  +6.3192204      1037.72     2339.514     3089.205     95.05167     190.2537     379.0016      2.779     8.19      1316.21     66.83842      147.561        17     1.802     1.101 -47.21   0
       413    405.8429     17.1515 307.7749957  +6.7166966     880.2149      1735.87     2075.365     95.05167     189.5762     379.1147      2.142     4.84     1275.606     66.83842     128.4106         7     1.000     0.663  10.75   3
       414    406.1206     21.7783 307.7747232  +6.7147967     1003.455     2229.015     3512.577      94.5994     189.2743     379.1901      2.478     5.91     1275.103     66.83842     151.2823        12     1.484     0.795  37.55   3
       415    410.1061     19.7700 307.7731273  +6.7157576     1012.545     2277.515     3488.205     95.20195     189.3499      379.077      2.523     6.55     1274.872     66.83842     174.1654        13     1.598     0.754 -72.05   2
       416    311.7686     22.9172 307.8140749  +6.7111946     719.2289     1620.167     2230.736     95.05167     189.4253     379.0393      2.053     4.94     1285.552     66.83842      126.413         6     1.409     0.490 -11.17   0
       417    312.1591     28.2696 307.8137307  +6.7089991     969.0553     1995.951     3020.682     94.90115     189.6516     379.2655      2.174     5.66     1285.262     66.83842     145.4296        10     1.497     0.602   4.70   0
       418    977.5973   1003.3307 307.5031365  +6.3286685     957.3081     1646.105     2426.785     94.29668     189.1988     378.9639      1.940     4.89     1313.805     66.83842     136.1788         8     1.044     0.648 -20.54   0
       419    664.7604   1001.0568 307.6337223  +6.3192797     1515.371     3710.095     4025.774     95.05167      189.727     379.1901      2.348     7.68     1317.532     66.83842     162.1726        26     1.764     1.301 -23.58   0
       420     62.2547    998.1986 307.8851579  +6.3004780     1493.867     3856.869     4563.263     94.29668     189.3499     378.7752      2.464     7.44     1317.189     66.83842     211.7021        27     1.646     1.406  88.80   0
       421    207.2152    996.5012 307.8247463  +6.3059967     1020.496     1790.961     2097.718     95.05167     189.3499     378.8884      1.634     3.45     1318.052     66.83842     152.6632         5     1.041     0.330  68.36   3
       422     78.0853     16.3500 307.9118537  +6.7061334     760.6123     1556.791     2021.804     95.05167     189.6516     379.2655      2.220     4.84     1289.435     66.83842     105.8313         8     1.152     0.577 -57.60   0
       423    204.0527    995.6441 307.8260945  +6.3062454     1003.225     1838.526     2363.735     95.05167     189.6516     379.1901      2.105     6.11     1318.059     66.83842      142.734        12     1.413     0.998 -46.57   2
       424     80.1488    996.1958 307.8777615  +6.3018996     1073.847      2102.16     1970.795     94.29668     189.3499     378.6997      2.074     5.21     1317.453     66.83842     162.8574        10     1.289     0.596  42.98   0
       425    943.4581    995.6223 307.5176379  +6.3307240     778.1671     1155.101     1622.133      94.5994     189.6516     378.9639      1.735     4.72     1314.544     66.83842     102.8279         6     1.309     0.484  -1.44   0
