#   1 NUMBER                 Running object number                                     
#   2 X_IMAGE                Object position along x                                    [pixel]
#   3 Y_IMAGE                Object position along y                                    [pixel]
#   4 ALPHA_J2000            Right ascension of barycenter (J2000)                      [deg]
#   5 DELTA_J2000            Declination of barycenter (J2000)                          [deg]
#   6 FLUX_APER              Flux vector within fixed circular aperture(s)              [count]
#   9 FLUXERR_APER           RMS error vector for aperture flux(es)                     [count]
#  12 FLUX_RADIUS            Fraction-of-light radii                                    [pixel]
#  13 FWHM_IMAGE             FWHM assuming a gaussian core                              [pixel]
#  14 BACKGROUND             Background at centroid position                            [count]
#  15 THRESHOLD              Detection threshold above background                       [count]
#  16 FLUX_MAX               Peak flux above background                                 [count]
#  17 ISOAREA_IMAGE          Isophotal area above Analysis threshold                    [pixel**2]
#  18 A_IMAGE                Profile RMS along major axis                               [pixel]
#  19 B_IMAGE                Profile RMS along minor axis                               [pixel]
#  20 THETA_IMAGE            Position angle (CCW/x)                                     [deg]
#  21 FLAGS                  Extraction flags                                          
         1    186.3117     22.0999 307.8649797  +6.6682283     10168.55     16809.19     17737.82     78.81055     157.7458     314.3681      1.736     4.27     856.7274       55.418     1340.139        41     1.709     1.011 -32.82   0
         2    931.8593     19.9038 307.5552393  +6.6941685     3918.141     6436.065     6631.267     78.68576     157.2466     314.4931      1.705     4.22     836.9235       55.418      599.009        26     1.607     0.898 -29.06   0
         3    468.9140     18.5767 307.7476666  +6.6791946     1801.169     2923.814     2894.858     78.81055      157.059     314.2743      1.734     4.92      845.077       55.418      235.442        20     1.544     0.875 -32.03   0
         4    996.7952     16.0633 307.5283828  +6.6979253         1868     3135.575      3056.07     78.18457      157.059     314.1805      1.738     4.65     832.6091       55.418     254.6182        21     1.560     0.818 -40.88   0
         5    716.0017     12.6234 307.6451885  +6.6899463     6854.258     11128.95     11836.88     78.43556     156.9338     314.1805      1.675     4.27     840.2758       55.418     1046.763        35     1.607     0.994 -33.35   0
         6    636.3408     11.8370 307.6783192  +6.6875993     3633.156     5619.189      5419.96     78.81055     157.3091     314.3994      1.673     4.12     841.3634       55.418     565.8088        26     1.580     0.855 -32.81   0
         7    338.4735     11.5067 307.8021100  +6.6777265     835.1035     1414.535     1496.554     78.68576     157.3715     314.3681      1.822     5.76     855.0887       55.418     132.8464        10     1.378     0.677 -48.75   0
         8    436.4359      8.0164 307.7615201  +6.6824627     5959.513     9675.648     9882.566     78.43556     156.9964      312.864      1.697     4.11     847.3799       55.418     805.4824        32     1.636     0.950 -37.04  16
         9    392.6314      9.9207 307.7796586  +6.6802035     496.1681     412.4308     184.3175     78.68576     157.2466     314.3681      1.362     3.47     850.8909       55.418     121.8464         5     0.990     0.352 -44.86   0
        10     37.4090      7.6812 307.9273420  +6.6691579     7973.353     13141.44     13722.81     78.43556     156.8711     311.1946      1.752     4.29     857.6693       55.418     1056.037        37     1.653     1.011 -37.09  16
        11    683.5472      6.9436 307.6588672  +6.6912030     929.0345     1643.933     1600.853     78.93516     157.2466     306.3568      1.737     6.46     840.0394       55.418     117.0654        14     1.639     0.715 -34.26  16
        12    332.9459      3.0786 307.8046924  +6.6810200     12243.07     19899.93     20873.03     78.93516     147.3744     263.4075      1.736     4.30     855.3154       55.418     1752.591        41     1.731     1.027 -36.63  24
        13    512.2430      5.1478 307.7301152  +6.6861947       942.94     1302.326      1307.52     78.81055     157.2466     289.4666      1.519     5.03     843.0961       55.418     143.5961         9     1.224     0.585 -33.31  16
        14    106.5124      3.1826 307.8987805  +6.6733471     2339.339     3816.701     4349.504     78.56076      148.305     264.5616      1.726     3.99     855.5219       55.418     390.3667        24     1.488     0.939 -41.48  24
        15    427.8727      4.0743 307.7652119  +6.6838023     665.8592     1062.111     1447.585     79.05956     155.8655     276.7972      1.660     3.96     847.9969       55.418      94.0528         6     0.772     0.582 -50.64  16
        16     97.9164      2.3945 307.9023792  +6.6733825     1437.758     2301.174     2402.099     78.05877     139.5654     253.0947      1.608     5.93     855.3423       55.418     224.5549        14     1.562     0.640 -41.94  24
        17    801.4225      1.9909 307.6100488  +6.6971983     788.7188     1253.385     1371.668     75.49876     134.2535     247.0027      1.614     4.28      839.119       55.418     138.9009         9     1.245     0.515 -29.74  24
        18    398.7947      1.5115 307.7773821  +6.6838825     1649.766     2130.024     2005.136     70.23891     127.1864     239.2826      1.221     3.82     850.4552       55.418     357.9126        12     1.330     0.584 -14.46  24
        19    549.9731    996.3223 307.6809644  +6.2782431     7956.875      12721.9     13826.01     78.68576     157.1841     314.3681      1.668     4.12     876.2797       55.418     1148.697        35     1.609     0.975 -38.64   0
        20    756.7581   1023.7061 307.5941779  +6.2738686     937.5755     1375.057     1252.453      68.1078     124.3736     236.0573      1.399     3.99     873.6578       55.418     190.3445         6     1.057     0.433  -8.47  24
        21    892.2720    993.2501 307.5389321  +6.2909778     11133.53     19233.91     20676.43     78.81056     157.2466     314.4306      1.873     4.33     871.7336       55.418     1391.632        50     1.792     1.189 -27.40   0
        22   1014.0457    992.6099 307.4883872  +6.2953119     4073.648     7685.569     8115.593     78.31017     157.1215     314.0866      1.992     4.66     865.4152       55.418     519.7336        37     1.808     1.143 -29.86  16
        23    536.6211    992.2900 307.6866446  +6.2794599     4038.427     6937.301     8105.802     78.68576      157.059     314.3056      1.917     4.24     876.3409       55.418     574.5423        34     1.706     1.197 -12.59   0
        24    605.2208    993.4379 307.6581211  +6.2812873      1293.86     2007.152     2354.055     78.43556     156.9964     314.1492      1.626     3.94       875.34       55.418     202.5883        17     1.327     0.890 -33.64   0
        25    646.1154    991.4256 307.6412081  +6.2834893     1197.801     1941.432     2134.171     78.93516     156.9964     314.2743      1.755     5.98     875.0552       55.418     158.0011        17     1.575     0.782 -32.00   0
        26     71.2157    990.9421 307.8799338  +6.2643629     737.9889     1270.779     1498.752     78.18457     157.1841     314.1179      1.584     4.60     876.8249       55.418     134.2244         8     1.278     0.469 -33.83   0
        27    489.3790    988.6828 307.7063826  +6.2793635      2204.15     3486.895     3890.246     78.56076     156.9338     314.3369      1.648     4.35     876.5837       55.418      361.273        20     1.491     0.824 -31.28   0
        28    397.3391    987.0611 307.7446548  +6.2769415     473.9938     780.0211     718.7044     78.81055     157.2466     314.4306      1.641     4.69     877.9518       55.418     76.11005         5     1.057     0.590 -14.98   0
        29    924.0118    980.7726 307.5261717  +6.2971907     38436.73     67586.94     73054.27     78.43556      157.059     314.3369      1.871     4.21     871.0587       55.418     4498.641        77     1.860     1.267 -31.98   0
        30    329.5294    981.6938 307.7729924  +6.2768780     667.3829     831.2352     743.8008     78.81056     157.3091     314.3994      1.380     4.48     878.3668       55.418     99.34521         7     0.996     0.574 -31.40   0
        31    231.1610    979.0325 307.8139268  +6.2746674     1620.841     2566.469      2767.53     78.43556      157.059     314.2118      1.604     4.61     878.0864       55.418     239.9235        15     1.373     0.709 -36.43   0
        32    118.7776    978.2410 307.8606165  +6.2712095     751.9883     1175.478      917.327     78.43556      157.059     314.1805      1.487     4.86     876.3322       55.418      130.434        10     1.339     0.641 -32.74   0
        33    630.1306    977.1547 307.6483267  +6.2888454      781.621       1259.5     835.6848     78.81055     157.1841     314.3994      1.668     5.74     874.8207       55.418      114.927        10     1.249     0.744 -50.57   0
        34    821.9969    974.5139 307.5687441  +6.2963625     2150.596     3520.389     3690.979     78.18457     156.8711     314.1179      1.630     4.36     871.3397       55.418     301.7582        21     1.575     0.791 -36.92   0
        35    770.0533    972.4329 307.5903836  +6.2954830     6126.419     10451.23     11763.22     78.68576     157.1841     314.3369      1.904     4.26     872.0621       55.418     814.1792        38     1.774     1.106 -43.53   0
        36    737.0298    973.5645 307.6040585  +6.2939099     593.3193     618.7791     550.8544     78.43556     156.9964     314.2118      1.375     4.48     872.8568       55.418     94.30084         5     1.031     0.553 -75.98   0
        37    556.7288    971.8874 307.6789837  +6.2885582     975.3536     1477.967     1423.573     78.93516     157.4964     314.3994      1.666     3.99     875.7575       55.418     134.3549        10     1.182     0.581 -38.91   0
        38    239.4290    971.4759 307.8107495  +6.2780655     1581.975     2350.595     2562.289     78.68576     157.3091     314.4306      1.637     4.43      877.816       55.418     225.6953        15     1.308     0.741 -33.29   0
        39    204.4127    970.5077 307.8253217  +6.2772865     768.6883      1324.66     846.2706     78.56076     156.9964     314.1805      1.737     5.49     877.2523       55.418     117.3398         8     1.496     0.567 -33.36   0
        40     64.4532    969.4359 307.8834708  +6.2730138     2620.744     4349.742     4611.783     78.68576     157.2466     314.4306      1.783     4.72     876.6399       55.418     333.4792        24     1.736     0.808 -35.68   0
        41    958.3787    967.5182 307.5123463  +6.3038118     5962.115     10479.61     10754.09     78.56076     156.9338     314.3056      1.883     4.47     868.7798       55.418     753.5923        37     1.692     1.120 -31.95   0
        42    214.5858    963.6785 307.8213288  +6.2804485     612.8599     970.5121     1154.387     78.43556     156.9964     314.2118      1.482     4.09      877.256       55.418     91.21478         6     0.882     0.542 -46.58   0
        43    640.6215    961.4403 307.6445002  +6.2956851     774.1699     1194.532     973.9641     78.43556      157.059     314.2118      1.621     5.26     874.3939       55.418     105.9029         9     1.340     0.583 -27.02   0
        44    932.0552    959.2493 307.5235552  +6.3063460      1739.29     3081.443     3552.048     78.81055     157.2466     314.4619      2.035     4.91     869.6189       55.418     220.6546        23     1.558     0.939 -31.24   0
        45    791.6956    955.7625 307.5819579  +6.3030903     1267.753     2030.238     2261.111     78.93516     157.1215     314.5244      1.705     4.91     871.2676       55.418     174.2186        14     1.399     0.808 -49.84   0
        46    652.8914    955.0576 307.6396204  +6.2987316     4399.992     7077.732     7236.064     78.68576     157.1841     314.4931      1.645     4.14     874.1755       55.418     700.3685        30     1.608     0.919 -35.03   0
        47    265.0961    955.2112 307.8006424  +6.2856442     4247.429     6584.276     6696.328     78.56076     156.9338     314.2118      1.640     4.10     877.4402       55.418     602.2611        26     1.577     0.853 -36.40   0
        48   1001.7928    955.2516 307.4947303  +6.3103270     722.7728     1361.005     1429.243     78.31017      157.059      314.024      2.020     5.73     866.6191       55.418     89.26135         8     1.243     0.744 -69.28   0
        49    475.0284    953.4974 307.7135296  +6.2934084     1126.749       1725.1     1783.819     78.93516     156.9964     314.3994      1.627     5.42     876.3347       55.418     159.4656        12     1.400     0.605 -30.03   0
        50     33.6671    952.6017 307.8968243  +6.2789257     1971.627     3256.333     3199.931     78.31017     156.8085     314.1805      1.690     4.29     876.6268       55.418     262.0535        19     1.493     0.845 -36.88   0
        51    884.3242    951.8079 307.5436262  +6.3078224     887.5237     1335.161     885.6042     78.43556     156.7458     314.2118      1.579     5.54     870.1242       55.418     112.8234        11     1.277     0.678 -32.34   0
        52    577.6351    947.7582 307.6711166  +6.2992217     1580.997     2411.166     2309.106     78.56076     157.2466      314.243      1.655     4.45     874.9346       55.418     222.2063        18     1.515     0.789 -30.26   0
        53    301.0010    948.7577 307.7859521  +6.2895165     783.6894     1247.061       1390.2     78.18457     156.9338      314.024      1.508     5.35     877.4799       55.418     120.9619        11     1.283     0.630 -35.42   0
        54   1009.6871    946.0561 307.4917609  +6.3143873     823.8773     1768.101     2159.989     78.81055     157.1215     314.5244      2.519     5.04     866.4413       55.418     162.7426         9     1.238     0.582 -61.73   0
        55    616.4884    944.1186 307.6551055  +6.3020275     1188.209     1840.237      1449.51     78.56076     157.4339     314.4931      1.552     4.82     874.1899       55.418     188.0907        11     1.291     0.607 -34.45   0
        56     65.0000    945.0193 307.8840716  +6.2831126     509.9293     1111.423      1580.74     78.31017     156.7458     314.0553      2.209     3.75     876.3123       55.418     106.6246         5     0.832     0.485 -68.94   2
        57    296.5701    941.6336 307.7880329  +6.2923087     1538.223     2429.685     2541.255     78.31017     156.9964     314.1179      1.690     3.93     877.2852       55.418     226.7147        16     1.271     0.820 -41.36   0
        58    763.9942    937.5196 307.5940754  +6.3096948     863.0721     1474.635     834.7322     78.43556     156.8085     314.1492      1.622     5.73     871.3848       55.418     130.4825        11     1.480     0.625 -31.41   0
        59    901.0377    934.3352 307.5372734  +6.3155953     6398.282     10791.94     11465.46     78.68576     157.1841     314.4931      1.812     4.07     868.9915       55.418     811.2272        38     1.684     1.064 -35.55   0
        60    139.1011    935.9541 307.8536107  +6.2893525     579.2511     620.2651     324.5215     78.81055     157.1215     314.6181      1.354     4.49     876.0451       55.418     89.79523         6     0.795     0.721 -75.70   0
        61    436.8997    931.4996 307.7301053  +6.3012099      1981.96      3103.14     3077.556     78.81055     157.6211      314.243      1.660     4.57     876.6517       55.418     287.0642        17     1.521     0.696 -36.77   0
        62    338.6439    929.8199 307.7709619  +6.2986011     9295.828     15094.09     15879.41     78.31017     157.1215      314.243      1.713     4.09     876.9473       55.418     1281.456        40     1.641     1.026 -35.32   0
        63    258.6917    928.7262 307.8041980  +6.2963633     6758.143      10862.6     11806.94     78.81056     157.3715     314.4306      1.731     4.15     876.4987       55.418     973.2679        36     1.733     0.941 -36.37   0
        64    586.8660    923.3706 307.6681062  +6.3096002     1053.503     1702.429     2079.861     78.56076     157.2466     314.3369      1.609     5.48     874.2578       55.418     144.0772        12     1.348     0.629 -35.62   0
        65    770.8277    923.3883 307.5917135  +6.3157580     810.4561     1310.667     1198.169     78.43556      157.059     314.3369      1.559     3.99     870.9589       55.418     126.4144         7     0.939     0.485   3.39   0
        66    916.4399    919.8287 307.5313651  +6.3220997     1118.665     1759.904       1815.4     78.43556     156.9964     314.2743      1.782     4.93     868.1902       55.418     168.7107        12     1.240     0.776 -36.30   0
        67    149.2762    919.6193 307.8499392  +6.2964392     663.0397     1122.476     1233.005     78.43556     156.9338     314.3369      1.987     6.11     875.9167       55.418       96.966         7     1.365     0.768 -35.43   0
        68    872.7524    917.7164 307.5495784  +6.3215108     538.9196     1301.459     1228.306     78.81056     157.2466     314.4306      2.440     7.81     869.3297       55.418     85.55219        10     2.213     0.770  -3.37   0
        69    415.9701    917.5303 307.7392682  +6.3062741      695.911     980.6458     966.0054     78.68576     157.2466     314.3369      1.433     4.54     876.6116       55.418     94.78595         8     0.809     0.726 -76.96   0
        70    984.0560    915.3828 307.5034353  +6.3261953     827.9283      1408.75     1426.353     78.31017     157.1841     314.1492      1.730     6.95     866.4879       55.418      114.124        13     1.539     0.879 -36.26   0
        71    753.0795    912.5839 307.5994476  +6.3196245     1534.544     2365.771     2946.861     78.43556     156.9964     314.2118      1.813     4.73     871.0155       55.418     213.9592        15     1.469     0.706 -41.17   0
        72    576.4946    913.3284 307.6727517  +6.3133983     726.7855     1026.669     439.8864     78.68576     157.3091     314.3994      1.525     6.08     874.2742       55.418     139.3491        11     1.642     0.633 -27.19   0
        73    617.4536    909.2567 307.6558804  +6.3164532     804.6002     1286.571     1609.193     78.93516     157.2466     314.3994      1.936     4.77     873.3572       55.418       118.88         9     1.047     0.737 -42.03   0
        74      3.6595    909.7067 307.9107390  +6.2956227     887.2912     1675.977     1632.215     78.68576     152.7447     271.4554      2.077     6.09     875.7394       55.418     119.6549        13     1.492     0.699 -17.68  24
        75    984.8210    908.0881 307.5033627  +6.3292327     1176.527     2108.376     2133.207     78.81055     156.9964     314.2743      1.824     6.66     866.1455       55.418     143.0798        17     1.730     0.813 -25.73   0
        76    629.3268    908.5446 307.6509739  +6.3171453     705.9431     941.7393     946.4813     78.68576     157.1215     314.3056      1.658     4.47     873.1747       55.418     93.41754         7     1.031     0.552 -58.38   0
        77    538.5092    908.0731 307.6887028  +6.3142935     1041.752     1518.413     1876.607     78.81055     157.4964     314.4306      1.572     5.87     874.9075       55.418     150.4561        14     1.425     0.815 -12.04   0
        78    671.7269    905.9674 307.6334536  +6.3196308     2502.508     3691.006     4156.076     78.68576     157.2466     314.3681      1.611     4.05     872.3878       55.418     371.1509        19     1.384     0.828 -30.69   0
        79    962.4504    903.6683 307.5128013  +6.3303100     594.4464     845.1012       410.31     78.68576     157.1215     314.3994      1.620     4.35     866.6134       55.418     81.61713         5     1.011     0.534  47.40   0
        80    832.3337    902.4358 307.5668773  +6.3264675     814.3245     1406.189     1880.265     78.68576     157.3091     314.4619      2.109     6.97     869.7623       55.418     115.4555        14     1.578     0.862 -19.63   0
        81    211.8579    900.9839 307.8245843  +6.3062404     2124.651     3334.167     3602.563     78.18457     157.1841     314.1179      1.670     4.45     875.9066       55.418     340.5457        21     1.569     0.833 -38.77   0
        82     68.3701    901.8880 307.8841347  +6.3010330     2794.582     4817.171     5208.682     78.93516     156.9964     314.3056      1.892     4.48     875.5257       55.418     393.8308        24     1.585     0.868 -33.73   0
        83    949.3293    901.6776 307.5183172  +6.3306933     716.1087      927.587     676.8519     79.05956     157.4964     314.3681      1.656     4.32     866.9252       55.418     112.7698         7     1.206     0.441 -30.86   0
        84     85.9143    901.1185 307.8768760  +6.3019421     1767.181     2657.383     2646.674     78.56076     157.4964     314.4931      1.551     4.31     875.4946       55.418     250.5677        17     1.430     0.727 -37.89   0
        85   1013.8515    899.0341 307.4916112  +6.3339407     515.9597     653.9131     394.4623     78.68576     157.1841     314.3056      1.389     3.78     864.8433       55.418     79.68347         5     0.805     0.511  33.66   0
        86    245.3961    897.7343 307.8107678  +6.3087110     892.4982     1288.697     1368.034     78.18457     156.9964     314.1805      1.687     4.82     876.0905       55.418     145.2453         8     1.029     0.639 -32.87   0
        87    666.3496    894.8864 307.6360601  +6.3240255     6744.028     10934.41     11776.74     78.81055     157.1215     314.4931      1.717     4.13     872.0201       55.418     958.1038        35     1.695     0.955 -33.40   0
        88    350.7850    896.8818 307.7670342  +6.3126082     819.4741     1308.398     1945.737     78.43556     156.9964      314.243      1.551     4.95     876.3608       55.418     131.5258         9     1.241     0.558 -30.21   0
        89    803.9689    895.7151 307.5788827  +6.3282930     570.1763     730.9495     695.6616     78.81055      157.059     314.2743      1.301     3.63     870.0883       55.418     104.5245         5     1.019     0.507 -40.31   0
        90     26.5625    892.9453 307.9017978  +6.3033152     1041.067     1738.188     1562.478     78.68576     157.3091     314.4306      1.661     6.36     875.3525       55.418      145.822        15     1.664     0.682 -42.35   0
        91    904.0577    891.3798 307.5374639  +6.3334315     2590.014      4202.85     4721.374     78.43556     157.1215     314.2118      1.754     4.38     868.0037       55.418     344.0482        25     1.534     0.941 -38.73   0
        92     39.2914    891.7469 307.8965530  +6.3042392     963.4802     1530.308     1412.152     78.68576      157.059     314.5556      1.728     5.57     875.3257       55.418     122.3023        12     1.225     0.899 -36.63   0
        93    778.9041    892.0229 307.5894158  +6.3289783      570.961     819.9472     1271.617     78.81055     156.9964      314.243      1.782     4.58      870.315       55.418     82.00354         6     1.057     0.563 -12.00   0
        94    349.3379    888.0802 307.7679328  +6.3161933     15699.89     25212.19      26901.8     78.93516     157.3091     314.3681      1.710     4.16     876.2081       55.418      2263.32        47     1.716     1.016 -33.79   0
        95     84.0020    888.8906 307.8780846  +6.3069260     1244.051     2208.405     2502.538     78.05877     156.9338     314.1805      1.886     5.59     875.2442       55.418      179.238        17     1.681     0.703 -33.21   0
        96    220.4349    887.6428 307.8214745  +6.3120371     1289.785     1934.453     2663.484     78.56076     157.2466      314.243      1.739     4.46     875.8694       55.418     209.1558        11     1.194     0.702 -30.81   0
        97    400.1304    887.1400 307.7468727  +6.3182889     570.6303     736.8043     970.3991     78.93516     157.2466     314.3681      1.381     4.32     875.8538       55.418     88.74072         5     1.041     0.511 -52.01   0
        98    427.2038    878.9921 307.7359056  +6.3225625     973.5221     1374.768     1277.218     78.18457     156.9338     314.2743      1.497     4.79     875.4552       55.418     132.6255         9     1.204     0.540 -40.95   0
        99    112.5821    878.8021 307.8665590  +6.3120543     1570.487     2379.839     2803.766     78.43556     156.8085     314.1179      1.593     5.39      875.213       55.418     223.3033        18     1.623     0.721 -35.93   0
       100    507.3470    876.2221 307.7027186  +6.3263977      622.204      1152.68     1528.666     78.31017     157.2466     314.2118      2.159     5.24     874.7245       55.418     109.6909         8     1.505     0.515 -28.21   0
       101    681.0938    875.0244 307.6306068  +6.3327201      844.382     1452.482     1916.844     78.93516     156.9964      314.243      1.842     4.82     870.9125       55.418      148.408         9     1.428     0.462 -24.42   0
       102    894.5784    872.8777 307.5420227  +6.3407535     1913.248     2934.108     3306.441     78.43556     156.9964     314.3994      1.653     4.36     867.9355       55.418     294.9817        20     1.571     0.809 -33.26   0
       103    865.1569    872.4887 307.5542542  +6.3399301     1923.783     2877.501     2782.439     78.81055     157.1215     314.4306      1.659     5.11     868.7548       55.418     230.5647        18     1.463     0.788 -29.84   0
       104    828.7906    871.8374 307.5693785  +6.3389822     2775.687     4240.439     4504.778     78.18457      157.059     314.1179      1.610     3.97       869.33       55.418     423.6578        25     1.615     0.910 -35.02   0
       105     96.2241    872.2316 307.8735743  +6.3142156     2402.538     3947.356     4756.575     78.18457     157.1215     314.2118      1.865     4.42     874.8868       55.418     309.8677        22     1.543     0.838 -32.34   0
       106    564.4390    863.3629 307.6794439  +6.3336230       323276     511940.1     541073.8     78.56076     157.1215     314.2743      1.729     4.19     873.4191       55.418     46781.83       181     1.861     1.227 -35.60   0
       107    408.6119    865.8861 307.7440690  +6.3273488     7490.583     11867.84     12612.27     78.43556     156.9964      314.243      1.680     4.00     875.2264       55.418     1115.527        36     1.653     0.971 -32.20   0
       108    652.1898    866.4816 307.6428979  +6.3352784     1196.256     1906.892     1733.303     78.43556     156.9338      314.243      1.654     5.39     871.2175       55.418     161.4386        15     1.446     0.717 -33.78   0
       109    351.9223    864.2758 307.7676645  +6.3261081     12117.15     19400.53     20782.68     79.05956     157.4964     314.4619      1.703     4.31     875.7847       55.418     1770.831        43     1.691     1.013 -30.71   0
       110    670.2939    860.7343 307.6355734  +6.3382581     3508.651     5605.528      6183.04     78.81056     157.4339     314.4306      1.711     4.19     870.5715       55.418     522.4459        24     1.611     0.801 -38.53   0
       111    902.6300    859.5431 307.5391275  +6.3465283     5167.012     8539.921      9517.26     78.68576     157.3091     314.3056      1.858     4.33     867.4554       55.418     646.1893        36     1.844     1.053 -24.96   0
       112    741.7888    857.3218 307.6059978  +6.3420625     778.5856      1009.91      934.936     78.43556     156.8711     314.2743      1.519     4.79     870.0516       55.418     136.4211         9     1.488     0.437 -35.07   0
       113    645.1623    854.6886 307.6462139  +6.3399117      3427.07     5634.079     6036.218     78.81055     157.1215     314.4306      1.747     4.47     871.1807       55.418     477.2755        26     1.726     0.816 -36.27   0
       114    187.8725    854.7153 307.8361111  +6.3245350     626.5287     1035.672     744.1774     78.93516     157.5587     314.4306      1.511     3.81       875.57       55.418     149.3994         6     1.276     0.376 -67.00   0
       115    833.6434    853.6625 307.5679749  +6.3466485     1521.479     2483.971     2669.134     78.81056     157.1841     314.4931      1.759     5.66     868.8392       55.418     223.3999        14     1.553     0.621 -33.70   0
       116    635.1911    853.8303 307.6503837  +6.3399318     969.6168     1407.149      2191.16     78.31017      157.059     314.2118      1.610     4.73     871.4347       55.418     130.3993        11     1.256     0.673 -18.43   3
       117    637.9310    849.2958 307.6493988  +6.3418958     2153.165     3627.067     4428.324     78.68576     157.3715     314.4306      1.819     4.22     871.2354       55.418     359.5259        24     1.641     0.903 -26.43   2
       118    960.4009    852.8156 307.5153617  +6.3512373     732.7592     1183.395     1396.712     78.43556     156.8711     314.1805      1.861     5.11     865.2281       55.418     95.03491        10     1.569     0.470 -22.60   0
       119    921.5441    847.4161 307.5316804  +6.3521677     3073.837      4999.15     4448.012     78.18457     157.1841     314.1492      1.628     4.21     866.6682       55.418     404.9862        24     1.623     0.843 -26.19   0
       120    331.8880    847.9993 307.7765345  +6.3321544     1033.219      1602.13     1280.841     78.05877     156.7458     314.1179      1.539     4.69     875.6918       55.418     163.7811        12     1.385     0.636 -31.05   0
       121    379.8175    843.2493 307.7567916  +6.3357270     2502.454     3856.874     3726.412     78.31017     157.3091     314.1805      1.550     4.43     875.2393       55.418     363.2797        20     1.499     0.773 -36.73   0
       122    347.7852    835.7291 307.7703479  +6.3377548     496.1053     519.6779     432.0696     78.31017     157.1841     314.3056      1.281     5.57     875.4429       55.418     80.04211         7     1.565     0.558 -26.59   0
       123    515.9886    833.0237 307.7005884  +6.3445229     2969.643     4625.479     4582.943     78.43556      157.059     314.3369      1.588     4.26     873.0392       55.418     452.7754        20     1.468     0.795 -33.86   0
       124    861.0587    831.8529 307.5573234  +6.3565704     975.7729     1444.963     1515.339     78.81055     157.2466     314.3994      1.436     4.91     867.7793       55.418     145.6533        10     1.279     0.592 -32.09   0
       125    581.3793    830.4996 307.6735179  +6.3477595     773.5984     1360.886       1516.2     78.81056      157.059     314.1805      1.778     6.09     871.8118       55.418     119.4412        12     1.539     0.677 -33.85   0
       126    562.7971    829.1553 307.6812802  +6.3476910     5832.521     9192.923     9569.374     78.18457     156.8085     314.0553      1.652     4.19     872.0389       55.418      908.609        30     1.584     0.896 -33.32   2
       127    569.8693    828.6379 307.6783607  +6.3481420     1294.325     2100.557     2629.281     78.68576     157.2466     314.4931      1.964     4.47     871.9361       55.418     195.3728        16     1.410     0.783 -27.49   3
       128    480.6103    828.1528 307.7154449  +6.3453461     1453.636     2214.221     1928.317     78.31017     157.1215     314.0553      1.552     4.22     873.5186       55.418      231.061        15     1.425     0.725 -28.48   0
       129    274.2749    829.1495 307.8010971  +6.3379986      744.489     1374.666     1594.312     78.81055     157.3091     314.4306      1.698     3.49     875.7159       55.418     140.2955         5     1.134     0.309  -9.34   0
       130    898.7518    827.0494 307.5418310  +6.3598145     1404.491     2088.183     2098.865     78.81055     157.1215     314.3994      1.638     6.01     866.7866       55.418      190.637        15     1.408     0.797 -35.81   0
       131    122.1329    827.3501 307.8643370  +6.3336182     1306.455     2055.474     1722.484     78.68576     157.1215     314.3681      1.640     5.90     874.5023       55.418     179.1633        14     1.313     0.747 -33.08   0
       132    698.3490    826.2625 307.6250844  +6.3534307     790.7949     1258.595     1112.509     78.81056     157.1841     314.3994      1.650     4.12      869.904       55.418     141.6294         8     1.131     0.628 -35.75   0
       133    533.5556    823.0435 307.6936301  +6.3492331     19082.08     30181.31     31469.14     78.81055     157.2466     314.2743      1.686     4.12     872.2557       55.418     2743.703        48     1.680     1.010 -32.58   0
       134    374.2466    824.8243 307.7597279  +6.3431466     653.3553     793.0062     892.1613     78.43556     157.2466     314.2743      1.473     4.09     875.0723       55.418     98.81012         7     1.074     0.595 -11.47   0
       135    947.1569    821.4319 307.5219170  +6.3637522     3554.147     5864.515     6157.416     78.31017     157.1841      314.243      1.728     4.53     865.3212       55.418     462.0431        28     1.581     0.966 -33.05   0
       136     67.1354    819.0292 307.8874572  +6.3351996     603.5045     902.5245     468.6806     78.56076     157.2466     314.3369      1.455     4.25     874.0367       55.418     86.16693         6     0.801     0.666 -80.00   0
       137    701.7005    815.1371 307.6240675  +6.3581363     520.0049     846.6066     746.3978     78.56076     157.3091     314.4619      1.478     5.55     869.7473       55.418     87.35779         7     1.214     0.716  81.81   0
       138     43.8246    813.4471 307.8973265  +6.3367181     1386.715     2271.224     2516.993     78.43556     157.2466     314.2743      1.960     4.34     873.9448       55.418     205.0335        17     1.394     0.826 -22.94   0
       139    326.2265    811.6560 307.7801149  +6.3469687     3183.424     5156.211     5570.249     78.43556     157.3091      314.243      1.731     4.22     875.3845       55.418     450.8352        27     1.501     0.941 -37.81   0
       140    791.7089    807.6219 307.5869401  +6.3642538     52950.16     83991.97     88412.35     78.81056      157.059     314.2743      1.705     4.33     868.3701       55.418     6933.283        72     1.751     1.082 -34.05   0
       141     26.1068    809.8451 307.9048061  +6.3376076      2190.07      3435.87      3543.01     78.68576     157.1841     314.5244      1.658     4.76     873.8988       55.418     312.4541        22     1.556     0.861 -32.99   0
       142    730.1945    809.4362 307.6124261  +6.3614447      611.561       1021.4     1012.652     77.93277     156.9964     314.2118      1.687     3.81     869.5646       55.418     115.5292         6     1.267     0.328 -40.64   0
       143    248.4895    783.9702 307.8133344  +6.3557834     750439.8      1763805      1983175     78.93516     156.9964     314.3681      2.368     5.89     874.8146       55.418     62795.77       649     2.765     2.255 -61.68   4
       144    719.9490    802.2402 307.6169235  +6.3640725      20411.5     33329.19     36280.95     78.81055     157.2466     314.3681      1.722     4.20     869.5172       55.418     3163.338        56     1.781     1.101 -30.65   3
       145    713.6723    798.6786 307.6196503  +6.3653327     85145.12     134402.3     141796.7     79.05956     157.4964     314.3681      1.714     4.20     869.4566       55.418      11674.1        86     1.781     1.093 -35.03   3
       146    358.5460    799.5065 307.7671042  +6.3530715     20054.88     31961.69     33770.91     78.68576     157.1841     314.6181      1.729     4.31     874.8427       55.418     2678.423        54     1.737     1.064 -34.95   0
       147    420.3971    797.3881 307.7414899  +6.3560251     21352.47     33859.03     35753.95     78.43556     156.9338     314.2743      1.706     4.12      874.157       55.418     3063.325        48     1.699     0.998 -34.40   0
       148    407.8416    799.6688 307.7466270  +6.3546615     1404.109     2120.962     2482.602     78.68576     157.2466     314.4931      1.676     4.88     874.4648       55.418      200.996        13     1.356     0.605 -30.26   0
       149    647.3319    798.8542 307.6471957  +6.3630367     872.2714     1600.147     1489.953     78.81055     157.1841     314.3056      1.970     3.80     869.9304       55.418     170.5618        10     1.266     0.708 -24.12   0
       150    957.7603    796.3558 307.5183564  +6.3744599     1873.541     3223.987     3114.236     78.56076     157.2466     314.2743      1.800     4.73     864.5364       55.418     249.4304        22     1.651     0.905 -48.80   0
       151    913.8943    794.3409 307.5366423  +6.3738254     6312.953     10107.54     11218.62     78.68576     157.2466     314.5244      1.710     4.10     865.7004       55.418     915.9517        33     1.659     0.926 -33.43   0
       152    887.0963    794.8431 307.5477550  +6.3727218     652.6135     940.9438     1215.385     78.81055     157.1841     314.5556      1.461     4.62     866.2837       55.418     108.6463         6     1.083     0.558 -19.12   0
       153    654.4691    793.2854 307.6444194  +6.3655752     6319.138     9814.367     10028.04     78.93516     157.4964     314.4306      1.682     4.18     869.6358       55.418     917.6211        30     1.614     0.864 -34.24   0
       154    394.0070    793.1261 307.7525935  +6.3568978     537.3357     648.0416     675.1903     78.43556     156.8085     314.2743      1.252     3.91     874.2401       55.418     86.76074         6     0.984     0.444 -39.39   0
       155    443.2557    791.4050 307.7321992  +6.3592633     1649.751     2442.785     2286.739     78.18457      157.059     314.1179      1.558     3.35     873.1928       55.418     253.1774        15     1.190     0.737 -31.28   0
       156    168.1853    790.8720 307.8464491  +6.3502299     777.2614     1237.343     1101.625     78.31017     157.1215     314.2743      1.559     4.84     874.4266       55.418     114.5324         8     1.261     0.526 -30.92   0
       157    434.6924    806.5385 307.7352440  +6.3527276     860.9428     1458.585     1548.273     78.68576     157.2466     314.4619      1.830     5.09     874.0037       55.418     128.5745        10     1.238     0.593 -37.86   0
       158    742.0920    788.2815 307.6081977  +6.3705774     555.7663     644.7245      524.549     78.56076     157.4964     314.4619      1.392     4.40     868.8712       55.418     94.85327         5     1.249     0.442 -28.29   0
       159    607.8111    785.1956 307.6640694  +6.3673507     806.3802     1337.315      1202.33     78.43556     156.9338     314.3056      1.733     5.07     869.8568       55.418     136.1976         9     1.355     0.537 -47.60   0
       160    882.6768    784.9639 307.5499229  +6.3766528     671.3575     1081.497     1078.949     78.68576     157.3091     314.4306      1.522     5.42     866.1626       55.418      126.249        11     1.419     0.639 -32.43   0
       161    689.5045    783.4365 307.6302010  +6.3708158      2457.41     3829.917     3741.277     78.93516     157.1215     314.5244      1.669     4.86     869.0096       55.418     332.8676        20     1.528     0.782 -37.36   0
       162    158.9329    783.6494 307.8505361  +6.3529001      975.613     1664.625     1506.809     78.68576     157.1215     314.4306      1.677     4.57     874.2532       55.418     141.0473        12     1.363     0.662 -58.86   0
       163    133.9560    783.6567 307.8609082  +6.3520556     1140.271     1944.196     1941.741     78.68576     157.2466     314.3994      1.845     4.86     874.0127       55.418     194.9128        15     1.511     0.770 -47.89   0
       164    423.3680    780.0376 307.7408425  +6.3632883     51315.01     81640.45     86275.52     78.43556     156.9964     314.1805      1.677     4.04     873.2408       55.418     7655.245        71     1.746     1.061 -33.65   0
       165    965.8488    782.1655 307.5154741  +6.3805891     516.4399     727.3474     664.2133     78.68576     157.2466     314.3369      1.527     4.32     863.9053       55.418     81.14514         6     1.146     0.463 -25.95   0
       166     75.2706    781.5438 307.8853502  +6.3509498     504.1471     624.7856     397.5812     78.93516     157.1841     314.3681      1.534     3.32     873.5729       55.418     85.75385         5     0.791     0.683  53.51   0
       167    541.0679    779.1025 307.6919936  +6.3676270     6854.952     10778.83     11382.29     78.81055     157.3091     314.3994      1.614     4.06     870.6348       55.418     1107.138        31     1.635     0.852 -32.61   0
       168    457.8203    777.7209 307.7266129  +6.3654022     4323.545     6873.443     7678.539     78.43556     156.9338     314.3994      1.704     4.40     872.1913       55.418     627.0762        28     1.713     0.836 -33.48   0
       169    786.2816    775.7158 307.5902685  +6.3772453     11032.47     17629.55     18127.47     78.56076     157.4964     314.4619      1.687     4.25      867.663       55.418     1711.791        42     1.733     0.938 -34.56   0
       170     16.1142    771.5349 307.9102555  +6.3530869     1055.053     1682.494     1580.566     78.93516     157.4339     314.4306      1.805     6.62     873.1808       55.418     159.6303        14     1.735     0.708 -46.93   0
       171    454.5251    771.0310 307.7282074  +6.3680535     2171.453     3540.102      3451.21     78.68576     157.3091     314.3994      1.687     4.00     871.9658       55.418     368.0232        23     1.528     0.868 -34.54   0
       172    807.8489    770.0809 307.5815010  +6.3802938     1288.054      2108.79     2305.894     78.81055     157.3091     314.4306      1.740     5.03     867.1476       55.418     205.2017        14     1.393     0.701 -33.75   0
       173    152.0520    768.0375 307.8539226  +6.3591137     2789.052     4438.258     4485.356     78.68576     157.2466     314.3994      1.707     4.46     873.9196       55.418     404.4742        22     1.552     0.836 -36.94   2
       174    144.0449    767.6401 307.8572613  +6.3590081     11080.19     17807.85     19587.79     78.56076     157.2466     314.3056      1.706     4.16     873.8671       55.418      1597.01        45     1.708     1.044 -28.78   2
       175    931.8991    764.2921 307.5301751  +6.3868338     5983.104     9699.837     10241.74     78.81055     157.7458     314.3681      1.715     4.27     864.4616       55.418     862.9839        36     1.675     0.996 -36.29   0
       176    917.0043    802.8763 307.5350636  +6.3704053      7815.92     12987.36     13440.93     78.43556     156.7458      314.243      1.715     4.46     865.8615       55.418     1069.783        36     1.658     0.994 -33.69   0
       177    136.3384    764.9708 307.8605521  +6.3598504     2847.445     4661.262     5336.464     78.56076     157.2466     314.3369      1.645     4.35     873.7738       55.418     407.1914        21     1.565     0.745 -34.99   0
       178    981.0935    764.4057 307.5097396  +6.3884312     1370.538     2242.429     2542.457     78.43556     156.9338     314.1805      1.766     4.10      862.954       55.418     216.9073        18     1.410     0.836 -20.39   0
       179    687.1825    761.9783 307.6318887  +6.3795975     1643.151     2405.092     3025.887     78.56076      157.059     314.3369      1.515     4.19      868.324       55.418     283.3218        15     1.448     0.619 -35.45   0
       180    574.1324    761.2476 307.6788644  +6.3761082     2136.903     3428.651      3847.97     78.81055     157.1841     314.4306      1.716     4.47     869.5963       55.418     308.7745        19     1.511     0.777 -34.97   0
       181    422.0031    760.9708 307.7420537  +6.3711144     1102.208     1770.274     1680.971     78.31017     156.9964     314.2118      1.494     4.25     872.3421       55.418     167.0781        11     1.279     0.569 -21.91   0
       182    136.4172    758.5501 307.8607370  +6.3625038     1829.715     2921.967     3038.493     78.31017     157.3091     314.1492      1.691     4.41     873.6923       55.418      269.325        16     1.500     0.658 -27.20   0
       183    926.0121    756.4001 307.5328855  +6.3898954     2782.717      4392.89     4782.146     78.43556     156.9338     314.2118      1.630     4.25     864.4124       55.418     377.1127        22     1.486     0.818 -30.04   0
       184    986.4331    755.6180 307.5078173  +6.3922378     1723.992     2732.925     3128.895     78.43556      157.059      314.243      1.734     4.85      862.585       55.418     232.4258        22     1.575     0.926 -46.52   0
       185    955.4937    755.9059 307.5206577  +6.3910850     2824.442     4465.883     4748.819     78.81055     157.7458     314.3681      1.656     4.23     863.5349       55.418     401.9392        24     1.525     0.846 -33.74   0
       186    678.6412    755.5095 307.6356541  +6.3819820     1336.083     1982.418     2056.169     78.81056     157.2466     314.4306      1.576     4.66     868.1746       55.418     203.2122        12     1.286     0.684 -32.85   0
       187    705.7614    759.5059 307.6242559  +6.3812409     621.0047     809.0802     794.5765     78.93516     157.1215     314.4931      1.511     4.78     868.1422       55.418     91.94244         8     1.287     0.502 -32.97   0
       188    825.5191    753.8087 307.5747101  +6.3876036     989.3642     1338.644     1277.893     78.43556     156.8711      314.243      1.553     4.32     866.5366       55.418     150.1016        11     1.188     0.661 -24.85   0
       189    901.6004    751.6227 307.5431851  +6.3910515     616.3088      997.939      1355.68     78.43556     156.9338     314.1805      1.910     4.39     864.9656       55.418     121.3164         7     1.317     0.417 -34.99   0
       190    250.7952    750.3588 307.8135148  +6.3697377     1647.257     2863.711     3588.399     78.05877     156.9338     314.1179      1.998     5.19     874.2263       55.418     247.2098        19     1.652     0.824 -39.61   0
       191    943.4670    746.2217 307.5259783  +6.3946813     1052.528     1212.159     882.3315     78.43556     157.2466     314.3056      1.247     3.16     863.6267       55.418     163.4037        11     1.030     0.687 -45.18   0
       192    917.6735    744.6931 307.5367426  +6.3944501     938.0908     1508.865     1754.043     78.68576     157.3715     314.3994      1.699     5.99     864.3417       55.418     141.3552        12     1.459     0.691 -38.18   0
       193    271.7798    745.3097 307.8049709  +6.3725285     541.1058     737.0755     940.1987     78.68576     156.9964      314.243      1.756     5.54     874.1758       55.418      88.6803         8     1.460     0.593 -38.00   0
       194    166.3105    745.6995 307.8487583  +6.3688164     691.2211     1202.121     815.9885     78.81056     157.6835     314.3681      1.671     4.20     873.6153       55.418     101.3326         7     1.101     0.457 -31.51   0
       195    970.5027    743.6465 307.5148361  +6.3966482     2310.925     3951.624     4509.649     78.81056     157.1841     314.5556      1.887     4.40     862.7191       55.418     280.4779        24     1.508     0.968 -37.06   0
       196    689.8500    742.5845 307.6314346  +6.3876940     829.2778     1178.221     2007.036     78.18457     157.3091     314.1179      1.667     4.35     867.6699       55.418     147.9448        10     1.271     0.666 -16.30   0
       197   1012.2202    737.1430 307.4977280  +6.4007273     1675.025     2667.188      2356.63     78.43556     157.1841     314.2118      1.636     4.71     861.2854       55.418     216.3507        21     1.563     0.863 -40.02   0
       198    410.9647    737.8638 307.7474191  +6.3802834     581.9548     727.8076     1444.548     78.68576     157.1841     314.3994      1.480     3.95     871.4052       55.418     80.49384         6     0.936     0.477 -38.32   0
       199    812.9900    735.5862 307.5805272  +6.3947078     1164.902     1866.909     1981.878     78.56076     156.9964     314.3369      1.606     3.99     866.2931       55.418     204.4723        14     1.344     0.713 -27.14   0
       200    638.7895    735.7825 307.6528705  +6.3887906     698.8038     1048.597       1250.5     78.56076     156.9338     314.2743      1.552     6.13     867.7512       55.418     113.7487         9     1.243     0.849 -28.36   0
       201    899.5159    732.6355 307.5446896  +6.3988211     1496.337     2282.667      2546.98     78.81056     157.2466     314.3681      1.674     5.45     864.5474       55.418     216.8253        19     1.534     1.078 -25.18   0
       202    874.6859    727.9046 307.5551615  +6.3999439     842.4951      1165.91     1296.479     78.81055     157.6211     314.4619      1.287     5.28     865.1296       55.418     168.1545        14     1.491     0.683 -23.89   0
       203    856.7562    724.2003 307.5627330  +6.4008734     1382.528     2171.847     1763.376     78.05877     156.9338      314.024      1.464     4.23     865.3971       55.418     243.6206        10     1.314     0.490 -35.05   0
       204     55.8137    723.0027 307.8954157  +6.3744624     2390.754     4052.825     3925.788     78.43556     156.9338      314.243      1.753     5.01     873.0281       55.418     355.5792        24     1.734     0.789 -34.26   0
       205    120.2957    721.7782 307.8686785  +6.3771419     850.4784     1993.921      2623.38     78.68576      157.059     314.2118      2.444     7.22      873.278       55.418     107.9374        15     1.525     0.958 -89.88   0
       206    573.2609    718.5429 307.6806676  +6.3937103      521.371     842.5211     586.9847     78.93516     157.1841     314.4306      1.630     3.82     868.5411       55.418     99.34753         5     1.115     0.448 -54.91   0
       207    668.4619    711.6380 307.6413610  +6.3997540     6030.953     9740.059     9958.339     78.81056     157.3091     314.3994      1.697     4.36     866.6949       55.418     848.1251        32     1.648     0.909 -32.75   0
       208    615.3234    710.8809 307.6634565  +6.3982848     1455.045     2209.741     2596.531     79.05956     157.4964     314.5244      1.580     4.07     867.6124       55.418     245.7286        15     1.372     0.694 -37.73   0
       209    536.9165    711.5660 307.6959978  +6.3953712     610.0192     1068.314       1111.9     78.81055     157.1841     314.3681      1.601     4.59     868.9458       55.418     103.2013         7     1.316     0.455 -38.82   0
       210    526.1739    711.2999 307.7004684  +6.3951204     793.8854     1249.784     1184.522     78.81055     156.9964     314.3056      1.700     4.28     868.9519       55.418     159.0242         9     1.423     0.491 -32.69   0
       211    642.1950    707.3547 307.6524149  +6.4006418     1979.831     3130.277     3466.798     78.18457     156.9338     314.0866      1.671     4.59     867.0289       55.418     295.6551        18     1.547     0.683 -38.13   0
       212    131.4435    707.2769 307.8645405  +6.3835045      3602.81     5552.212     5799.929     78.68576     157.2466     314.4306      1.674     4.53     873.0807       55.418     462.8939        25     1.528     0.858 -37.87   0
       213   1005.3774    706.8738 307.5015872  +6.4129961     2299.212     3740.833     4050.041     78.43556      157.059     314.3681      1.715     4.94     861.1018       55.418     338.2839        21     1.543     0.842 -34.19   0
       214    318.4821    706.9838 307.7868723  +6.3899231     709.1116     1158.058     1354.282     78.43556     156.9338     314.2743      1.699     4.92     871.9849       55.418     121.3361         9     1.533     0.446 -43.49   0
       215    253.7841    707.0727 307.8137390  +6.3877093     679.8667     1098.213       939.08     78.31017     157.1215     314.3056      1.625     4.00     872.7922       55.418     109.7249         6     0.994     0.460 -50.28   0
       216    785.3254    703.7511 307.5930893  +6.4069255     19272.43     30564.44     31956.05     78.81056     157.3091     314.4306      1.688     4.31     865.7292       55.418     2952.018        47     1.678     0.993 -35.55   0
       217    915.2361    703.3770 307.5391446  +6.4114270     3493.907     5573.283     5674.371     78.43556     156.9964     314.1805      1.669     4.04     863.1705       55.418     491.6588        25     1.524     0.872 -28.11   0
       218    484.5837    703.8728 307.7179926  +6.3967903     1347.619     2168.955     2423.573     78.31017     157.1215     314.3056      1.658     5.35     868.8662       55.418     210.9166        15     1.693     0.616 -33.94   0
       219    513.0037    703.5023 307.7062016  +6.3978976     843.0362     1391.938     1267.716     78.56076     156.9338     314.0866      1.618     4.95     868.7791       55.418     155.4862        10     1.458     0.477 -37.23   0
       220    331.1493    702.8676 307.7817507  +6.3920486     585.7051     915.5164     926.0656     78.68576     157.1215     314.3369      1.760     4.64     871.5151       55.418     123.7028         7     1.186     0.578   7.32   0
       221    258.8149    697.2890 307.8119809  +6.3919179     5878.822     9372.917     9764.211     78.56076      157.059     314.2118      1.682     4.21     872.3773       55.418     903.8114        33     1.633     0.983 -32.09   0
       222    647.7518    697.8674 307.6504270  +6.4047451     829.4209     1306.356     1823.815     78.81055     157.1841     314.4306      2.156     5.84     866.6637       55.418     124.3448        13     1.437     0.669 -37.46   0
       223    665.8839    696.5046 307.6429420  +6.4059157     6762.306     10832.65     11954.41     78.68576     157.6211     314.4931      1.706     4.52     866.1885       55.418     926.0531        32     1.677     0.892 -30.52   0
       224    360.8423    696.2585 307.7696423  +6.3957757     682.3225     1168.823     1727.418     78.68576     157.2466     314.4619      1.861     5.29     870.6848       55.418     113.1969         8     1.305     0.607  -4.29   0
       225    925.6108    689.2143 307.5353118  +6.4176213     1154.174     1669.318     1699.572     78.56076     156.9964     314.3369      1.576     5.58     862.4307       55.418     174.4951        12     1.510     0.580 -40.82   0
       226    737.5043    684.9396 307.6135851  +6.4130906     3483.185     5907.368     6564.888     78.68576     157.2466     314.4931      1.868     4.38     865.4455       55.418     482.1971        31     1.628     1.043 -35.34   0
       227    692.7543    685.1628 307.6321641  +6.4114990     1014.546     1462.923     1925.974     78.56076     157.2466     314.3056      1.527     4.67      865.512       55.418     175.0774         9     1.294     0.563 -30.88   0
       228   1003.8943    681.5888 307.5030530  +6.4233862     8545.056     13733.16     14110.58     78.56076     156.9338     314.1805      1.705     4.18     860.7898       55.418     1156.047        33     1.627     0.939 -34.75   0
       229    942.2305    682.0066 307.5286513  +6.4211528     2280.541     3473.698     3315.468     78.18457     156.9964     314.1805      1.566     4.02     861.9017       55.418     363.6537        19     1.475     0.747 -34.04   0
       230     22.8432    681.3587 307.9105210  +6.3905429     1763.083     3189.875     3694.726     78.56076     157.2466     314.2743      1.984     4.71     873.3493       55.418     213.9341        23     1.473     1.053 -21.33   8
       231    556.6442    679.5927 307.6888837  +6.4092340     619.1638     1084.398     1006.163     78.31017      157.059     314.0866      1.592     3.79     867.8681       55.418     108.6776         5     1.371     0.301 -45.20   0
       232     81.2558    676.3092 307.8864335  +6.3945978     24571.82     39681.56     41985.02     78.68576     157.1215     314.5244      1.724     4.23     873.3741       55.418     3224.914        54     1.721     1.059 -34.09   0
       233    542.5156    677.4359 307.6948246  +6.4096503      2144.35      3113.89     3091.532     78.81056     157.2466     314.3681      1.533     3.88     867.8751       55.418     326.6362        18     1.339     0.839 -41.87   0
       234    932.0700    673.8339 307.5331463  +6.4241874     1017.495     1720.487     1630.244     78.68576     157.2466     314.4619      1.580     4.58     861.8437       55.418     162.5261        12     1.455     0.668 -34.24   0
       235    511.2772    674.7090 307.7078911  +6.4097274      1313.17     2047.672     2647.955     78.56076     157.4964     314.3994      1.614     4.99       867.89       55.418     197.1358        16     1.493     0.695 -26.51   0
       236    551.4695    671.2301 307.6913153  +6.4125129     950.3582      1569.03     1794.303     78.68576     157.2466     314.3369      1.810     5.17     867.7016       55.418     130.2344        10     1.304     0.579 -48.07   0
       237    727.3497    668.6960 307.6183502  +6.4194569     3259.017      5093.67     4787.338     78.68576     157.1841     314.5556      1.672     4.38     864.9794       55.418     507.6004        24     1.611     0.835 -33.08   0
       238    749.2134    666.8951 307.6093298  +6.4209329     3885.549     6215.347     6229.103     78.56076     156.9964      314.243      1.630     3.90     864.8749       55.418     662.8293        26     1.598     0.840 -39.35   0
       239    580.6886    664.8409 307.6793951  +6.4161313     3182.848     4797.203     4831.851     78.81055     157.1841     314.4306      1.550     4.39      867.361       55.418     431.9749        23     1.491     0.828 -34.52   0
       240    416.9485    665.3458 307.7473853  +6.4104245     1287.323     1994.972     2203.805     78.93516     157.1841     314.4306      1.637     5.76     869.4119       55.418     179.0246        15     1.376     0.756 -38.27   0
       241    324.8134    663.7659 307.7857051  +6.4079789     1408.586     2246.958     1827.242     78.31017     156.9964     314.3056      1.636     5.52     870.1185       55.418     192.0676        18     1.627     0.759 -34.17   0
       242    241.1723    664.4015 307.8204217  +6.4049019     1628.576     2427.621       2008.9     78.31017     156.9964     314.1805      1.534     5.21     871.2443       55.418     260.0588        15     1.570     0.709 -30.10   0
       243   1022.0044    663.0709 307.4961531  +6.4316368     4567.478     6923.715     6760.602     78.43556     146.4378     262.0984      1.586     4.12     859.6823       55.418     650.3893        25     1.432     0.931 -33.54  24
       244    987.5464    661.9410 307.5105037  +6.4309521     7852.479     12507.98     13126.17     78.93516     157.1841     314.3994      1.707     4.07     860.3707       55.418     1122.764        33     1.646     0.925 -31.91   0
       245    707.6096    660.5128 307.6268250  +6.4221741     1015.722     1733.659     1911.385     78.43557     156.9338      314.243      1.737     5.94     864.8392       55.418     171.3708        14     1.576     0.779 -35.63   0
       246     98.6255    658.7867 307.8798140  +6.4024176     831.2752     1150.988     1090.111     78.56076      157.059     314.3369      1.468     5.10      872.981       55.418     149.8401         8     1.097     0.670 -23.68   0
       247    433.0403    656.0496 307.7410161  +6.4148033      2704.69      4461.38      5315.73     78.93516     157.2466     314.3369      1.813     4.78     868.7844       55.418     372.6599        25     1.627     0.900 -40.45   0
       248    145.9811    655.2222 307.8602673  +6.4054854     22421.38     36483.69     38110.44     78.56076     157.1841     314.3369      1.717     4.20     872.1553       55.418     3216.474        58     1.715     1.103 -34.87   0
       249    814.1682    656.1303 307.5827133  +6.4275524     1265.729     1612.108     1603.001     78.68576     157.2466     314.3994      1.426     4.10      864.085       55.418      186.119        11     1.074     0.703 -19.00   0
       250    365.6797    649.9423 307.7691997  +6.4150605     807.1913     1433.804     1286.233     78.81055     157.2466     314.3681      1.741     5.43      868.994       55.418     124.3635        10     1.320     0.630 -31.82   0
       251    982.4728    644.9091 307.5131836  +6.4378146     6556.802     11508.12     12495.06     78.81055     157.4964     314.4306      1.915     4.04     859.7097       55.418     865.9094        47     1.663     1.311 -20.86   0
       252     27.3484    643.8611 307.9099225  +6.4061758     1079.111     1648.503       1440.6     78.81055     157.1841     314.3994      1.611     5.05     873.3363       55.418     152.0425        12     1.256     0.689 -39.58   0
       253    576.0063    640.1156 307.6821744  +6.4261825     45099.63     73310.82     77737.97     78.43556     156.9338      314.243      1.683     4.19      866.855       55.418     7215.094        73     1.763     1.101 -33.69   0
       254    219.0687    641.4615 307.8303788  +6.4136285     795.4266     992.8461     1186.404     78.81055     157.1841     314.4306      1.401     4.24     870.9897       55.418      135.576         6     1.043     0.637 -49.42   0
       255    941.5847    641.1249 307.5302944  +6.4380103     655.7119     925.2034     1129.532     78.31017     156.9964     314.2743      1.531     4.42     860.9039       55.418      137.053         6     0.936     0.594 -51.11   0
       256    535.0214    640.7794 307.6991750  +6.4245329     603.7346     1124.893     1441.424     78.56076     157.1841     314.3681      2.030     4.85     867.5927       55.418     131.2403         8     1.125     0.591 -33.55   0
       257    800.7808    639.5643 307.5888317  +6.4339439     442.8973     642.8212     365.3403     78.31017      157.059     314.1805      1.710     4.13     863.8086       55.418     82.86066         5     1.165     0.418 -14.20   0
       258    183.6218    636.8154 307.8452582  +6.4143528     2530.366     3987.727     4128.542     78.56076      157.059     314.3369      1.666     4.22     871.3696       55.418     325.6304        23     1.496     0.880 -36.78   0
       259    986.6909    636.4216 307.5117169  +6.4414598     755.1431     978.9222     1230.913     78.81056      157.059     314.2743      1.583     3.96     859.1016       55.418     117.6229         7     0.942     0.533 -60.04   0
       260     76.2679    631.0803 307.8900391  +6.4131023      1256.33      1953.35     1412.954     78.93516     157.4964     314.3994      1.557     4.77      872.607       55.418     201.0483        14     1.428     0.683 -32.95   0
       261    473.2677    623.9102 307.7253941  +6.4294239     59311.82     94338.37     99852.68     78.93516     157.4339     314.3681      1.702     4.03     867.5971       55.418     9180.524        75     1.768     1.090 -34.05   0
       262     16.7448    625.3210 307.9149555  +6.4134722     1670.299     2892.874     2773.219     78.93516     157.2466     314.4306      1.829     5.15     873.4127       55.418     205.7891        22     1.680     0.822 -37.92   0
       263    658.9921    621.0110 307.6483505  +6.4368536     906.1398     1671.818     1843.805     78.43556      157.059     314.3369      1.921     5.53     864.5564       55.418      164.619        12     1.293     0.818 -37.70   0
       264    147.9498    618.9080 307.8606806  +6.4205441     1421.881     2223.624     2033.121     78.68576     157.1215     314.5869      1.706     4.52      871.544       55.418     195.4359        17     1.350     0.850 -35.86   0
       265    942.3557    617.1295 307.5307812  +6.4479431     554.6591     850.4377     825.5131     78.68576     157.2466     314.3994      1.621     5.39     860.3406       55.418     86.35632         7     0.949     0.865 -76.23   0
       266    427.3064    616.1750 307.7447454  +6.4310733     856.3913     1214.581     1144.339     78.93516     156.9964      314.243      1.661     5.77     867.7818       55.418     156.0956        10     1.369     0.686 -40.49   0
       267    618.9893    615.7476 307.6651436  +6.4376852     933.5695     1393.556     1295.681     78.18457     157.1841     314.1492      1.495     5.04      864.991       55.418      142.816        10     1.242     0.579 -39.38   0
       268     19.9882    614.2357 307.9139847  +6.4181582     647.4312     917.6272     805.7204     78.31017      157.059     314.1492      1.362     5.58     873.3431       55.418     102.8945         8     1.471     0.596 -38.61   0
       269    328.4712    614.0053 307.7858696  +6.4286461     416.4343     790.9098     1212.381     78.43556     156.8711     314.2743      1.610     4.48     867.7531       55.418     91.79535         5     1.015     0.562  14.78   0
       270    318.8187    613.3072 307.7899023  +6.4286096     1970.221     3281.486     3742.409     78.68576     156.9964     314.2743      1.857     3.95     867.8005       55.418     313.7291        19     1.421     0.817 -39.01   0
       271    470.5968    612.1075 307.7269022  +6.4342071     780.2293     1283.084     1900.925     78.43556     156.9338     314.1805      1.719     5.15     867.4781       55.418     128.0919        10     1.616     0.464 -31.43   0
       272    745.3690    607.5558 307.6129262  +6.4453036      4994.47      7976.86     8202.424     78.43556     157.3091     314.2743      1.707     4.15     863.4881       55.418     721.0939        28     1.586     0.865 -38.62   0
       273    798.8624    602.7253 307.5908693  +6.4490895      13492.7     21250.14     22256.99     79.05956     157.2466     314.3994      1.651     4.36     862.8086       55.418     2130.869        41     1.636     0.968 -34.06   0
       274   1016.3206    603.2199 307.5005254  +6.4561580      1000.76     1512.151     1204.668     78.43556     156.9338     314.3994      1.595     5.72     856.1717       55.418     135.3271        12     1.632     0.564 -28.45  16
       275    541.1635    602.9175 307.6979023  +6.4403709     1050.555     1657.129     1865.765     78.81055     157.1841     314.3681      1.561     4.33     867.1288       55.418      180.639        12     1.431     0.552 -35.03   0
       276    622.6882    600.8237 307.6641107  +6.4439709     2729.478     4348.719      4216.49     78.81055      157.059     314.2743      1.656     4.09     864.5954       55.418     434.1528        21     1.503     0.805 -33.58   0
       277     43.7492    602.3368 307.9045200  +6.4238723     598.7927     898.0057      908.637     78.81056     157.1841     314.4306      1.330     2.56     872.8265       55.418      117.654         5     0.725     0.442 -16.90   0
       278    939.8394    597.3403 307.5324919  +6.4560295     996.0106     1622.134     2269.062     78.81055     157.3091     314.4931      1.658     4.79     859.6899       55.418     133.6901        12     1.297     0.656 -36.63   0
       279    197.7869    596.2318 307.8407500  +6.4315851     463.7814     765.0609     945.2658     78.31017     156.9964     314.3369      1.707     3.95      870.189       55.418     77.52057         5     0.931     0.480 -45.46   0
       280    381.4384    594.2813 307.7645371  +6.4385706     871.3426     1347.722     1164.505     78.81056     157.3091     314.3369      1.568     5.46     866.9649       55.418     129.0165        10     1.308     0.642 -36.59   0
       281    235.2502    594.3853 307.8252525  +6.4336091     1200.488     2045.533     2131.489     78.18457     157.2466     314.1179      1.745     4.65     869.2637       55.418     191.4671        11     1.320     0.550 -29.36   0
       282    874.9852    586.0270 307.5598118  +6.4585314     2606.993     4123.995     4021.748     78.43556      157.059     314.3056      1.576     4.14     861.1423       55.418     435.2711        21     1.544     0.827 -31.86   0
       283    170.1814    586.0541 307.8525606  +6.4348570     712.1232     1125.323     1112.996     78.31017     157.2466     314.1805      1.753     6.02     870.4719       55.418     114.8041        10     1.440     0.707 -29.26   0
       284    833.7438    583.4468 307.5770296  +6.4582167     2630.543     3805.465     3995.899     78.81056     157.2466     314.4931      1.596     4.01     861.9329       55.418     374.9972        19     1.401     0.769 -29.90   0
       285    804.6742    579.3935 307.5892411  +6.4589171     2403.043     3989.199     5206.794     78.43556     156.8085      314.243      1.800     4.38     862.4557       55.418      354.024        23     1.594     0.833 -35.49   3
       286    814.2543    574.6050 307.5854229  +6.4612148     150820.3     238784.1     251706.4     78.18457     156.9964     314.0866      1.671     4.27     862.2062       55.418     22965.81       122     1.780     1.170 -33.71   2
       287    746.7905    580.0525 307.6132625  +6.4567065     645.1038     944.0588     967.5148     78.18457     157.1215     314.1492      1.526     4.19     863.0468       55.418     141.1331         6     1.238     0.405 -33.40   0
       288    261.6985    578.3264 307.8148111  +6.4411295     7267.271     11700.25     11987.98     78.43556     157.3715     314.3681      1.715     4.16      868.095       55.418     1042.983        34     1.634     0.942 -35.44   0
       289    195.8595    572.7966 307.8423446  +6.4411955     54333.96     89851.68     96758.33     78.18457      157.059     314.1492      1.750     4.23     869.3762       55.418     7851.311        90     1.820     1.218 -35.89   0
       290    119.8829    569.0145 307.8740293  +6.4401968     5664.146      9282.05     9620.603     78.43556     156.9964     314.2118      1.698     4.43     870.8075       55.418     851.2958        31     1.681     0.922 -34.05   0
       291    985.0105    566.3644 307.5147701  +6.4703285     1339.464     1859.652     1802.385     78.31017      157.059     314.1805      1.541     4.03     856.8349       55.418     205.7858        14     1.257     0.728 -31.62   0
       292   1005.7222    565.5818 307.5061930  +6.4713438     757.3895      1142.87     1594.652     78.31017     156.9338     314.3681      1.662     4.13     856.1888       55.418     112.1574         7     1.054     0.463 -10.41   0
       293    234.2845    564.8286 307.8266547  +6.4457792     718.3339     1217.885     2029.615     78.81055     156.9338     314.2743      2.119     6.12     868.0959       55.418     108.9639        10     1.240     0.850 -17.41   0
       294    850.7664    561.9357 307.5706829  +6.4676677     4141.895     6671.595      6803.88     78.68576     157.2466     314.3681      1.655     4.20     861.0044       55.418     654.7339        27     1.601     0.860 -35.41   0
       295    458.9279    560.1934 307.7335034  +6.4552486     648.1505     1146.043     908.3638     78.43556     156.8085     314.3056      1.710     5.42     865.2994       55.418     108.4807        11     1.631     0.509 -28.69   0
       296    171.1664    558.8887 307.8530722  +6.4461056     1796.592     3034.031     3371.899     78.93516     157.1841     314.3994      1.876     5.31     869.6592       55.418     279.9133        21     1.758     0.820 -38.18   0
       297    108.5420    556.0999 307.8791776  +6.4451463      864.688     1142.408     1062.238     78.56076     157.2466     314.6181      1.441     5.50     870.7255       55.418     159.8544        12     1.524     0.658 -39.31   0
       298    804.7673    555.2863 307.5900143  +6.4688734     5551.693     8766.432     9081.063     78.81056      157.059     314.3994      1.669     4.15      862.175       55.418     912.3362        30     1.586     0.893 -32.86   0
       299    535.5765    554.9193 307.7018439  +6.4600001     6172.803     9665.519     9879.112     78.43556     156.9338     314.3681      1.662     4.13       864.87       55.418     857.4474        34     1.644     0.938 -36.93   0
       300    246.5125    556.6124 307.8218540  +6.4495830     713.1449     1215.564      1325.35     78.43557     156.9964     314.3056      1.826     4.41     867.6691       55.418     105.9826         7     1.338     0.413 -34.17   0
       301    393.8993    551.5059 307.7608079  +6.4566498     1355.074     2151.463     2372.796     78.81055     157.7458      314.243      1.691     4.39      865.498       55.418     184.6062        15     1.350     0.805 -31.66   0
       302    182.6717    548.0245 307.8486616  +6.4509785     6286.638     10693.65     11794.51     78.43556     157.1215     314.3369      1.804     4.33     868.9108       55.418     899.0122        38     1.698     1.044 -39.20   0
       303    277.8799    544.4763 307.8092362  +6.4556494      81270.7     132639.9     140810.8     79.05956     157.4964     314.5244      1.766     4.29     867.1896       55.418     10848.58        93     1.820     1.175 -33.93   0
       304    580.2671    548.0660 307.6835118  +6.4643296     2276.654     3808.832     3827.203     78.81055     157.2466     314.4306      1.824     5.29     864.2701       55.418     338.9901        27     1.802     0.881 -26.87   0
       305    369.2817    560.0045 307.7707458  +6.4523134     16001.67     26081.36     27600.09     78.31017     156.8085     314.1179      1.722     4.10     866.0513       55.418      2384.74        50     1.704     1.070 -33.45   0
       306    821.1439    547.6073 307.5834703  +6.4725921     1195.727     1875.465     1646.786     78.31017     157.1215     314.1492      1.657     4.19     861.5765       55.418     215.7963        14     1.397     0.735 -33.30   0
       307     54.2811    546.6391 307.9020356  +6.4472223      4534.52     7717.399     8129.938     78.81056     157.3091     314.3369      1.795     4.35     872.3147       55.418     584.0265        30     1.680     0.963 -33.85   0
       308    567.1805    541.8199 307.6891586  +6.4664692     784.2987      1300.44     1904.715     78.56076     157.1841     314.3369      1.950     5.13     864.1206       55.418     123.2751        10     1.311     0.599 -30.78   0
       309    261.8454    539.5199 307.8160642  +6.4571559     1408.033     2298.955     1231.454     78.81055     157.2466     314.3994      1.610     4.08     867.0259       55.418     212.4955        14     1.340     0.683 -31.67   0
       310    977.2545    538.3969 307.5189323  +6.4816164     1591.455     2359.219     2005.206     78.18457      157.059     314.0553      1.589     4.53     856.3051       55.418     215.2216        17     1.435     0.745 -27.42   0
       311    800.9773    537.0152 307.5922041  +6.4762901     15282.03     24035.52     25098.55     78.56076      157.059     314.3056      1.621     4.08     861.8505       55.418     2554.979        45     1.642     0.979 -31.54   0
       312    504.6685    535.3687 307.7153427  +6.4670341     37866.89     65719.34     71039.08     78.68576     157.2466     314.3681      1.881     4.34     863.9644       55.418     4926.927        76     1.887     1.237 -27.40   0
       313    963.8174    537.6190 307.5245403  +6.4814885      459.668      407.922     417.9416     78.56076     156.9964     314.3369      1.173     4.57     856.5753       55.418     86.50195         5     0.861     0.689 -45.11   0
       314    655.1426    533.8931 307.6528879  +6.4726927     907.8425     1347.523     1112.222     78.68576     157.2466     314.5244      1.573     4.69     863.0928       55.418     148.1964        11     1.241     0.677 -31.62   0
       315    264.3537    532.0747 307.8152744  +6.4603142     579.2248     984.4875     1481.059     78.68576     157.3091     314.3994      2.219     4.45     866.6595       55.418      122.939         5     1.197     0.471 -60.29   0
       316    217.1055    531.5117 307.8349187  +6.4589557     1703.325     2904.191     2857.902     78.81055     157.6835     314.4619      1.759     4.69     867.1042       55.418     238.3904        20     1.609     0.824 -37.68   0
       317     52.8910    531.9150 307.9031126  +6.4532542     1305.474     1956.049     1776.219     78.56076     157.6835     314.5244      1.656     5.60     871.9255       55.418     191.1446        16     1.385     0.844 -34.97   0
       318    102.8214    531.2958 307.8823949  +6.4551938     602.3892     820.5237      679.927     78.68576      157.059     314.2118      1.407     4.31     870.3083       55.418     92.00562         5     1.119     0.472 -57.81   0
       319    674.7889    530.3531 307.6448464  +6.4748130     1259.228     2061.523     2182.863     78.31017      157.059     314.0553      1.718     5.04     862.7104       55.418     198.5865        13     1.379     0.603 -34.61   0
       320    664.7090    530.2538 307.6490369  +6.4745160     2646.704     4241.654     4566.237     78.68576      157.059     314.5244      1.743     4.54     862.8148       55.418      378.204        22     1.623     0.773 -37.59   0
       321    727.0254    529.0309 307.6231924  +6.4771096     1122.836     1959.069     1865.767     78.31017      157.059      314.243      1.565     4.31     862.0814       55.418     184.0342        11     1.301     0.537 -23.79   0
       322     83.9197    527.5976 307.8903713  +6.4560832     663.8165     1336.142     1762.629     78.18457     156.7458     314.1492      1.767     3.74     870.7874       55.418     118.3297         6     1.182     0.339 -50.02   0
       323    333.7838    524.2799 307.7866992  +6.4658687     3632.399      5889.04     5839.305     78.43556     156.9964      314.243      1.692     4.17     865.3535       55.418     518.8659        26     1.600     0.877 -33.76   0
       324    402.4461    526.2258 307.7581128  +6.4673743      1635.33     2371.092     2367.212     78.43556     157.3091     314.2743      1.577     4.38     864.5441       55.418     233.5969        15     1.384     0.684 -32.80   0
       325    513.7951    523.8024 307.7119424  +6.4721159     1995.684     3406.008     3669.441     78.18457     156.8711     314.2118      1.744     4.70     863.4147       55.418     277.3629        22     1.517     0.994 -21.28   0
       326    148.9771    522.8197 307.8635112  +6.4602490     23909.14     39363.27     41663.67     78.56076     157.1215     314.3369      1.738     4.25     869.1213       55.418     3323.207        54     1.736     1.085 -34.34   0
       327    876.9938    522.9674 307.5611000  +6.4846342     1445.221     2335.467     2431.365     78.18457      157.059     314.2118      1.666     4.47     858.5861       55.418     267.3463        17     1.559     0.754 -32.27   0
       328    114.3559    521.1681 307.8779475  +6.4597639     2430.898     4143.924     4589.449     78.43556     157.3091     314.2743      1.780     4.18     869.8328       55.418     338.4417        27     1.608     0.994 -35.91   0
       329    974.4967    517.6105 307.5207769  +6.4901064      4981.36     7790.427     8033.727     78.56076     156.8711     314.2118      1.690     4.38     855.8484       55.418     675.7596        30     1.706     0.881 -35.09   0
       330    351.1800    519.3599 307.7796397  +6.4684851     946.3785     1549.096     1633.916     78.43556      157.059     314.1492      1.767     3.37     864.8384       55.418      146.796         8     0.904     0.601 -11.34   0
       331    547.9034    509.8586 307.6982452  +6.4790179     1406.532     2139.625     2199.372     78.68576     157.2466     314.5556      1.628     4.17     862.6995       55.418     239.3359        15     1.361     0.739 -34.42   0
       332     13.2633    507.1747 307.9204118  +6.4621311     23262.49     38286.88     40428.71     78.43556     157.2466     314.3056      1.741     4.16     872.2423       55.418     3206.886        54     1.745     1.079 -32.68   0
       333    445.9922    503.9970 307.7407761  +6.4780153     39606.06     64516.77     68110.45     78.18457     156.9338      314.243      1.696     4.19     863.1818       55.418     6004.784        65     1.762     1.082 -33.15   0
       334    654.0359    503.7025 307.6543661  +6.4851203     11470.32      18123.5     18955.81     78.81055     157.1215     314.5556      1.660     4.17     861.7856       55.418     1849.103        40     1.657     0.957 -32.40   0
       335    211.1593    501.5518 307.8384036  +6.4711245     17459.49     30162.35     32201.76     78.68576     157.1841     314.2743      1.861     4.31     866.2552       55.418     2217.698        55     1.741     1.207 -31.69   0
       336    294.0576    503.9064 307.8038900  +6.4729434     971.4883     1564.694     1207.653     78.68576     157.2466     314.5556      1.545     4.16     865.0534       55.418     169.1819        12     1.283     0.609 -17.87   0
       337      1.3415    500.5797 307.9255875  +6.4644515     1192.889     2338.869     2973.453      68.1078     124.8468     236.6394      2.385     6.38      872.315       55.418      222.368        19     2.416     0.474  89.51  24
       338    176.9922    502.4212 307.8525662  +6.4696146     1439.672     2532.045     2624.174     78.31017      157.059     314.1805      1.787     4.23     867.5363       55.418     236.8724        17     1.400     0.777 -33.35   0
       339    987.8997    502.0989 307.5157307  +6.4969587     1083.537     1537.381     1192.979     78.81055     157.6211      314.243      1.415     4.49     855.0737       55.418     195.4852         9     1.244     0.460 -33.93   0
       340    827.6322    502.0131 307.5823105  +6.4916338     849.6302     1214.677     1038.098     78.31017     156.9964     314.3369      1.509     4.57     859.3197       55.418     132.7496         8     1.322     0.449 -27.18   0
       341    575.6088    500.5599 307.6870506  +6.4837869     2617.619     3940.699     4012.232     78.18457      157.059     314.1492      1.620     4.21     862.2213       55.418     367.8802        22     1.454     0.881 -32.61   0
       342    917.1400    501.2932 307.5451523  +6.4949258     733.6868     1115.713     1289.349     78.68576     157.1841     314.4931      1.444     4.42     856.8083       55.418     118.0528         7     1.232     0.452 -27.27   0
       343    949.7396    497.7271 307.5317300  +6.4974882     4417.788     6913.443     7119.762     78.93516     157.2466     314.4306      1.657     4.24     855.9587       55.418      648.358        27     1.601     0.870 -35.81   0
       344    622.8729    496.0300 307.6675701  +6.4872429     5960.563     9468.794     9344.999     78.68576     157.2466     314.3681      1.657     4.34     861.7908       55.418     904.9497        32     1.643     0.892 -35.22   0
       345    110.3726    496.3675 307.8804431  +6.4698685     1074.073     1614.632     1575.547     78.31017     156.9964     314.2118      1.573     4.41     869.3085       55.418     186.3406        13     1.414     0.757 -38.96   0
       346    521.7729    495.1963 307.7095948  +6.4841942     489.5332      998.934     1142.462     78.31017     156.9964      314.243      2.417     3.86     861.9979       55.418     65.36432         5     0.965     0.443 -44.31   0
       347    972.2043    490.0349 307.5226565  +6.5014151     3191.265      4944.22     5351.633     78.05877     157.1215     314.1805      1.603     3.85     855.1764       55.418     523.3253        21     1.456     0.809 -37.55   0
       348    534.9561    487.3054 307.7043851  +6.4878947     7002.068     11395.27     12258.86     78.81055     157.2466     314.5244      1.734     4.07     861.6075       55.418     1074.867        35     1.589     0.996 -38.23   0
       349    380.9521    487.4282 307.7683532  +6.4826696      2482.07     4262.641       4409.2     78.43556     157.2466     314.3369      1.768     4.38     863.3932       55.418      353.347        23     1.571     0.871 -32.82   0
       350   1001.8433    485.8504 307.5104846  +6.5041332      474.455     866.8614     941.2075     78.93516     157.2466     314.4306      1.626     5.05      854.238       55.418     68.41846         6     1.060     0.681  10.61   0
       351    103.9627    485.9729 307.8834581  +6.4739438     513.3779     593.4207      556.136     78.43556      157.059     314.2118      1.498     5.24     869.2367       55.418     80.99841         5     0.907     0.855 -45.21   0
       352    891.5173    483.2300 307.5564043  +6.5015266     3081.444     4642.104     5154.755     78.68576      157.059     314.3369      1.638     4.09     856.6337       55.418     434.4083        22     1.526     0.771 -34.89   0
       353    410.8911    488.8275 307.7558695  +6.4830985     720.4819     1108.333     1434.916     78.93516     156.9964     314.2743      1.784     4.98     863.3888       55.418     115.2106         9     1.127     0.629 -40.26   0
       354    238.5166    483.1477 307.8276636  +6.4796440     480.8346     683.8607     975.5529     78.81055     157.2466     314.4931      2.053     3.99      864.826       55.418     77.22522         6     1.400     0.325 -48.21   0
       355    886.8971    480.5366 307.5584142  +6.5024840     535.6234     772.1005     1531.766     78.68576     157.3715     314.4306      1.798     4.96     856.6112       55.418     109.5327         8     1.349     0.515 -33.51   0
       356    938.2488    476.9725 307.5372016  +6.5056730      1260.66     2086.269     2210.793     78.43556     157.2466     314.3369      1.768     4.60     855.7707       55.418     189.8211        16     1.410     0.860 -43.30   0
       357    899.1677    477.5253 307.5534182  +6.5041378     2016.181      3175.26      3361.16     78.68576     157.3091     314.3681      1.721     4.53     856.4048       55.418     286.5911        18     1.501     0.720 -27.36   0
       358    117.7768    476.9852 307.8780250  +6.4781201     790.6307     1180.908     1559.941     78.56076      157.059     314.3056      2.028     4.59     868.5962       55.418     149.9756         9     1.141     0.863 -27.18   0
       359    722.7788    473.5421 307.6268270  +6.4998769     2756.145     4405.051     4946.088     78.43556     157.1215     314.2118      1.653     4.00     859.8982       55.418     385.5609        22     1.525     0.810 -39.13   0
       360    393.8088    471.5947 307.7635482  +6.4896389     3477.641     5643.934      5932.79     78.18457     156.9964      314.243      1.701     4.07     862.6591       55.418      472.601        28     1.603     0.919 -34.22   0
       361     84.6495    472.3661 307.8919418  +6.4789101     1866.389     3121.382     3472.895     78.68576     157.2466     314.3369      1.824     4.56     869.3793       55.418     284.5333        20     1.437     0.923 -23.21   0
       362    434.2660    471.8328 307.7467344  +6.4909005     1002.175     1681.462     1777.341     78.68576     157.3091     314.3681      1.594     3.69     862.1868       55.418     210.1163         9     1.193     0.490 -40.11   0
       363    621.4814    468.3210 307.6690832  +6.4986363     9565.727     15110.24     16571.14     78.93516     157.4964     314.5869      1.719     4.26     860.4846       55.418     1353.703        40     1.703     0.962 -30.68   0
       364    784.4774    464.5727 307.6014988  +6.5056469     15249.16      24612.3     27160.34     78.68576     157.1841     314.3681      1.818     4.84     858.7686       55.418     2439.476        57     2.281     0.987 -42.41   0
       365    303.8976    465.1482 307.8011148  +6.4892761     2475.609     4078.098     3769.841     78.68576     157.2466     314.6181      1.718     4.40     862.9672       55.418     354.9496        24     1.583     0.845 -32.42   0
       366    813.0504    462.0130 307.5897153  +6.5076605     1211.273     2025.219     2032.588     78.18457     157.1841     314.1179      1.704     5.15     858.0222       55.418     192.5887        16     1.481     0.732 -36.03   0
       367    386.8639    461.6717 307.7667687  +6.4935022     1462.623     2490.883     3266.881     78.81055     157.2466     314.4306      1.956     4.36      862.124       55.418     186.7327        16     1.248     0.838 -24.02   0
       368    969.3825    459.8696 307.5248432  +6.5137752     1915.121     3000.303     2845.885     78.31017     157.1215     314.3056      1.511     3.98     854.2469       55.418     302.9111        17     1.430     0.700 -33.47   0
       369    375.7324    457.7288 307.7715261  +6.4947558     703.3891     1074.131     1202.238     78.81056     157.3715     314.3681      1.730     4.90      861.966       55.418     128.6655         9     1.246     0.546 -18.67   0
       370    121.6485    456.5793 307.8771088  +6.4866752     4013.885      6753.11      7380.25     78.31017     157.3091     314.2118      1.795     4.41     867.9216       55.418     577.9798        30     1.625     0.940 -33.65   0
       371    759.8552    455.6866 307.6120268  +6.5084911      2027.39     3115.004     3119.583     78.81055     157.1841     314.5556      1.611     4.55     858.6418       55.418     282.4133        20     1.589     0.763 -35.54   0
       372   1022.6282    454.6452 307.5028991  +6.5177115      3612.62     5161.325      4917.95     77.93277     139.4949     252.9393      1.597     4.36     852.4682       55.418      430.924        23     1.255     1.125 -26.08  24
       373    279.6059    453.8738 307.8115871  +6.4931132     1434.722     2358.955     2589.184     78.43556     156.8085     314.3056      1.821     3.96     862.8452       55.418     228.8385        17     1.297     0.884 -29.27   0
       374    357.4637    451.4539 307.7793272  +6.4967320     3079.569     4833.329     5218.342     78.81056     157.1841     314.3681      1.704     4.17     861.7353       55.418     429.4091        24     1.514     0.870 -36.95   0
       375    713.3673    449.3986 307.6315508  +6.5095296     1590.445     2323.383     2503.554     78.05877      157.059     314.1492      1.663     3.75     858.8524       55.418     251.3488        13     1.341     0.604 -26.81   0
       376    245.3383    447.5590 307.8260355  +6.4945667     728.1879     1227.632     1046.479     78.81056     157.2466     314.4306      1.573     3.48     863.7618       55.418     161.8672         7     1.117     0.607 -77.25   0
       377    986.9833    448.0324 307.5179294  +6.5192507     654.3677     1009.951     1251.517     78.43556     156.9964     314.2743      1.933     5.26     853.2636       55.418     80.57178         8     1.206     0.648 -14.15   0
       378    555.0391    441.9799 307.6975734  +6.5072821     877.4666     1493.578     1938.071     78.43556      157.059     314.1492      1.764     6.20     859.2426       55.418      158.178        13     1.776     0.608 -50.64   0
       379    702.4963    442.9176 307.6362854  +6.5118410     539.4174     913.2516     1313.413     78.68576     157.6211     314.4931      1.776     4.29      858.669       55.418     93.23743         5     1.184     0.444 -25.39   0
       380    456.5175    443.1499 307.7384608  +6.5034903     518.2893     710.6584    -70.34165     78.81055     157.2466     314.4306      1.246     3.35     860.4102       55.418     111.4088         5     1.186     0.274 -35.58   0
       381    477.2513    440.2408 307.7299461  +6.5053880       1199.6     1913.146     2006.256     78.81056     157.2466     314.3681      1.650     5.11     860.1203       55.418     168.7255        14     1.392     0.688 -41.52   0
       382    839.7211    439.2923 307.5794008  +6.5179340     1353.703     1999.277     2478.494     78.56076     157.4964     314.4619      1.519     4.36     856.4868       55.418       208.55        13     1.319     0.671 -32.53   0
       383    825.3574    438.5876 307.5853917  +6.5177441     1879.693     2968.545     3070.614     78.18457      157.059     314.1492      1.699     4.29     856.7012       55.418     288.5138        16     1.378     0.705 -29.01   0
       384    722.6793    436.6069 307.6281137  +6.5151229     14122.38     22061.64     23130.37     78.43556     156.7458     314.1805      1.674     4.20     858.2394       55.418     1955.953        41     1.675     0.938 -34.25   0
       385    625.2395    438.0533 307.6685435  +6.5112589     669.2236      864.334     683.9203     78.68576     157.2466     314.3994      1.332     4.25     858.8771       55.418      113.996         7     1.201     0.537 -26.86   0
       386    643.7697    432.6717 307.6610273  +6.5141023     2383.648     3748.466     4396.377     78.68576     157.2466     314.3681      1.659     4.46     858.5521       55.418     329.5239        20     1.516     0.767 -29.47   0
       387    716.3839    431.5251 307.6309003  +6.5170101      626.048     842.4255     1247.938     78.31017     156.9964     314.2743      1.589     4.44     858.0707       55.418     117.9752         7     1.107     0.506 -44.35   0
       388    618.7088    429.6919 307.6715387  +6.5144920     5053.944     8320.216     9367.896     78.81056     157.7458     314.4619      1.775     4.19     858.4756       55.418     692.2684        27     1.621     0.864 -30.57   3
       389    615.1349    427.0560 307.6731123  +6.5154603     13636.64     21839.89     23787.16     78.93516     157.1841     314.3994      1.687     4.05     858.3245       55.418     2156.703        44     1.709     0.985 -32.27   3
       390    947.9783    426.5222 307.5348570  +6.5268279     3655.358      5803.27     6038.553     78.43556     156.9964     314.3994      1.680     4.33     853.6555       55.418     573.4135        26     1.588     0.831 -34.34   0
       391    387.0935    422.3515 307.7680034  +6.5097436     26746.38     43398.76     45848.76     78.68576     157.1215     314.5244      1.712     4.11     859.9095       55.418     3661.198        57     1.740     1.078 -35.28   0
       392    424.4574    423.9149 307.7524292  +6.5103543     531.8297     823.5833     83.83648     78.81055     157.2466     314.5556      1.644     3.45      859.617       55.418     106.1445         5     1.256     0.273 -35.35   0
       393    903.5475    422.3093 307.5534569  +6.5270814     1428.968      2219.64     2646.167     78.68576      157.059     314.5244      1.644     4.17     854.7533       55.418      240.691        15     1.352     0.709 -32.39   0
       394    133.1745    421.7413 307.8735025  +6.5014466     2199.755     3495.638     3772.811     78.43556     157.2466      314.243      1.690     4.19     866.4512       55.418     297.3463        23     1.551     0.879 -38.50   0
       395    916.7104    416.9217 307.5481699  +6.5297461     4646.554      7270.36     7474.048     78.56076     157.4964     314.4931      1.648     4.27     854.2289       55.418      742.998        24     1.507     0.853 -32.33   0
       396    598.9315    417.7828 307.6801566  +6.5187453     679.3893       1056.4     1361.726     78.31017     157.1215     314.3056      1.652     4.93     857.8641       55.418      111.858         9     1.252     0.550 -45.32   0
       397     66.3172    417.3947 307.9014219  +6.5009866     1233.987     2228.536     2590.559     78.31017     156.8711     314.1492      1.955     4.82     868.1808       55.418      177.354        14     1.401     0.666 -40.49   0
       398    972.5467    414.8962 307.5250413  +6.5324493     726.4454     1079.643     428.9782     78.68576     157.2466     314.6493      1.485     5.37     852.4238       55.418     111.4949         7     1.374     0.592 -39.15   0
       399    244.5912    412.9051 307.8275197  +6.5088485     12708.34     20854.43     21774.75     78.43556     156.8711     314.1805      1.741     4.21     862.8118       55.418     1731.182        42     1.688     1.017 -34.74   0
       400    739.7121    406.7982 307.6220427  +6.5280007     712.1879     1092.188     1835.305     78.05877     156.8711     314.1179      2.066     5.48     856.6698       55.418     115.7713         8     1.226     0.691 -17.73   0
       401     79.8896    407.0198 307.8961361  +6.5057277     803.9448     1282.684      1128.69     78.68576     156.9964      314.243      1.593     4.41      867.785       55.418     161.6023         8     1.349     0.410 -32.44   0
       402    708.1853    405.8407 307.6351723  +6.5273396     686.8969     1028.156     663.4919     78.43556      157.059     314.1805      1.594     3.49     856.8331       55.418     117.0557         6     0.769     0.550 -41.40   0
       403    968.2877    404.9398 307.5271456  +6.5364176     903.5034     1538.826     1585.906     78.81055     157.4339     314.4931      1.840     3.49     852.1118       55.418     189.7561         9     1.059     0.590 -44.63   0
       404    190.6640    403.2036 307.8502500  +6.5110374     584.9496     910.0908     1141.432     78.18457      157.059     314.1805      1.847     4.67     864.1837       55.418     85.80957         5     1.405     0.441 -58.01   0
       405    144.8270    401.5356 307.8693473  +6.5101814     4732.845     7889.467     8404.037     78.43556     157.1841     314.3056      1.790     4.14     865.4423       55.418     609.8101        35     1.671     1.009 -31.20   0
       406    357.6472    402.4711 307.7809084  +6.5169611     1234.116     1868.683      1846.98     78.81056     157.2466     314.3994      1.716     4.37     859.3173       55.418     176.3137        14     1.290     0.736 -35.18   0
       407    249.4855    400.5518 307.8259051  +6.5141134     1185.518     1987.458     1779.334     78.81056     157.1841     314.3994      1.819     5.21      862.272       55.418     178.0206        17     1.525     0.878 -42.78   0
       408    442.9883    400.1440 307.7455349  +6.5207911     580.2584     1011.646       1208.3     78.18457     157.1841     314.0866      1.716     3.88     858.3399       55.418     137.1177         6     1.118     0.539 -19.34   0
       409    831.0388    398.0960 307.5843952  +6.5346521      793.955     1511.749     1491.669     78.81055     157.1215     314.5244      2.028     6.64     854.9444       55.418     103.4692        11     1.245     0.994 -58.15   0
       410    167.1349    397.1400 307.8602296  +6.5127479     2192.872     4183.656     4275.723     78.93516     157.1841     314.4306      1.961     5.19     864.5607       55.418      275.667        28     1.705     1.032 -53.13   0
       411    562.2816    396.5401 307.6960992  +6.5262857     969.7388     1448.014     1534.663     78.93516     157.2466     314.3994      1.582     5.19     856.9659       55.418      164.077        14     1.487     0.821 -34.36   0
       412    390.2372    392.3202 307.7677134  +6.5222480     1787.901     3197.745     3315.231     78.68576     157.3091     314.3994      1.757     5.02     858.3157       55.418     263.5233        20     1.638     0.797 -40.89   0
       413    278.3849    392.8357 307.8141613  +6.5182720     767.6447       1191.7     1106.145     78.43556      157.059     314.2118      1.595     2.54     860.6468       55.418     177.8455         8     0.870     0.616 -29.79   0
       414      8.9717    392.7264 307.9260801  +6.5092357     694.7591     1039.739     989.6795     78.68576     157.2466     314.3369      1.518     5.50     867.9949       55.418     104.8812        11     1.305     0.653 -39.13   0
       415    978.8991    391.5766 307.5231866  +6.5422896     856.9738       1340.3     1095.997     78.93516     156.9964     314.2118      1.889     4.78     851.1395       55.418     126.2949         9     1.005     0.656 -51.61   0
       416    444.2720    385.7557 307.7454881  +6.5267746     6762.125     10815.56     11553.33     78.68576     157.2466     314.4306      1.726     3.93     857.5734       55.418     959.3719        34     1.663     0.971 -33.45   0
       417     40.5312    386.4856 307.9131823  +6.5128773     3018.675     5248.452     5790.942     78.93516     157.4964     314.4306      1.953     4.46     867.5192       55.418      406.203        34     2.007     0.983 -39.43   0
       418    776.8041    384.7909 307.6073750  +6.5383294     1981.668     3363.827     4235.588     78.18457     156.9338      314.243      1.790     4.48     854.9951       55.418     291.1644        19     1.585     0.724 -36.89   3
       419    784.8105    383.1332 307.6041046  +6.5392819     12042.67     19212.27     20337.45     78.31017     157.1215      314.243      1.664     4.16     854.7859       55.418     1924.986        40     1.691     0.968 -31.36   2
       420    348.3526    381.3787 307.7854834  +6.5253566     1069.275      1572.01      1699.02     78.43556     157.2466      314.243      1.747     4.65     858.4641       55.418     183.8403        12     1.439     0.581 -32.98   0
       421    298.8217    381.9931 307.8060387  +6.5234363     488.3151     542.3395     181.1219     78.31017      157.059     314.2118      1.539     4.62     859.6309       55.418      69.7511         5     1.213     0.500 -21.00   0
       422    193.3754    374.1172 307.8501095  +6.5231371     605.4005     1018.216     727.2375     78.68576     156.9964     314.3369      1.796     4.48     863.4907       55.418       91.453         7     1.271     0.450 -24.10   0
       423    492.4434    369.4314 307.7260281  +6.5351328     2942.094     4610.875     4610.187     78.43557     157.2466     314.2743      1.652     4.36     856.4263       55.418     408.4837        21     1.513     0.792 -37.04   0
       424    464.6444    369.9481 307.7375593  +6.5339855     2242.525     3481.253     3496.584     78.81055     157.1841     314.3994      1.637     3.70     856.6492       55.418     381.5115        21     1.453     0.814 -28.74   0
       425      2.0862    370.3569 307.9296999  +6.5182384     583.5914     991.4847     1704.854     76.53304     135.7096     248.7077      3.070     4.73     867.5956       55.418     104.1191         6     0.939     0.676 -18.72  24
       426    921.1835    369.1366 307.5479197  +6.5496248     735.4088     1176.176     1439.187     78.31017     157.1841      314.243      1.686     4.65     851.9935       55.418     115.1138         9     1.360     0.450 -25.54   0
       427    850.1945    366.0795 307.5775154  +6.5485119     31092.32     51653.62     54597.83     78.43556     156.7458     314.1805      1.744     4.20     853.3348       55.418     4359.657        63     1.760     1.114 -39.49   0
       428    342.8971    361.7148 307.7884152  +6.5332914     785.0287     1201.166     1225.767     78.81055     157.6211     314.4619      1.869     4.68     857.7123       55.418     123.0711         8     1.067     0.582 -28.10   0
       429     68.3730    361.8078 307.9024543  +6.5240048     609.8904     1100.645     1322.469     78.43556      157.059     314.2118      1.603     2.70     866.5258       55.418     102.9642         5     0.731     0.441 -70.06   0
       430    962.0984    359.8576 307.5312334  +6.5548239     516.3608     808.9382     705.7491     78.56076     157.2466     314.5869      1.572     4.31     850.2256       55.418      85.2511         5     1.056     0.501  35.80   0
       431    622.0069    358.4328 307.6725737  +6.5440229     2609.326     4135.899     4461.908     78.18457     157.1215     314.2118      1.603     4.16     854.5002       55.418     354.7042        20     1.453     0.797 -33.91   0
       432     30.0366    358.8104 307.9184813  +6.5239487     857.8313     1616.771     1519.567     78.31017      157.059     314.1492      1.674     4.66      866.976       55.418     155.0295         8     1.331     0.464 -33.81   0
       433    706.6597    352.0177 307.6376212  +6.5495101     75159.76     118715.4     125524.2     78.43556     157.1841     314.1492      1.672     3.99     853.7475       55.418     11677.41        90     1.749     1.141 -33.11   0
       434    153.5760    356.4839 307.8672406  +6.5290758     566.1194     978.9513     1489.622     78.68576     156.9964     314.3369      2.255     4.19     864.3068       55.418       93.578         6     1.299     0.385 -45.10   0
       435    864.9634    353.6944 307.5717965  +6.5541196     1068.814     1627.625       1374.8     78.93516     157.1215     314.4931      1.553     5.45     852.5469       55.418     159.5889        13     1.347     0.691 -28.12   0
       436     85.7928    351.6078 307.8955641  +6.5288034     1240.228     2265.097     2416.199     78.18457      157.059     314.2743      1.982     6.94     865.9736       55.418     150.3154        18     1.636     0.826 -33.40   0
       437    948.5341    349.1245 307.5372300  +6.5588018     893.5968     1211.557      1163.13     78.93516     157.2466     314.3369      1.555     5.37     850.2125       55.418     130.3045        12     1.317     0.751 -21.14   0
       438    569.2292    348.6140 307.6948315  +6.5463057     2587.681     4284.464     4386.785     78.43556      157.059     314.3056      1.713     4.50     854.5718       55.418     390.2617        22     1.529     0.869 -27.65   0
       439    106.4351    347.4723 307.8871293  +6.5312070     5818.947     9490.428     10241.94     78.68576     157.2466     314.3994      1.788     4.17     865.4992       55.418     750.1255        32     1.650     0.963 -37.42   0
       440    552.4654    344.8734 307.7019222  +6.5472874     6813.622     10903.42     11289.33     78.93516     157.2466     314.3994      1.709     4.08     854.4545       55.418      978.571        35     1.629     0.974 -33.42   0
       441    281.5917    342.4798 307.8145345  +6.5391696     2445.161     3795.312     3842.683     78.43557     156.8711      314.243      1.666     4.14     859.1224       55.418     329.2834        22     1.504     0.865 -36.36   0
       442    415.3482    340.0774 307.7590487  +6.5446611     24139.81     39296.88     41221.62     78.81055     157.3091     314.3994      1.727     4.10     855.4804       55.418     3344.191        55     1.743     1.081 -33.00   0
       443    594.0231    339.3654 307.6848432  +6.5509562     654.1301     776.1988     467.1194     78.31017     156.9964     314.1805      1.428     4.50     853.6776       55.418      100.498         7     1.000     0.576 -55.17   0
       444    522.9079    338.6513 307.7144120  +6.5488638      1266.74     1974.097     1874.713     78.68576     157.1215     314.5869      1.619     3.84     854.3561       55.418     205.0722        14     1.322     0.696 -29.20   0
       445    395.4564    338.1233 307.7673786  +6.5447991     1089.262      1712.41     2717.498     78.81055     157.1841     314.3681      1.702     4.90     855.8182       55.418     159.8152        10     1.086     0.626 -27.29   0
       446    494.3906    335.5738 307.7263634  +6.5491766     1210.248     2167.631     2200.125     78.43557      157.059     314.2743      1.887     4.78     854.5469       55.418     187.3534        17     1.364     0.952 -36.98   0
       447    809.8845    333.0507 307.5953750  +6.5607991     817.4965     1386.652     1001.837     78.81055     157.1841     314.4931      1.583     5.73     852.3059       55.418     124.2429         9     1.388     0.666 -43.97   0
       448    504.3882    330.5373 307.7223801  +6.5515918     8028.366     13058.89      13446.4     78.31017      157.059     314.1492      1.763     4.05     854.1156       55.418     1073.699        40     1.730     0.996 -36.29   0
       449    392.6080    332.4150 307.7687551  +6.5470600     615.8264     993.9316      1806.68     78.43557     156.9964      314.243      1.988     4.93     855.6898       55.418     80.32074         8     1.378     0.500 -41.21   0
       450    646.6502    332.3427 307.6632162  +6.5556212     500.2829       817.96     759.6608     78.81056     157.2466     314.3994      1.726     3.79     853.1216       55.418     86.99005         5     1.002     0.411 -15.03   0
       451    773.5386    329.2159 307.6106047  +6.5611652     2942.759     4608.734     4907.551     78.31017     157.1841     314.2118      1.625     4.36     852.7372       55.418     396.0405        22     1.528     0.777 -35.43   0
       452    721.0770    329.0659 307.6324055  +6.5594694     769.4673     943.0288     704.8127     78.93516     157.2466     314.3681      1.469     4.77     853.3719       55.418     126.3613         9     1.211     0.534 -44.08   0
       453    929.0671    328.7734 307.5460026  +6.5665532     788.0115     1391.436      1358.87     78.43556     157.1215     314.3056      1.817     5.33     850.2331       55.418     149.1031        11     1.386     0.580 -33.63   0
       454    331.1357    327.0895 307.7944734  +6.5471910     933.8569     1420.417     1358.569     78.68576     157.4339     314.4306      1.590     4.20     857.0829       55.418      125.201        10     1.118     0.620 -32.72   0
       455    266.1848    321.2022 307.8216557  +6.5474354      680.889     1197.329     1001.259     78.43556     156.8711      314.243      1.841     4.18     859.2373       55.418     112.8507         7     1.206     0.733 -20.73   0
       456    166.7712    320.8857 307.8629661  +6.5442172     1027.318     1605.606     1781.972     78.93516     156.9338      314.243      1.672     5.57     863.7399       55.418     143.9802        11     1.320     0.663 -30.18   0
       457    394.3090    314.6430 307.7686497  +6.5544545     7186.832     11864.62     12355.45     78.81056     157.2466     314.4931      1.773     4.11     855.1859       55.418     993.4523        35     1.643     1.017 -30.57   0
       458    250.1844    315.0733 307.8285105  +6.5494270     1835.485     3029.077     3036.031     78.31017     156.9964     314.3056      1.722     4.62     859.8951       55.418     255.9789        21     1.518     0.861 -36.15   0
       459    747.8782    314.4734 307.6217626  +6.5663922     995.4164     1407.403     1772.963     79.05956     157.4964     314.4306      1.785     5.04     852.8136       55.418     168.7958        11     1.400     0.633 -34.33   0
       460    682.8601    315.4579 307.6487421  +6.5638066     505.2982     655.3954     297.8614     78.93516     157.1841     314.4306      1.368     3.21     852.9107       55.418     107.5461         5     0.744     0.451 -20.91   0
       461    762.1747    310.5828 307.6159540  +6.5684775     51072.74     80447.53     84742.39     78.56076      157.059     314.3369      1.681     4.18     852.3435       55.418     7322.004        67     1.703     1.068 -30.18   0
       462    433.7251    309.9805 307.7524321  +6.5577046     2068.904      3409.33     2964.794     78.43556     157.1215     314.3369      1.609     4.12     854.1492       55.418     310.9748        20     1.508     0.803 -35.61   0
       463    937.7694    306.8604 307.5431245  +6.5758915     2175.553     3267.324     2809.246     78.56076     157.2466     314.3681      1.554     4.25     848.9877       55.418     346.4008        18     1.494     0.744 -36.38   0
       464    996.9127    307.6943 307.5185237  +6.5775243      1575.44     2553.755     2423.552     78.81055     157.6835     314.4619      1.733     4.50     846.1761       55.418     228.8297        16     1.362     0.772 -22.51   0
       465    579.9995    307.4770 307.6917461  +6.5636512     1245.691     1808.474     1926.443     78.05877     156.6203     314.1492      1.515     4.94     851.6528       55.418     163.2637        15     1.383     0.721 -31.58   0
       466    471.0528    306.2380 307.7370507  +6.5605041     1080.431     1617.186     2179.975     78.68576     157.3091     314.3994      1.563     5.01     853.3351       55.418     151.2371        12     1.286     0.637 -29.47   0
       467    420.2738    305.7475 307.7581635  +6.5590000     1734.197     2849.722     3217.146     78.81056     157.3091     314.4306      1.794     5.12     854.2448       55.418     234.4878        20     1.742     0.745 -31.47   0
       468    299.4767    305.1161 307.8083698  +6.5551973     600.0825     911.0782     450.0779     78.93516     157.5587     314.4931      1.553     4.23     857.2803       55.418     89.43304         5     0.925     0.552 -44.39   0
       469    841.5627    300.0847 307.5833243  +6.5754702     1131.314     1984.252     2059.267     78.81055     157.2466     314.3681      1.838     5.40     850.4701       55.418      174.312        14     1.255     0.871 -25.04   0
       470    470.7872    300.4373 307.7373572  +6.5628901     736.1949     1063.614     1253.456     78.31017      157.059     314.1179      1.428     4.70     853.0396       55.418     104.0711         8     1.115     0.561 -22.44   0
       471    450.7896    297.0989 307.7457781  +6.5635964     1013.585     1916.397     2134.649     78.56076     156.8711     314.2118      2.023     4.74     853.3008       55.418      208.532        13     1.634     0.751 -33.92   0
       472    196.8075    296.8102 307.8513042  +6.5551690     2223.845     3446.628     3729.514     78.31017      157.059     314.3056      1.653     4.81     862.1912       55.418     305.9531        23     1.660     0.859 -30.67   0
       473    760.6622    295.1292 307.6171034  +6.5748070      5870.23     9076.787     9257.133     78.93516     157.2466     314.4306      1.635     4.02     851.8164       55.418     906.8319        32     1.646     0.888 -33.28   0
       474    351.1513    294.4283 307.7872635  +6.5613487     628.1644     1198.929     797.4049     78.43556     157.3091     314.3056      1.936     6.36     855.8693       55.418     91.41949         9     1.262     0.900  84.76   0
       475    232.2037    295.2843 307.8366509  +6.5569914      704.121     984.1228     804.1303     78.31017     156.8711     314.0866      1.547     4.45     860.3984       55.418     110.7224         7     1.284     0.439 -25.41   0
       476    777.0184    293.0612 307.6103775  +6.5762088     2388.041     3727.668     3918.684     78.43556     157.1841      314.243      1.580     4.16     851.1898       55.418     420.3461        20     1.557     0.730 -29.60   0
       477     92.9292    294.0144 307.8945537  +6.5528214      1008.68     1512.781     1819.059     78.31017     157.1215     314.3056      1.600     4.07     865.1111       55.418     153.1901        12     1.158     0.765 -20.34   0
       478    366.5045    287.6239 307.7811153  +6.5646744     1817.752     3468.396     3656.194     78.93516     156.9964     314.2743      2.033     6.45     855.2638       55.418     217.7531        28     1.863     0.973 -14.46   0
       479     80.1843    288.2970 307.9000424  +6.5547519      1243.01     2094.008     2122.455     78.68576     156.9964     314.2118      1.849     4.92     865.4086       55.418     189.8686        18     1.513     0.892 -20.52   0
       480   1015.3033    283.9876 307.5116799  +6.5879267     5716.934     8979.131      9290.37     78.68576     156.9964     314.1805      1.643     3.86     844.1857       55.418     902.0453        29     1.572     0.894 -32.44  16
       481    493.0070    283.8961 307.7286849  +6.5704658     1889.609     3052.947     3184.427     78.56076     156.8711     314.2118      1.667     4.12     851.6605       55.418     339.9147        21     1.569     0.830 -31.18   0
       482    255.7863    279.3674 307.8273929  +6.5643569     5747.889     9428.857     10204.68     78.43556     156.9964     314.3056      1.769     4.02     858.7932       55.418     763.5381        34     1.698     0.967 -33.26   0
       483    821.1276    278.0286 307.5925577  +6.5838924     527.8109     761.6361     1027.034     78.68576     157.2466     314.3681      1.475     4.04     849.8489       55.418     75.39862         6     0.992     0.470 -53.21   0
       484    946.8499    274.3618 307.5404453  +6.5896128     440.7032     577.7864     512.0441     78.56076     157.2466     314.3369      1.050     3.47     847.1734       55.418      83.7309         5     0.773     0.451 -15.38   0
       485    775.5034    272.6126 307.6116962  +6.5846006     855.1768     1169.236     1358.241     78.68576     156.9964     314.1805      1.591     5.03     850.6694       55.418     126.6672         9     1.146     0.625 -31.78   0
       486    232.9812    272.1956 307.8371103  +6.5665497     689.8242     1139.685     926.9471     78.43556     156.8711     314.2118      1.536     5.74     859.9827       55.418     102.6592         8     1.434     0.647 -45.36   0
       487    389.9986    270.0087 307.7719506  +6.5727371     1558.818     2674.075     2283.434     78.18457     156.9338     314.1805      1.671     4.77     854.0086       55.418      218.953        18     1.487     0.865 -38.95   0
       488    976.9332    269.0831 307.5281236  +6.5927980     1027.241      1698.42     1956.145     79.05956     157.4964     314.4619      1.537     4.23     845.7346       55.418     190.9812        11     1.387     0.587 -26.50   0
       489    312.2222    266.3870 307.8043861  +6.5716158     1143.331     1888.623      1374.61     78.56076      157.059     314.3056      1.653     4.96     856.2554       55.418     165.5757        14     1.281     0.845 -29.36   0
       490    159.6491    266.2260 307.8677783  +6.5665434     1758.156     2721.249     2443.991     78.43556     157.2466     314.3056      1.613     4.80     863.2397       55.418     263.6482        16     1.427     0.707 -28.09   0
       491    569.4228    261.6052 307.6976897  +6.5822348     2173.565     3298.543     2766.271     78.43557     156.9964     314.2118      1.628     4.05     849.6739       55.418     288.9574        19     1.435     0.762 -32.33   0
       492    912.8403    260.7254 307.5550349  +6.5941055     1553.275     2648.359     3014.402     78.68576     157.2466     314.4306      1.807     5.19     847.6924       55.418     277.1634        20     1.628     1.046   1.54   0
       493    733.0132    259.2806 307.6297997  +6.5886813     4677.827     7400.461     7628.826     78.43556     156.9964     314.2118      1.671     4.37     851.2271       55.418     706.3558        26     1.611     0.818 -31.50   0
       494    673.8055    259.2694 307.6543998  +6.5867012     2024.074     3132.884     3232.899     78.31017     156.8711      314.243      1.642     3.84     851.0761       55.418     341.5886        20     1.423     0.842 -34.29   0
       495    970.9446    259.0161 307.5309505  +6.5967541     664.1708     803.4165     613.4655     78.18457     157.1841     314.1179      1.249     2.89     845.7058       55.418     121.2062         7     0.853     0.532 -41.71   0
       496    928.9134    251.3474 307.5486723  +6.5985149     1205.319     1696.097     1896.971     78.81055     157.1215     314.5556      1.696     5.09     846.7418       55.418     185.3044        15     1.502     0.685 -28.65   0
       497    232.6661    244.4942 307.8381799  +6.5779757      2278.39     3554.493     3660.454     78.81056     157.4339     314.3994      1.766     4.60     859.6092       55.418     298.3613        21     1.523     0.833 -29.52   0
       498    875.4538    243.4632 307.5711500  +6.5999816     1596.843     2512.242     2583.471     78.81056     157.1841     314.3681      1.644     5.25      848.029       55.418     224.3342        20     1.608     0.851 -19.72   0
       499    765.6600    242.9376 307.6167864  +6.5965226     1562.392     2524.145     2490.265     78.81055     157.1841     314.4306      1.695     4.14     850.0987       55.418     265.1827        15     1.373     0.735 -36.04   0
       500    253.9911    238.3185 307.8295295  +6.5812435      515.056     730.9623     522.7139     78.43556     156.8711      314.243      1.611     4.00      858.563       55.418     93.66638         6     1.412     0.324 -27.39   0
       501    466.4773    234.3675 307.7413816  +6.5900227     21793.09     35464.27     37596.53     78.68576     157.2466     314.3369      1.767     4.17     849.7591       55.418     2964.319        57     1.768     1.090 -34.22   2
       502    472.4416    228.7785 307.7390925  +6.5925306     1334.905     2212.739     2593.606     78.43556      157.059     314.2118      1.967     4.58     849.1919       55.418     193.5396        15     1.362     0.755 -25.32   3
       503    792.5492    233.5748 307.6059296  +6.6012889      12680.7     20641.09     22315.69     78.43557     157.2466     314.3056      1.771     4.36     849.5049       55.418     1827.952        51     1.807     1.063 -24.43   0
       504    731.1409    229.9618 307.6315663  +6.6007232     572.9626     878.9037     670.9383     78.81055     157.3091     314.4619      1.880     5.52     850.0012       55.418     72.35925         9     1.259     0.682 -48.43   0
       505    154.5705    227.7363 307.8711936  +6.5822625      2298.92     3739.246     3958.082     78.56076     157.2466     314.3369      1.734     4.34     862.2974       55.418     295.7433        23     1.481     0.972 -25.30   0
       506    129.0498    226.9735 307.8818222  +6.5817170     901.6232     1614.469     1553.395     78.43556     157.3091     314.3369      1.983     5.41     863.3094       55.418     147.9709        12     1.563     0.529 -41.51   0
       507    328.5164    235.5219 307.7986615  +6.5849069     549.8907     870.8763     854.5034     78.93516     157.5587     314.4931      1.767     6.05     855.1522       55.418     84.88239         9     1.580     0.652 -29.38   0
       508    181.2369    226.0235 307.8601729  +6.5838685     557.5712     874.3407     453.4531     78.43556     156.9964     314.1805      1.514     3.52      861.285       55.418     87.09082         5     0.797     0.500 -32.10   0
       509    929.0424    224.1593 307.5495338  +6.6097443     1353.105     2342.554     2816.369     78.56076     157.2466     314.2743      1.819     4.64     845.3248       55.418     270.9371        15     1.522     0.762 -24.06   0
       510    590.5722    220.2287 307.6902999  +6.6000274      4393.96     6848.851     7090.822     78.31017      157.059     314.1805      1.648     4.21     848.5729       55.418     639.9318        26     1.536     0.858 -33.79   0
       511    553.0630    220.1269 307.7058880  +6.5988104     2030.114     3216.698     2955.364     78.93516     157.2466     314.4619      1.589     3.93     848.4005       55.418     276.8386        20     1.390     0.887 -28.66   0
       512    311.0307    220.8888 307.8064218  +6.5903597     1087.882     1636.779     1698.716     78.93516      157.059     314.3369      1.531     4.14     855.8748       55.418     177.2303        12     1.353     0.588 -26.32   0
       513    897.6033    216.8177 307.5628441  +6.6117238     10787.56     17166.32      18280.9     78.43556     156.8085     314.2118      1.679     4.19     846.1604       55.418     1546.574        41     1.625     1.013 -37.43   0
       514    395.0826    219.1588 307.7715589  +6.5939017     1411.855     2382.648     2196.522     78.81055     157.2466     314.3369      1.828     5.15     852.3183       55.418     226.2007        19     1.654     0.752 -37.86   0
       515    951.3818    217.3820 307.5404797  +6.6132895     2589.847      4068.82     4237.713     78.56076     156.9338     314.3369      1.669     4.32     844.7682       55.418     359.5203        25     1.585     0.953 -28.13   0
       516    572.3775    216.7054 307.6979786  +6.6008714     771.5148     1270.821     1057.036     78.81056      157.059      314.243      1.875     6.00     848.4026       55.418     108.7358        12     1.464     0.692 -35.97   0
       517    216.7627    216.9472 307.8457209  +6.5888127     740.6376     1383.208     1695.656     78.68576     157.2466     314.3994      1.898     5.92     859.8959       55.418      102.076        11     1.798     0.549 -30.81   0
       518    984.1771    214.6815 307.5269438  +6.6155009     9215.057     14570.01     15247.09     78.56076     156.9338     314.3369      1.663     4.25     844.2108       55.418     1376.657        36     1.634     0.930 -36.08   0
       519    325.2626    217.3277 307.8006295  +6.5923089     826.1531     1128.152     1636.408     78.93516     157.2466     314.4619      1.310     3.84     855.1793       55.418     132.8962         6     1.017     0.415 -13.67   0
       520     23.7450    213.2108 307.9260388  +6.5838462     23694.04     39465.07     42315.27     78.18457     157.1841     314.0866      1.757     4.21     866.0934       55.418     3318.407        61     1.792     1.124 -32.88   0
       521    695.6768    214.5727 307.6468205  +6.6058881     2742.828     4390.313     4610.355     78.68576     157.1841     314.3681      1.708     4.71     849.1852       55.418     360.1013        23     1.495     0.977 -24.47   0
       522    269.7835    214.5440 307.8237738  +6.5915906     1018.196     1656.454     1503.303     78.31017     157.1841     314.1492      1.696     4.92      857.825       55.418     131.0115        13     1.252     0.839 -27.33   0
       523    504.2965    209.3921 307.7265127  +6.6016046     1999.282     3345.441     3304.997     78.56076     156.8711     314.1805      1.744     4.98     848.0785       55.418     316.8342        22     1.601     0.875 -29.27   0
       524    836.2020    206.2310 307.5887133  +6.6140398     1845.472     2904.702     3192.874     78.18457      157.059     314.2118      1.756     4.23     847.3264       55.418     285.5135        19     1.473     0.846 -40.67   0
       525    516.2673    205.3485 307.7216756  +6.6036761     2552.309     4200.438     4411.516     78.68576     157.1215     314.3681      1.719     4.16     847.9746       55.418      354.583        27     1.625     0.918 -37.59   0
       526    888.5411    205.0167 307.5670069  +6.6162929     1856.882     2914.413       3590.6     78.31017     157.1215     314.1492      1.701     4.63     845.9045       55.418      286.137        18     1.468     0.833 -38.16   0
       527    747.7734    202.7164 307.6255743  +6.6125292     38108.93     60157.23     63030.22     78.68576     156.9964     314.3369      1.675     4.08     848.5848       55.418     5476.946        61     1.680     1.056 -33.43   0
       528    350.7426    202.0586 307.7905600  +6.5994701     5682.613     11979.68     13951.69     78.93516     157.1841     314.4306      2.278     6.23     853.8344       55.418     638.3768        50     2.107     1.290 -60.06   0
       529    981.4828    201.5012 307.5285067  +6.6208525     2808.539     4407.355     4304.197     78.81056     157.6835     314.4931      1.658     4.60     843.7631       55.418     390.2289        22     1.506     0.832 -31.55   0
       530   1019.9664    200.1251 307.5125625  +6.6227068     1667.898     2500.094     2536.204     78.68576     157.2466     288.3441      1.557     4.54     843.0656       55.418     277.1542        14     1.371     0.670 -30.64  16
       531    915.6387    199.8511 307.5559214  +6.6193321     7142.175     11270.93     12201.56     78.56076     157.1841     314.3994      1.668     4.09     844.8907       55.418     1075.903        30     1.591     0.871 -30.48   0
       532    459.2109    198.8155 307.7456028  +6.6044564     4627.438     7700.232     7629.544     78.56076     156.9338     314.3056      1.696     4.28     848.7461       55.418     627.0811        31     1.577     0.980 -37.23   0
       533    233.8900    195.7710 307.8393227  +6.5981322     726.3799     1065.359     1311.611     78.93516     156.9964     314.3056      1.606     3.34     859.1414       55.418     122.5343         7     0.876     0.571 -30.18   0
       534    116.5705    190.0480 307.8882597  +6.5965407     4484.438     7518.159     7565.125     78.43556     157.3091     314.3056      1.791     4.16     862.5997       55.418     621.1741        30     1.612     0.993 -35.35   0
       535    286.8908    186.8269 307.8176051  +6.6036096     31567.95        52379     55667.82     78.93516     156.9964     314.2743      1.748     4.19     857.4636       55.418     4410.714        64     1.764     1.139 -36.26   0
       536    262.1610    187.8562 307.8278449  +6.6023520     6233.173      10442.9     11550.41     78.81055     157.3091     314.3681      1.782     4.12     858.2268       55.418     851.2198        36     1.669     1.011 -32.38   0
       537    935.6413    189.1442 307.5479705  +6.6244216     817.2585     1306.451     1827.227     78.68576     157.1841     314.4306      1.751     5.45     844.0281       55.418     156.1261         9     1.288     0.682 -12.06   0
       538    903.3399    188.2515 307.5614222  +6.6237098       287.01     575.6107     742.9131     78.81056     157.1841     314.3994      1.804     3.40      844.755       55.418     76.24689         5     1.228     0.273 -34.62   0
       539    613.5789    188.3146 307.6818184  +6.6139755     634.3052     1149.694         1141     78.56076     156.9964     314.3369      1.846     4.74     847.7012       55.418     92.57324         7     1.209     0.526 -23.18   0
       540    716.2717    186.0744 307.6392247  +6.6183444     822.1926     1280.965     1508.683     79.05956     157.3715     314.4306      2.051     4.63     847.9318       55.418     145.1191        11     1.279     0.678 -30.77   0
       541    410.9108    182.3367 307.7662284  +6.6096361     46494.85      76919.7     81627.84     78.68576     157.3715     314.4306      1.771     4.23     849.9971       55.418     6433.633        80     1.800     1.169 -34.72   0
       542    166.9165    183.5142 307.8675640  +6.6009356     3794.092     6137.472     6429.817     78.56076     157.4339     314.4619      1.722     4.20      860.785       55.418     498.5652        29     1.634     0.913 -34.39   0
       543    428.3402    182.8829 307.7589682  +6.6099966     1350.289      2202.53     2242.269     78.93516     157.3091     314.4306      1.832     5.36     849.2761       55.418     177.1278        16     1.367     0.826 -39.21   0
       544    314.9445    180.0428 307.8061790  +6.6073548     17205.46     28414.72     30123.83     78.68576     157.2466     314.3994      1.739     4.23     855.9568       55.418     2370.338        53     1.793     1.083 -31.76   3
       545    322.3998    180.1323 307.8030784  +6.6075687     1836.464     3439.632     4399.709     78.05877     156.7458     314.1179      2.221     7.92     855.5453       55.418     237.4819        25     2.008     1.004 -54.60   2
       546    750.1980    178.6149 307.6253796  +6.6225611     31391.61      50143.3     52666.52     78.43556     156.9338     314.2118      1.710     4.20     847.2992       55.418     4649.648        61     1.724     1.049 -33.84   0
       547    798.8070    179.0277 307.6051680  +6.6240190     1076.541     1824.778     1719.612     78.31017      157.059     314.2118      1.850     5.29     846.4338       55.418     168.9686        16     1.482     0.818 -41.05   0
       548    698.1485    180.4715 307.6469440  +6.6200501     1017.266     1705.299     1287.952     78.68576     157.2466     314.4306      1.873     5.85     847.7266       55.418     143.3395        12     1.530     0.630 -31.46   0
       549     38.2465    178.5260 307.9211918  +6.5986549     720.8622     1164.782     1139.929     78.68576     157.3091     314.3994      1.880     6.07     865.7059       55.418     95.66156         9     1.320     0.784  -4.32   0
       550     67.0297    175.7137 307.9093289  +6.6007873     8852.281     14545.45     15323.36     78.93516     156.9964     314.3056      1.740     4.19     864.2629       55.418     1239.308        41     1.660     1.078 -35.11   0
       551   1008.8724    172.8955 307.5180881  +6.6335783     892.4332     1481.222     1582.928     78.68576     157.3715     314.3681      1.685     6.37     842.1585       55.418     122.4646        14     1.707     0.667 -40.21   0
       552    100.8441    173.6682 307.8953494  +6.6027726      1443.63     2066.142     2200.425     78.81055     157.1841     314.4306      1.573     4.15     862.5717       55.418     185.5117        15     1.263     0.795 -23.49   0
       553    975.7719    171.7602 307.5318804  +6.6329407     669.0333     735.7541     996.2224     78.43556     156.9964     314.2743      1.620     4.48     842.7185       55.418      90.2179         6     1.041     0.548  34.70   0
       554    734.6732    166.8707 307.6322264  +6.6268896     634.3704     1023.704     247.3316     79.05956     157.3715     314.3994      1.539     3.58     846.9432       55.418     119.3531         6     0.928     0.563 -23.61   0
       555    584.0561    162.8410 307.6949456  +6.6235017     876.4975     1339.852     1360.008     78.68576     157.3091     314.4306      1.791     5.38     846.8899       55.418     119.6682        10     1.249     0.654 -52.75   0
       556   1009.5419    159.1765 307.5182713  +6.6392648     2120.829     3313.927     3880.003     78.43556     157.2466      314.243      1.719     4.25     841.5722       55.418     313.4518        22     1.531     0.858 -28.19   0
       557    592.5469    156.9061 307.6916180  +6.6262370     830.2987     1281.338     2166.296     78.68576     157.1841     314.6493      2.057     5.51     846.6988       55.418     143.5784        12     1.453     0.589 -38.63   0
       558    600.9582    154.8889 307.6881912  +6.6273521     1872.259     3079.958     3482.043     78.81055     157.1841     314.4306      1.855     4.23     846.6322       55.418     293.3354        18     1.507     0.776 -28.70   0
       559    345.1382    155.0031 307.7944816  +6.6187085     867.4888     1421.358     1550.571     78.18457      157.059     314.1179      1.730     4.72       854.22       55.418     130.8542        10     1.304     0.669 -24.99   0
       560    285.6855    153.1101 307.8192480  +6.6174890     28575.36     47602.27     50978.71     78.56076     157.6211     314.5244      1.766     4.30     857.7735       55.418     4004.546        69     1.925     1.159 -30.44   0
       561    194.9214    150.8123 307.8570375  +6.6153803     706.3533     1221.199     1068.913     78.43556     156.9338      314.243      2.029     5.09     859.4667       55.418     112.9906        10     1.139     0.644 -21.73   0
       562    128.1569    146.8283 307.8849123  +6.6147744     4523.464     7773.338     8206.007     78.43556     157.3091     314.3056      1.811     4.46     860.7554       55.418     618.2614        31     1.674     0.956 -33.82   0
       563     31.0755    151.6028 307.9250855  +6.6095279     4095.121      7057.81      7256.02     78.31017     156.7458     314.3056      1.828     4.28     865.9319       55.418     503.2231        34     1.693     1.076 -42.98   0
       564    467.2611    144.1611 307.7441062  +6.6272912     1228.781     1691.246      1354.74     78.81055     157.2466     314.4306      1.451     5.04      846.764       55.418     189.9805        17     1.476     0.840 -41.06   0
       565    589.8535    145.2605 307.6931305  +6.6309546     655.4894     1248.256     1266.789     78.81055     157.1841     314.3681      2.034     5.14     846.2993       55.418     126.2587         9     1.684     0.443 -23.62   0
       566    398.9386    142.7438 307.7725425  +6.6255796     3494.655     6423.862     6926.839     78.93516     157.2466     314.4306      2.016     4.51     849.7358       55.418     413.2371        37     1.808     1.206 -42.30   0
       567    655.5630    143.9723 307.6658706  +6.6336911     773.5447     993.6078     833.4776     78.31017     156.9338     314.1805      1.480     5.21     846.1884       55.418     125.3228        12     1.321     0.658 -18.85   0
       568    363.2545    141.6889 307.7874051  +6.6248148      2985.56     4829.238      4728.44     78.81056     157.1215     314.5244      1.708     4.41     852.8523       55.418     421.3983        25     1.585     0.890 -38.82   0
       569    575.1870    141.8179 307.6993409  +6.6318836     511.1951     850.7573     440.5545     78.56076     156.9338     314.3056      1.628     3.89     846.1994       55.418     80.12939         5     1.023     0.424 -44.90   0
       570    117.6156    141.5016 307.8894728  +6.6166180     1614.463     2655.413     2485.917     78.81056     156.9964     314.1492      1.790     5.01     860.8541       55.418     220.5054        18     1.537     0.809 -32.48   0
       571    679.2523    139.8560 307.6561662  +6.6361851     689.7935     885.6292     870.8727     78.81055     157.2466     314.3681      1.427     4.48      845.879       55.418     103.1895         8     1.077     0.530 -36.76   0
       572   1010.2682    135.8950 307.5187526  +6.6489013     1403.713     2182.717     2036.432     78.68576     157.3715     314.4306      1.620     5.42     840.5809       55.418     219.5278        15     1.636     0.600 -27.28   0
       573    717.4240    149.7751 307.6399704  +6.6333696     7801.006     12458.05     13080.45     78.31017      157.059     314.3369      1.684     4.10     846.1288       55.418     1169.577        35     1.574     0.988 -32.48   0
       574    736.3376    135.4762 307.6325936  +6.6399070     566.6375     827.1871     618.0373     79.05956     157.2466     314.3994      1.462     4.69     845.0543       55.418      110.025         5     1.280     0.494 -45.96   0
       575    215.2935    130.6417 307.8492569  +6.6243942     5286.396     8656.525     8646.823     78.93516     157.1841     314.4931      1.724     4.28      858.911       55.418      668.194        34     1.673     0.976 -38.22   0
       576    676.9592    129.5389 307.6574671  +6.6403677     6032.395     9542.734     9879.687     78.81055     157.2466     314.4306      1.657     4.19     845.3279       55.418     860.0759        33     1.599     0.962 -35.02   0
       577     97.8726    130.5399 307.8980477  +6.6204775     2079.316     3448.015     3667.059     78.93516     157.2466     314.4306      1.842     4.73     861.0244       55.418     253.5676        22     1.505     0.916 -34.29   0
       578    825.1760    129.3191 307.5958863  +6.6454249     975.5949      1721.77     1211.365     78.56076     156.9964     314.3056      1.814     5.38     843.3561       55.418     150.6971        13     1.373     0.682 -21.93   0
       579    629.1946    126.7709 307.6774079  +6.6399083     8967.006     14586.96     15698.53     78.31017      157.059     314.2118      1.708     4.31     845.5429       55.418     1328.936        37     1.683     0.954 -34.20   3
       580    632.7018    118.2875 307.6762371  +6.6435284      50071.8     80518.87     85217.49     78.81056     157.6835     314.4306      1.702     4.14      845.133       55.418     7334.174        69     1.725     1.104 -32.82   2
       581    263.9005    127.2214 307.8291767  +6.6274435     746.3644     1347.855      1253.32     78.81055     156.9964     314.1805      2.022     5.53     858.1508       55.418      120.604         9     1.376     0.627 -36.22   0
       582    567.1418    126.2933 307.7032083  +6.6380230     622.5469     851.8319      792.476     78.68576     157.2466     314.5244      1.459     4.29     845.6667       55.418     81.71381         6     0.795     0.661 -67.26   0
       583     28.1477    125.4055 307.9271916  +6.6202443     980.3511     1608.422     1161.293     78.31017     156.9964     314.0553      1.676     6.03     865.5981       55.418     133.7701        12     1.328     0.771 -48.32   0
       584    356.3778    122.4237 307.7909146  +6.6325371     3612.463     6108.657     6487.756     78.43556      157.059     314.3681      1.838     4.65     853.4442       55.418     476.3894        30     1.892     0.861 -39.95   0
       585    538.0553    121.8058 307.7154460  +6.6388990     1649.064     2808.407     2705.803     78.31017      157.059     314.0866      1.793     5.05     845.5581       55.418     217.2562        20     1.719     0.732 -30.27   0
       586   1002.4072    121.5038 307.5225033  +6.6545802     857.2791     1285.447     1260.067     78.56076     156.8711     314.1805      1.678     5.12     840.0753       55.418     115.1315         9     1.190     0.622 -27.65   0
       587    311.8478    112.0092 307.8097698  +6.6353382     3142.788     5238.968     5478.885     78.31017      157.059     314.0553      1.720     4.43     856.2766       55.418      458.598        27     1.643     0.917 -34.50   0
       588      9.3106     95.0082 307.9360507  +6.6321575     722314.4      1671879      1841656     78.31017     156.9338     314.1492      2.283     6.60     866.3491       55.418     61522.46       432     2.347     1.786 -41.23  28
       589    507.7388    108.9778 307.7284767  +6.6431769     518.7659     909.7311     1069.612     78.43556     157.1841     314.3056      2.219     4.21     845.2736       55.418     87.01941         6     1.128     0.449 -17.02   0
       590    711.3735    106.8806 307.6439316  +6.6508762     820.5481     1447.254      1737.41     78.68576      157.059     314.4306      2.158     6.71     843.6322       55.418     124.4866        13     1.528     0.826 -43.45   0
       591    683.1294    105.5699 307.6557122  +6.6504704     1276.222     1951.036     1842.215     78.68576     157.2466     314.3681      1.743     6.17      843.893       55.418     196.7444        16     1.431     0.789 -29.15   0
       592    697.1688    102.1513 307.6499937  +6.6523526     2907.955     4766.187     4863.079     78.56076     157.2466     314.3056      1.709     4.60     843.4998       55.418     424.7479        24     1.600     0.845 -29.52   0
       593     68.9934    100.7814 307.9110569  +6.6317887     491.3359     771.7783     290.6569     78.43556     156.9338      314.243      1.504     4.30       862.02       55.418     70.63641         5     1.056     0.499 -36.27   0
       594    438.8171     93.3222 307.7576446  +6.6473242      3892.32     6501.051     6824.141     78.31017     156.9964     314.3369      1.753     4.43     846.6017       55.418     534.6201        28     1.607     0.932 -41.33   0
       595    893.5858     89.5251 307.5687999  +6.6641441     1941.377     3061.648     3443.125     78.31017     156.9964      314.243      1.759     4.82     840.3549       55.418     255.6785        22     1.624     0.820 -38.70   0
       596    911.3668     88.7450 307.5614372  +6.6650611     4074.214     6190.587     6498.501     78.68576     157.2466     314.3681      1.591     3.84     839.8101       55.418     757.0381        23     1.479     0.796 -37.31   0
       597    603.4742     87.2143 307.6894313  +6.6553765      1641.49     2460.281     2366.103     78.31017     156.9964     314.2743      1.630     4.20      844.407       55.418      266.681        17     1.470     0.732 -31.29   0
       598    249.8385     86.3458 307.8364048  +6.6438453     795.1955     1220.244     1467.828     78.81055     157.3091     314.3994      1.647     5.27     858.0535       55.418     126.0424         9     1.133     0.693 -44.62   0
       599    402.4024     85.2160 307.7730500  +6.6494465     1929.644     3197.643     3233.474     78.43556     156.8711     314.2118      1.665     3.84     849.0222       55.418      302.132        20     1.445     0.808 -17.90   0
       600    150.0984     81.8940 307.8779987  +6.6423219     2810.019     4846.581     4971.103     78.81055      157.808      314.243      1.789     5.34     857.7552       55.418     380.0228        24     1.712     0.873 -35.86   0
       601    298.2492     80.6090 307.8164838  +6.6478439     1289.328     2077.519     2353.089     78.31017      157.059     314.0866      1.789     5.72     857.0526       55.418     170.8021        13     1.444     0.639 -42.73   0
       602     32.0226     79.7607 307.9271319  +6.6392190     11315.82     19206.22     20869.87     78.43556     156.9964     314.2118      1.787     4.27     863.4317       55.418     1541.967        43     1.703     1.069 -35.82   0
       603    571.3107     79.9279 307.7030425  +6.6573052     642.3558     982.1514      995.382     78.81055     157.4964     314.3994      1.837     6.00     844.2014       55.418     112.2281         9     1.343     0.754 -17.57   0
       604    766.9290     78.5278 307.6218023  +6.6644438     609.8051     1217.313     1869.285     79.05956     157.3715     314.3369      2.123     6.09      841.843       55.418      111.764         9     1.675     0.623 -32.80   0
       605    833.7068     74.5078 307.5941884  +6.6683400      6012.13     9399.413     9971.207     78.81056     157.7458     314.3994      1.689     4.33      840.813       55.418     827.2337        29     1.570     0.903 -32.10   0
       606    778.7133     74.9255 307.6170269  +6.6663258     3079.808     4780.509     5180.538     78.93516     157.5587     314.4619      1.645     4.06     841.5799       55.418     471.6942        22     1.449     0.832 -32.44   0
       607    423.9229     75.3832 307.7644404  +6.6542296     1095.056     1477.564     1451.828     78.31017     156.9964     314.2743      1.436     4.13     847.3914       55.418     158.6956        12     1.302     0.590 -39.22   0
       608    900.5711     75.5888 307.5663664  +6.6701316     562.7839     759.1897      636.496     78.31017      157.059      314.243      1.215     3.49     839.5411       55.418     88.14868         5     1.076     0.327 -21.02   0
       609    765.0528     74.4175 307.6227206  +6.6660779     624.6108     1041.606     1670.953     78.31017     157.3091     314.1179      1.898     4.67     841.7195       55.418     92.61212         7     0.949     0.652  55.09   1
       610    541.2529     72.9434 307.7157686  +6.6591795     1113.755     1728.351     1910.939     78.93516     157.2466     314.3994      1.710     3.97     844.0478       55.418     188.9254        12     1.164     0.671 -25.25   0
       611     72.4458     71.5592 307.9106145  +6.6439693      3002.78     4984.756     5037.402     78.68576     157.2466      314.243      1.792     4.17     860.2045       55.418     390.9987        30     1.677     1.023 -34.06   0
       612    433.0831     71.3575 307.7607703  +6.6561996     908.1762     1512.933     1617.393     78.81055     157.2466     314.3369      1.638     5.03     847.0253       55.418     125.9091        11     1.158     0.709 -29.44   0
       613     57.1009     72.0361 307.9169742  +6.6432545     798.5302     1340.214     886.9816     78.81055     157.1215     314.5869      1.790     4.27     861.1818       55.418     131.1719         8     1.160     0.593 -29.27   0
       614    596.2203     68.3883 307.6930814  +6.6629055     1253.683     2069.804     1909.502     78.43556     156.9338     314.3056      1.609     5.39     843.8481       55.418     183.3716        11     1.378     0.596 -33.92   0
       615     14.6344     67.2298 307.9347823  +6.6438052     2387.677     3883.684     4334.659     78.31017     156.9964     314.2118      1.714     4.28     863.4891       55.418     327.5853        23     1.545     0.888 -44.86   0
       616    723.7708     64.6492 307.6402047  +6.6687274     368.9309     442.3785     94.13982     78.43556     157.3091     314.3056      1.332     3.47     841.8913       55.418     64.10541         5     1.233     0.282 -54.85   0
       617    773.4971     62.2006 307.6196235  +6.6714047     1862.992     2932.784     3243.729     78.31017     156.8711     313.9927      1.707     4.49     841.2672       55.418     290.4255        21     1.680     0.756 -35.57   0
       618    414.2286     62.3585 307.7689094  +6.6592809     1035.277      1671.59     1328.999     78.43556     157.1215     314.2743      1.692     4.53     848.1931       55.418     157.1478        11     1.299     0.571 -31.42   0
       619     87.0673     62.7768 307.9048374  +6.6480884     750.2852     1220.586     1422.571     78.43556     157.1841     314.3369      1.603     3.58     858.7663       55.418     163.2119         8     1.217     0.556 -14.77   0
       620    111.5512     60.9068 307.8947276  +6.6496863     812.2548     1494.239     1798.244     78.68576     157.1215     314.5244      1.847     5.26     857.8575       55.418      117.817        10     1.754     0.446 -32.59   0
       621    100.0966     55.9612 307.8996549  +6.6513417     8846.565     14846.31     15612.91     78.81055     157.1215     314.5556      1.780     4.22     857.7991       55.418     1191.467        47     1.746     1.115 -39.62   0
       622    429.3047     55.6251 307.7628726  +6.6625677     2499.318     4232.245     4027.153     78.93516     156.9964     314.2743      1.826     4.67     847.3702       55.418     371.5905        23     1.680     0.801 -35.20   0
       623    250.4397     55.7377 307.8371924  +6.6565019     587.8226      842.454     961.3123     78.81056     157.2466     314.4619      1.674     4.68     857.5497       55.418     101.2387         7     0.965     0.644 -14.13   0
       624    642.8690     48.0680 307.6743830  +6.6728602     17592.71     28184.41     29155.74     78.81055     157.3715     314.3681      1.678     4.31     842.3812       55.418     2553.777        44     1.662     0.996 -32.97   0
       625    266.8608     50.0828 307.8305607  +6.6593896     1433.205     2582.177     3391.656     78.93516     157.2466     314.4306      2.132     4.38     857.3879       55.418     212.3571        14     1.250     0.835 -24.80   0
       626    951.4650     47.5437 307.5461613  +6.6834127     598.9158     749.1216      1165.67     78.93516     157.1841     314.3994      1.561     4.14     837.0664       55.418      101.594         5     0.995     0.492 -84.59   0
       627    542.5956     44.1127 307.7161850  +6.6711275      5016.29     7933.714     8595.351     78.31017     156.9338     314.0866      1.703     4.35     843.1872       55.418     696.5122        28     1.569     0.894 -33.25   0
       628    260.8417     44.3137 307.8332573  +6.6615686     1882.517     3228.869     4652.708     78.81055     157.1841     314.4306      1.862     4.44     857.3226       55.418     254.2885        18     1.389     0.808 -32.76   3
       629    268.7460     40.0513 307.8301173  +6.6635946     8506.701     14205.62     15893.28     78.93516     157.1841     314.4306      1.774     4.40      857.253       55.418     1178.422        41     1.734     1.041 -32.49   2
       630    630.0038     42.0089 307.6799337  +6.6749301     815.2768     1416.031     2397.578     78.18457     156.9338      314.243      1.886     4.21     842.5223       55.418     125.3622        10     1.132     0.632 -58.06   3
       631    628.9069     37.9001 307.6805283  +6.6765896      2999.93     5007.197     6001.906     78.81055     157.7458     314.3056      1.796     4.41     842.4198       55.418     397.6478        23     1.480     0.898 -31.84   2
       632     10.1187     42.2829 307.9375061  +6.6539517     1021.315     1447.598     1112.625     78.68576     157.4964     314.4931      1.709     5.84     861.5974       55.418     135.0789        12     1.293     0.744 -38.28   0
       633    448.1656     39.6553 307.7555755  +6.6697949     21171.25     34684.14      36502.3     78.68576     157.2466     314.3994      1.746     4.19     846.4244       55.418     2970.614        56     1.720     1.107 -34.17   0
       634    926.0552     39.7375 307.5569835  +6.6857858     1866.283     2984.222     3167.532     78.93516     157.1841     314.3994      1.686     4.75     837.7646       55.418     282.6796        18     1.362     0.840 -36.75   0
       635    561.1791     39.5797 307.7086159  +6.6736229      705.858     1107.519     1025.231     78.56076     157.1841     314.3369      1.484     5.07     843.0258       55.418     126.0322         9     1.307     0.712 -44.35   0
       636    328.4345     40.5192 307.8052990  +6.6654110     1043.747      1691.87     1229.509     78.68576     157.3091     314.4306      1.743     5.36     855.4086       55.418     143.6602        12     1.379     0.721 -31.11   0
       637     34.1391     39.6136 307.9276161  +6.6558647      2070.58     3282.608      3233.26     78.31017     157.1215     314.1179      1.656     3.93     860.2264       55.418     325.5136        20     1.409     0.827 -34.01   0
       638    256.5976     36.6360 307.8352810  +6.6645954     2900.196     4869.893     5957.571     77.93277      157.059     314.2118      1.868     4.11     857.2248       55.418      365.465        26     1.603     0.920 -35.00   0
       639    310.1616     34.6575 307.8130905  +6.6672159     1073.294     1526.516     1819.263     78.81055     157.3091     314.3994      1.584     3.56     856.2339       55.418     146.8588        14     1.098     0.836 -20.32   0
       640    946.3546     30.1850 307.5488693  +6.6904086     822.8058     1225.566     825.3887     78.18457      157.059     314.1805      1.633     5.66     836.4958       55.418     135.5676        12     1.360     0.968 -36.53   0
       641    698.0027     29.2320 307.6521078  +6.6824859     1764.108     2807.582     3035.164     78.05877      157.059     314.1805      1.655     4.19     840.8254       55.418     230.4519        19     1.359     0.878 -39.46   0
       642    264.0549     24.1868 307.8326042  +6.6699861     730.0844      1301.19       1486.1     78.18457     157.1841     314.1492      1.799     2.75     857.0391       55.418     135.1754         6     0.873     0.454 -38.54   0
       643    964.2059   1018.4570 307.5082146  +6.2829752     5693.662     10267.77     10281.79     78.31017     157.1215     302.9049      1.923     4.42     869.7932       55.418     684.8661        41     1.739     1.171 -29.54  16
       644    248.4340   1018.4680 307.8054201  +6.2589676     1183.036     1988.322     1762.161     78.68576     157.3091     303.1643      1.695     5.28     879.5743       55.418     183.6268        14     1.558     0.626 -37.57  16
       645    530.6134     20.2346 307.7219713  +6.6805832     2735.072     4192.114     4681.662     78.31017     156.9964     314.2743      1.650     4.26     842.8418       55.418     367.4333        21     1.502     0.826 -26.94   0
       646    719.6781   1017.9626 307.6097681  +6.2749980      530.756     1352.819     2414.358     78.68576     157.3091     307.1897      2.687     3.68     874.5076       55.418     129.4744         5     1.312     0.297 -53.14  19
       647    732.7712     18.5652 307.6380192  +6.6880552     1746.124     2940.765     2804.072     78.31017     156.9964     314.2118      1.664     4.98     840.4615       55.418      239.202        18     1.525     0.727 -27.47   0
       648    723.8108   1016.4763 307.6081021  +6.2757501     2422.506      4129.24     4794.732     78.43556     156.8711      314.243      2.153     8.35     874.3599       55.418     314.8851        26     2.293     0.849 -24.92  18
       649    446.5740   1017.5586 307.7231811  +6.2660043     907.8079     1396.676     1139.308     78.43557     157.1841     309.8337      1.617     5.59     877.5815       55.418     142.8996        11     1.340     0.657 -25.87  16
       650    739.5533   1015.6763 307.6015923  +6.2766077     1098.186      1677.27      2471.97     78.68576     157.3091     314.3994      1.931     4.02     873.9687       55.418     144.3381        12     1.167     0.671 -46.23   0
       651    370.6369   1013.8715 307.7548359  +6.2649752     1833.075     3114.059     3082.231     78.68576     157.2466     314.4306      1.755     4.91      878.882       55.418     259.6932        19     1.494     0.803 -30.72   0
       652    757.3750   1003.5823 307.5945994  +6.2821978     7570.632     12547.98     13410.25     78.56076     157.1215     314.3369      1.795     4.24     873.1558       55.418     958.9526        40     1.709     1.067 -31.13   0
       653    552.7239   1004.1011 307.6795597  +6.2751239      4045.91      6860.84     7544.152     78.43556     157.3715     314.3681      1.806     4.11     876.3661       55.418     538.6193        35     1.627     1.101 -34.66   0
       654    523.5613   1005.1521 307.6916333  +6.2737113     1116.546     1567.721     1895.891     78.68576     157.3091      314.243      1.540     5.14     876.6038       55.418     170.9202        13     1.304     0.717 -28.67   0
       655    303.0280   1002.7331 307.7832846  +6.2673005     14043.28     23401.21     25574.65     78.56076     157.1841     314.3681      1.785     4.53     878.9877       55.418     2015.956        50     1.962     0.995 -33.51   0
       656    818.4822   1003.0404 307.5692435  +6.2844671     1089.165     1603.755     1195.538     78.81055     157.3091     314.3369      1.625     4.63     871.9438       55.418     173.2271        12     1.256     0.776 -42.27   0
       657    427.3556   1003.0371 307.7316515  +6.2713541     1011.697      1450.69     1857.965     78.56076     157.2466     314.2743      1.518     4.76     877.7553       55.418     146.2722        12     1.330     0.714 -35.29   0
       658    129.1952   1003.3636 307.8554398  +6.2611886     538.1139     793.3427      1272.23     77.93277     156.9964     314.2118      2.171     4.31     876.4879       55.418     77.59241         5     0.966     0.548 -49.67   0
       659    274.0508   1000.3002 307.7953986  +6.2673302     895.2297     1452.156     1730.844     78.81055     157.2466     314.6181      1.770     5.96     878.9252       55.418     148.2851        13     1.499     0.816 -22.48   0
       660    918.6640    997.0184 307.5278462  +6.2903044     7616.973     13359.29     14278.08     78.43556     157.2466      314.243      1.872     4.29     871.9501       55.418     903.6219        43     1.743     1.133 -33.90   0
       661    636.8397    998.8226 307.6448103  +6.2801243     527.3041     663.0322     981.3604     78.43556      157.059     314.2118      1.410     3.96     875.2795       55.418     103.8223         5     0.776     0.662 -37.89   0
