#   1 NUMBER                 Running object number                                     
#   2 X_IMAGE                Object position along x                                    [pixel]
#   3 Y_IMAGE                Object position along y                                    [pixel]
#   4 ALPHA_J2000            Right ascension of barycenter (J2000)                      [deg]
#   5 DELTA_J2000            Declination of barycenter (J2000)                          [deg]
#   6 FLUX_APER              Flux vector within fixed circular aperture(s)              [count]
#   9 FLUXERR_APER           RMS error vector for aperture flux(es)                     [count]
#  12 FLUX_RADIUS            Fraction-of-light radii                                    [pixel]
#  13 FWHM_IMAGE             FWHM assuming a gaussian core                              [pixel]
#  14 BACKGROUND             Background at centroid position                            [count]
#  15 THRESHOLD              Detection threshold above background                       [count]
#  16 FLUX_MAX               Peak flux above background                                 [count]
#  17 ISOAREA_IMAGE          Isophotal area above Analysis threshold                    [pixel**2]
#  18 A_IMAGE                Profile RMS along major axis                               [pixel]
#  19 B_IMAGE                Profile RMS along minor axis                               [pixel]
#  20 THETA_IMAGE            Position angle (CCW/x)                                     [deg]
#  21 FLAGS                  Extraction flags                                          
         1     14.8420     58.8518 307.9362420  +6.6319842     756895.8      1816508      1976097     86.05376     171.6985     343.2947      2.287     5.71     1051.379     60.51128     61754.27       414     2.100     1.935  29.05   4
         2    105.6224     19.7075 307.8998408  +6.6512015      8251.38     14690.83     15295.01     86.05376     171.4937      343.124      1.911     4.00     1044.217     60.51128     900.7671        44     1.589     1.339  38.93   0
         3    648.3899     11.6799 307.6745360  +6.6727280     16757.75     27526.21     29614.85      85.6443      171.357     343.1581      1.783     3.75     1016.957     60.51128     1896.351        51     1.603     1.250  26.00   0
         4    272.3871     13.6582 307.8307396  +6.6593055     1290.402     2125.354     2580.785     85.37024     171.6303     342.9874      1.804     5.08     1042.251     60.51128     149.8877        17     1.246     1.027  20.73   0
         5    548.2142      7.6754 307.7163057  +6.6710277     4485.517     7530.749     7520.999     85.50738     171.4254     339.7265      1.774     3.86     1019.786     60.51128     504.3411        30     1.436     1.167  32.48  16
         6    266.4492      8.2271 307.8333908  +6.6613484     1643.865     2899.362      3802.28      85.6443     171.6985     342.6456      1.977     4.85     1042.401     60.51128     165.0417        22     1.314     1.153  -6.37  17
         7     16.0289      6.3588 307.9375259  +6.6536966     1043.175     1562.953     805.5327      85.6443      171.562     329.1813      1.650     5.69     1049.813     60.51128     120.6755        13     1.039     0.987  -9.42  16
         8    634.7103      2.3537 307.6805354  +6.6761209     2716.021     4425.195     5552.218     85.50738     151.9303     275.9739      1.987     6.03     1016.553     60.51128     328.9434        24     1.642     1.188  55.46  24
         9    274.3432      3.7690 307.8302606  +6.6634542     7695.769     13731.53     14504.76     85.91749     167.6938     297.7056      1.903     4.08     1042.089     60.51128     835.6198        44     1.615     1.322  21.53  24
        10    453.7792      3.3807 307.7556989  +6.6696363     19344.08     33730.52     35325.68     85.78101     164.0916     292.0633      1.872     4.05     1022.333     60.51128     1944.969        46     1.613     1.281  15.09  24
        11    931.4361      3.2783 307.5571760  +6.6856538     2024.357     2860.385     2912.856     85.91749     163.2325     290.6558      1.568     4.38      1009.37     60.51128     255.5841        16     1.225     0.852  28.46  24
        12    334.3163      4.2854 307.8053182  +6.6652549     848.9297     1366.816     1171.676     85.78101     171.2202     305.1689      1.745     5.00     1035.088     60.51128     115.7448         9     1.050     0.673  11.04  16
        13     39.7055      3.4220 307.9277858  +6.6557064     2156.811     3359.131      2937.33     86.05376     164.5907     292.8646      1.701     4.11     1047.907     60.51128      237.181        20     1.225     1.074   9.65  24
        14    262.5882      1.5518 307.8352209  +6.6639748     1662.018     2341.591     2877.192     76.84694     139.8007      261.946      1.473     4.35     1042.457     60.51128     268.5199        13     1.330     0.655   2.15  24
        15    977.2305   1002.2312 307.5046669  +6.2747143     864.4469     1391.393     1305.063     85.50738     171.4254     343.0215      1.601     3.91     1052.773     60.51128     137.0355         6     0.783     0.559  45.15   0
        16    911.9076   1022.8621 307.5311046  +6.2640180     852.1251     1155.542     1361.464     83.98651     149.1281      272.298      1.388     3.07     1056.115     60.51128     135.9281         8     0.814     0.671 -43.13  24
        17    716.9921   1023.0115 307.6120465  +6.2574501     4524.722      6035.85     5971.969     82.15283     146.5123     269.5735      1.412     3.42     1062.711     60.51128     700.3085        20     1.322     0.853   6.60  24
        18     18.0151   1022.2155 307.9023358  +6.2343451     13356.46        18870     19475.77     85.78101     157.2362     282.8098      1.481     3.24     1068.272     60.51128     1874.507        33     1.413     0.977  21.15  24
        19    806.4216    999.8160 307.5756853  +6.2700142     7836.001     10625.15     11651.23     85.78101     171.4254     343.2264      1.458     3.02     1058.433     60.51128     1366.293        27     1.302     0.927  30.73   0
        20    904.7185    997.0176 307.5349562  +6.2744495     1917.462     2472.671     1479.873      85.6443      171.357     343.2264      1.377     3.13     1055.474     60.51128     290.1433        13     1.107     0.722  26.35   0
        21    763.2698    994.5100 307.5937842  +6.2707641     875.5147     1527.317     2152.443     85.91749     171.9713     343.2947      2.156     4.75     1060.026     60.51128     163.8206        10     1.297     0.581  87.08   1
        22    226.8652    995.2285 307.8165208  +6.2525060     2222.408     3059.542     2515.146     85.78101     171.6985     343.2264      1.462     3.22     1068.522     60.51128     326.9971        19     1.237     0.903  18.63   0
        23    730.2319    992.2957 307.6075791  +6.2705749      8184.39     11222.53        11391     86.18981     171.4937     343.3971      1.481     3.24     1061.084     60.51128       1101.5        27     1.329     0.916  27.29   0
        24    444.9516    992.4727 307.7260476  +6.2609578     4400.172     6604.419     7048.218     86.05376     171.7668     343.3288      1.637     3.39     1066.292     60.51128     563.4032        26     1.446     0.996  37.84   0
        25    944.5833    992.3267 307.5185572  +6.2777156     567.0201     920.9202     399.5569     85.50738      171.562     343.1923      1.303     4.17      1053.69     60.51128     95.57776         5     1.165     0.427 -52.36   0
        26    586.3718    991.3751 307.6673544  +6.2661455     4319.824     6483.498     7004.364     85.50738     171.4937     343.1581      1.638     3.46     1064.687     60.51128      567.057        25     1.343     0.981  30.92   0
        27    722.6901    991.6071 307.6107343  +6.2706072      1272.17     1807.614     1992.393      85.6443      171.357     343.0557      1.582     3.88     1061.198     60.51128     206.8837        12     1.150     0.836  18.39   0
        28    762.5012    987.8552 307.5943267  +6.2734862      1470.92     2102.504      2427.75     85.91749     171.6985     343.5677      1.499     3.86      1059.75     60.51128     196.1825        15     1.122     0.880  50.30   0
        29    137.0405    984.7969 307.8541740  +6.2537961      3486.12     3462.736     3420.869     85.23287      171.357     343.0215      0.508     2.52     1067.685     60.51128     2366.462         8     0.500     0.379 -67.13   0
        30    969.7232    981.8030 307.5084688  +6.2828989      7889.34     10829.34     11287.84     85.50738     171.1517     343.1581      1.456     3.21     1052.368     60.51128     1303.128        27     1.309     0.932  32.67   0
        31    724.2895    982.6978 307.6103692  +6.2743393     1075.437     1604.582     2283.711     86.05376     172.1756     343.2947      1.599     4.31     1060.753     60.51128     201.2159        10     1.043     0.886  65.15   0
        32    254.3883    981.9507 307.8055390  +6.2589120     1356.834     1979.214     1789.995     85.37024     171.6303     342.9532      1.516     3.86      1068.34     60.51128     213.2081        13     1.210     0.722   8.59   0
        33    729.4668    979.9147 307.6083124  +6.2756614     3194.959      4608.53     4957.842     86.18981     171.9713     343.3288      1.547     3.41     1060.512     60.51128     498.2465        19     1.295     0.835  16.75   0
        34    452.5837    980.7359 307.7232731  +6.2660594      934.234     1273.166     1522.606     85.50738     171.6303     343.1581      1.435     5.01     1065.866     60.51128     148.6274        10     1.251     0.736  21.99   0
        35    745.3065    979.1610 307.6017595  +6.2765017     949.7564     1209.251     1242.226     86.18981     171.6303     343.3971      1.382     3.08     1060.023     60.51128     153.1267         9     0.946     0.682  -4.50   0
        36    376.2003    977.4358 307.7551052  +6.2648623     1925.826     2551.774     2420.704     85.09529     171.4937     343.0898      1.386     3.56     1067.203     60.51128     267.0342        17     1.244     0.835  23.50   0
        37    986.5580    974.7493 307.5017133  +6.2863725     759.1044     1203.837     956.2308     86.18981     171.6985     343.2947      1.730     5.37     1051.457     60.51128     86.57581         8     0.954     0.854 -55.67   0
        38    714.6591    973.8907 307.6146644  +6.2776539     684.1149     845.8308     641.7753     85.91749     171.6985     343.4312      1.316     4.37     1060.517     60.51128     100.8661         5     1.123     0.483  34.70   0
        39    558.5516    967.5955 307.6797075  +6.2750330      4625.51     6822.168     6899.737     85.37024     171.4937     342.9532      1.603     3.37     1064.063     60.51128     659.7086        29     1.327     1.142  41.51   0
        40    528.6340    969.0078 307.6920847  +6.2734485     1152.204     1485.189     1155.325     85.50738     171.4937     343.0557      1.429     5.30     1064.457     60.51128     174.3016        13     1.197     0.831  12.17   0
        41    762.9451    966.9930 307.5948424  +6.2821150     8768.848     12759.16     13233.71     85.50738     171.4937     342.9874      1.497     3.14      1058.92     60.51128     1349.462        34     1.398     1.010  25.48   0
        42    308.8629    966.2634 307.7834458  +6.2672170     15902.39     23644.24     25343.72     86.05376     171.6985     343.3288      1.611     3.22     1067.914     60.51128     2230.448        51     1.621     1.245 -12.88   0
        43      5.3688    967.7319 307.9094290  +6.2564145     809.6363      1117.53     1010.448     85.91749     171.6985     318.6549      1.562     4.72     1069.321     60.51128     101.8447         8     1.026     0.617  16.43  16
        44    824.2468    966.5751 307.5693972  +6.2843343     1353.031     1677.536     1770.939      85.6443     171.6985     343.1581      1.368     3.38     1057.093     60.51128     203.4863        13     1.067     0.817  22.91   0
        45    433.0488    966.9332 307.7318504  +6.2711039     1173.845     1466.031      1602.48     85.91749     171.6303     343.3288      1.358     3.81     1066.029     60.51128      190.559         9     0.940     0.683  22.82   0
        46    280.0469    963.7476 307.7954974  +6.2672889     1018.798     1497.284      1485.82     86.18981     171.6303     343.3288      1.531     4.81     1068.106     60.51128     120.0281         9     1.039     0.631  53.82   0
        47    924.3296    960.3854 307.5280388  +6.2902289     10273.04     14064.06     14980.28     85.50738     171.6303     343.1923      1.473     3.05     1053.437     60.51128     1453.965        29     1.306     0.945  27.48   0
        48    555.6642    959.7628 307.6811700  +6.2781704     8804.124     12984.08      14136.6     85.91749     171.6985      343.363      1.579     3.32      1063.85     60.51128     1283.598        33     1.415     1.026  25.39   0
        49    897.9154    956.6134 307.5391355  +6.2909055     14036.36     19917.85     20613.53      85.6443      171.562      343.124      1.499     3.24     1054.248     60.51128     2234.455        36     1.420     0.971  22.04   0
        50   1019.6649    955.9762 307.4885918  +6.2952270     5791.245     7753.174      7591.74      85.6443     171.6985     318.2502      1.420     3.10     1049.487     60.51128     1030.642        24     1.308     0.871  28.73  16
        51    610.8743    957.0709 307.6583316  +6.2811291     1431.721     1821.865     1624.078     86.32565      171.835     343.3288      1.400     3.47     1062.834     60.51128     197.3141        12     1.091     0.709  11.67   0
        52    541.9891    955.5514 307.6869909  +6.2794516     4435.898     6547.991     7641.448     85.50738      171.562     342.9532      1.640     3.45     1063.953     60.51128     592.9324        24     1.338     0.940  24.20   0
        53    807.8740    954.2394 307.5766108  +6.2888811     631.5587     847.5054     685.8937     85.91749     171.6985     343.3629      1.550     4.68     1057.265     60.51128     95.51965         6     0.965     0.645  63.02   0
        54    652.1270    954.8750 307.6412729  +6.2834153     1454.218     2043.081     1971.287     86.32565     171.9713     343.3629      1.426     4.09     1061.444     60.51128     264.2871        14     1.282     0.750   4.86   0
        55     76.8111    954.1061 307.8802220  +6.2644431     865.6245     1255.196     1095.509     85.78101      171.357     343.0557      1.546     4.71     1068.102     60.51128     114.2198         9     1.342     0.469  26.10   0
        56    495.1849    952.1157 307.7065443  +6.2793033     2296.159     3343.586     2578.459      85.6443     171.4254     343.1923      1.550     3.55     1064.612     60.51128     309.3232        16     1.207     0.828  31.10   0
        57    929.7178    944.1188 307.5263460  +6.2971251     50766.72      70281.7     72420.93     86.05376     171.9713     343.3971      1.466     3.15     1052.688     60.51128     8007.413        58     1.408     1.068  24.37   0
        58      2.7677    944.0723 307.9113091  +6.2660954     3358.385     4457.124     4238.804     85.91749     157.3852      282.644      1.435     3.41     1069.789     60.51128     481.1825        19     1.247     0.892  35.62  24
        59    237.0459    942.4271 307.8140741  +6.2746485     1765.918      2468.66     2214.996     85.50738     171.7668     343.1923      1.404     3.24     1067.767     60.51128     264.4956        13     1.132     0.719  43.26   0
        60    635.9558    940.6196 307.6484679  +6.2887606     976.4893     1091.506      879.987     85.50738      171.562      343.124      1.222     3.38     1061.349     60.51128     153.9396         7     0.831     0.615 -27.76   0
        61    827.6048    937.9024 307.5689641  +6.2962853     2727.941     3754.054     3681.686     85.78101      171.357     342.9532      1.466     3.38     1056.072     60.51128     410.7745        17     1.119     0.931  30.99   0
        62    775.8741    935.8718 307.5905171  +6.2953967     7329.188     10308.32     11239.73     86.32565      171.835     343.3288      1.508     3.35     1057.495     60.51128     1130.481        27     1.350     0.962  24.07   0
        63    245.1095    934.8883 307.8109797  +6.2780319     1544.628     2337.649     2048.946     85.91749     172.2436     343.3971      1.581     4.49     1067.677     60.51128     226.6515        17     1.335     0.994  23.47   0
        64    562.8926    935.0604 307.6789986  +6.2886117     820.7607     1275.553     549.6879     85.91749     171.6985     343.3971      1.636     3.76     1062.903     60.51128     147.3667         7     1.013     0.700  14.34   0
        65    209.8375    934.6960 307.8256342  +6.2769270     962.9032     1369.141     1509.103     86.05376      171.562     343.4312      1.514     4.71     1067.637     60.51128     129.7549         8     0.926     0.678  13.43   0
        66    964.0648    930.8637 307.5125248  +6.3037432     8054.725     11001.86     11380.88     86.05376     171.6985     343.3288      1.428     3.16     1050.881     60.51128     1217.775        26     1.295     0.915  24.90   0
        67     70.3439    933.0367 307.8836195  +6.2729247     2757.841     4134.636     4068.597     85.91749     171.6985     343.3288      1.541     3.15     1068.353     60.51128     471.8982        20     1.213     0.948  23.70   0
        68    646.5151    925.5597 307.6445885  +6.2953318     864.1958     1050.095     202.8926     86.05376     171.6303     343.2606      1.356     3.58     1060.463     60.51128      145.014         7     0.878     0.647 -22.06   0
        69    937.8741    922.5594 307.5236807  +6.3062989     2717.562     3649.513     3649.946     85.91749     171.6985     343.3288      1.407     3.23     1051.645     60.51128     412.5228        18     1.215     0.838  20.32   0
        70    797.3558    919.1406 307.5821566  +6.3030222     1493.168     1914.141     2144.056     85.91749     171.6303     343.3971      1.351     3.79     1056.475     60.51128     268.0548        11     1.170     0.658  26.27   0
        71    658.4908    918.5566 307.6398500  +6.2986237     5102.816     7034.143     6594.768     86.05376     171.6303     343.3971      1.528     3.32     1059.933     60.51128     685.3621        23     1.284     0.967  13.66   0
        72    270.8295    918.7267 307.8008434  +6.2855680      4762.29     6891.651     7286.588     85.91749     171.6985     343.2606      1.597     3.55     1067.542     60.51128     588.7914        24     1.270     0.993  28.01   0
        73   1008.2278    917.9138 307.4946161  +6.3105620     852.9445     1330.684      1494.96     86.18981      171.357      343.124      1.587     4.07     1048.641     60.51128     143.6643         9     1.067     0.961  80.46   0
        74    480.7522    916.9337 307.7137221  +6.2933462     1158.388     1844.497     1478.269     85.91749     171.6303     343.2947      1.576     3.97     1064.311     60.51128     176.7804        10     1.163     0.590  15.28   0
        75     39.4575    916.3951 307.8970083  +6.2787569     2389.483     3466.336       3235.1     85.37024      171.562     342.9874      1.611     3.50     1069.139     60.51128     363.4618        19     1.254     0.923  11.84   0
        76    890.1159    915.1146 307.5437657  +6.3077802     913.8055     1094.447     837.0244     85.78101      171.835     343.3629      1.291     3.88     1052.968     60.51128     188.3931         9     0.987     0.786  52.72   0
        77    982.3129    912.6153 307.5055569  +6.3118862     730.3809      1049.58     1224.503      85.6443     171.4254     343.1923      1.471     4.04     1049.508     60.51128     138.9822         7     1.016     0.459  10.32   0
        78    961.8382    912.2523 307.5140729  +6.3113537     922.2708     1237.353     1438.991     85.78101     171.7668     343.2947      1.543     4.53     1050.275     60.51128      145.129         8     0.994     0.586   7.00   0
        79   1014.8097    910.4510 307.4921322  +6.3138627     950.1646     2128.123     2403.643     85.50738      171.562     342.9874      2.412     7.99     1048.076     60.51128     134.4376        15     1.723     1.036 -44.78  16
        80    583.1881    910.9680 307.6713797  +6.2992385     1784.867     2612.073     1932.814     85.50738     171.4254     343.1923      1.495     3.74     1061.574     60.51128     254.6772        15     1.227     0.767  18.32   0
        81     72.2211    908.2941 307.8836759  +6.2832035     747.0479     1023.569     1190.909     85.91749     171.4937      343.124      1.686     5.47     1068.162     60.51128     117.6368         9     1.218     0.692  21.56   0
        82    622.4837    907.5552 307.6551741  +6.3019621     1345.748     1805.494     1818.834     86.05376     171.6985     343.2947      1.473     3.50     1060.602     60.51128     201.8754        13     1.156     0.751  12.85   0
        83    302.1536    904.9936 307.7882976  +6.2922893     1553.746     2326.898     2970.713     85.50738     171.4937      342.919      1.609     4.35     1067.325     60.51128     208.2769        14     1.186     0.833  19.95   0
        84    570.1380    903.5801 307.6770480  +6.3018522     560.6804     901.6031     1040.133      85.6443     171.6985     343.1923      1.534     3.94     1061.563     60.51128     95.17786         5     0.902     0.493  -2.42   0
        85    769.4062    901.3346 307.5943623  +6.3094410     1000.643     1541.665     1319.931     85.50738     171.4254     343.0898      1.912     3.60     1056.187     60.51128     136.3424         8     1.049     0.523  20.50   0
        86    906.7228    897.7814 307.5374491  +6.3154910     8136.816     11284.64     11224.37     85.50738     171.4254     343.2606      1.450     3.10     1051.825     60.51128     1379.697        27     1.299     0.910  27.15   0
        87    442.6021    895.0131 307.7303042  +6.3011191     2009.691     2992.564     3322.433      85.6443      171.357     343.0557      1.552     3.73     1064.462     60.51128     268.8787        19     1.296     0.927  29.47   0
        88    611.4812    894.7544 307.6601740  +6.3068795     538.0074     772.7479     488.5985     86.05376     171.6985     343.2947      1.650     4.29     1060.598     60.51128     103.2609         6     1.158     0.453  27.00   0
        89    344.3800    893.4070 307.7711512  +6.2984896     10042.86     14884.75      15698.5      85.6443     171.4254     343.0898      1.630     3.36     1066.794     60.51128     1314.338        33     1.386     1.067  26.96   0
        90    264.4638    892.3438 307.8043768  +6.2962474     7366.241     10749.27     11050.07     86.18981     171.6303     343.2947      1.587     3.29     1067.307     60.51128     1002.741        29     1.323     1.067  26.46   0
        91    182.8497    891.1412 307.8383119  +6.2940036     620.7135     663.9702      368.957     86.05376     171.6985     343.3629      1.307     5.13     1067.239     60.51128     80.78027         7     1.025     0.725 -33.29   0
        92    776.9805    886.8742 307.5917017  +6.3156646      778.418     1149.931     1157.941      85.6443     171.6303     343.2264      1.396     4.89     1055.375     60.51128     105.5692         9     0.845     0.801  61.30   0
        93    592.5080    886.9263 307.6683172  +6.3094769     1229.066     1653.231     1564.526     86.05376      171.835     343.3288      1.363     3.77     1060.648     60.51128     198.2045        11     1.110     0.680   1.03   0
        94    922.1907    883.3130 307.5315095  +6.3219809     1202.016     1698.602     1916.857      85.6443      171.357      343.124      1.567     3.93      1050.77     60.51128      230.449        10     1.110     0.942 -62.13   0
        95    226.9296    882.5643 307.8202949  +6.2990252     530.3871     804.3012     1026.107     85.91749     171.6985     343.3288      1.595     3.81     1067.182     60.51128     94.88965         5     1.256     0.332  48.64   0
        96    879.2936    881.7769 307.5493780  +6.3211843     789.3138     1204.731     1407.277     86.05376     171.4937      343.124      1.758     4.67     1052.259     60.51128     124.1654         8     1.056     0.585  33.26   0
        97    990.0341    878.7561 307.5034837  +6.3261241     848.4371     943.3422     950.4903     85.78101     171.6985     343.1581      1.309     4.33     1047.967     60.51128     125.3235         7     0.776     0.687  39.91   0
        98    758.9636    876.0752 307.5995472  +6.3195217      1796.89     2591.018     2650.946     85.91749     171.7668     343.3288      1.505     3.50     1055.487     60.51128     273.4935        14     1.183     0.743  23.47   0
        99    582.6105    876.7867 307.6727688  +6.3133324     751.7292     977.5612     677.3446     85.78101     171.4254     343.2264      1.445     4.35     1060.426     60.51128     121.0475         6     0.928     0.581 -20.90   0
       100    623.2520    872.7758 307.6560239  +6.3163480     793.8934     1066.728     628.7098     85.50738     171.6985     343.1923      1.518     4.38     1059.595     60.51128     115.4426         7     0.884     0.618  48.31   0
       101      9.3796    873.2166 307.9109590  +6.2955724     972.4538     1320.464     1139.619     85.78101     171.4937     343.1923      1.621     3.72     1070.174     60.51128      148.691        10     1.070     0.664  19.36   0
       102    990.3300    871.7701 307.5035948  +6.3290185     1457.323      1949.71     1940.053     85.91749     171.6985     343.2264      1.395     3.40     1047.716     60.51128     260.1953        11     1.102     0.614  33.83   0
       103    544.3743    871.7880 307.6888175  +6.3141167     1256.931     1922.019     1862.007      85.6443     171.4937     343.2264      1.648     4.76     1060.545     60.51128     178.7935        13     1.228     0.808  21.47   0
       104    677.4139    869.2322 307.6336476  +6.3196222     2745.151     3974.662     4600.802      85.6443     171.4254     343.2264      1.578     3.40     1057.481     60.51128     427.2351        21     1.294     0.896  19.62   0
       105    967.6557    867.4001 307.5131589  +6.3300671     724.2258     1122.325     532.2393     85.23288     171.2886     342.9191      1.376     4.17     1048.399     60.51128     145.8539         5     1.270     0.391  14.17   0
       106     74.0649    865.6695 307.8843505  +6.3008642     2948.922     4273.241     4059.369     86.05376     171.7668     343.2947      1.522     3.38     1067.765     60.51128     419.9584        20     1.198     0.962  25.31   0
       107    838.3586    865.7147 307.5669187  +6.3264505     820.6115     1264.637     1629.986     86.05376     171.6303     343.2606      1.592     4.65     1052.801     60.51128     111.2936         8     0.964     0.636   7.51   0
       108     91.4258    864.8297 307.8771689  +6.3017947     2204.631     3445.388     3604.271     85.50738     171.4937      343.124      1.680     4.03     1067.114     60.51128     289.2131        21     1.391     0.941  14.72   0
       109    956.0003    864.6832 307.5180910  +6.3308004     953.4551     1565.285     812.3101     85.23287     171.1517     342.9191      1.699     5.85     1048.797     60.51128      128.729        12     1.197     0.837   3.59   0
       110    217.5739    864.4252 307.8247924  +6.3062003     2341.151     3361.007     3940.187     85.50738     171.4937     343.1923      1.627     3.93     1067.025     60.51128     301.7566        20     1.375     0.868  13.46   0
       111    357.0103    861.0281 307.7669968  +6.3122820     962.8453     1439.734     1906.882      85.6443     171.4937     343.1581      1.531     4.25     1066.154     60.51128     141.5892         9     0.935     0.763  73.27   0
       112    251.8542    861.0515 307.8106692  +6.3087442     780.4621     1208.715     1100.562     86.18981     171.6303     343.3288      1.478     4.61     1067.061     60.51128     122.2168        10     1.160     0.718   1.32   0
       113    809.4353    859.3876 307.5791441  +6.3280974     1096.859     1292.394     1191.807     85.50738     171.4937     343.0898      1.354     3.44     1053.088     60.51128     156.7418        11     1.034     0.744  19.94   0
       114    672.0892    858.4085 307.6362228  +6.3239133     7184.378     10495.02     11342.79     85.50738      171.357     342.9874      1.548     3.23     1057.214     60.51128     964.2323        31     1.374     1.039  19.27   0
       115    909.7390    854.7595 307.5376382  +6.3333554     3121.978     4532.493     4671.202     86.05376     171.6985     343.3971      1.537     3.31     1050.174     60.51128     509.0245        21     1.307     0.928  26.94   0
       116     32.2402    856.6907 307.9020238  +6.3031646     1317.249     2116.846     2115.916     86.05376     171.6303     343.3288      1.655     3.78     1068.995     60.51128     183.6353        12     1.129     0.735  23.70   0
       117     45.4616    855.0570 307.8965881  +6.3042839     1060.547     1360.843     1065.437     86.18981     171.6303     343.3288      1.493     4.35     1068.478     60.51128     147.9233        10     1.054     0.660  30.06   0
       118    355.1111    851.6544 307.7681014  +6.3160886     16193.73     24810.49     26378.92     86.05376      171.562     343.4312      1.648     3.43     1065.951     60.51128     2043.582        43     1.473     1.152  25.76   0
       119     89.8005    852.7578 307.8782517  +6.3067243     1283.096     1671.709     1930.849     85.37024      171.357     342.8849      1.438     3.98     1066.957     60.51128     183.4626        13     1.098     0.839  17.68   0
       120    226.3532    851.1392 307.8215945  +6.3119807     1328.145     1842.706     1974.126     85.91749     171.6303      343.363      1.556     5.46     1067.024     60.51128     178.0868        13     1.131     0.877  12.45   0
       121    405.8060    850.3155 307.7470916  +6.3183411      596.743     818.7059     870.8872     85.50738      171.357     343.0898      1.471     4.45     1064.424     60.51128      110.408         6     1.306     0.431   8.10   0
       122    432.8516    842.6147 307.7361181  +6.3224271     1088.637       1546.1      1628.92     85.37024     171.6985     343.0215      1.562     5.93     1063.581     60.51128     123.6002        12     1.198     0.826   5.59   0
       123    118.4813    842.0396 307.8667024  +6.3121138     1675.802      2841.88     2735.766     86.05376     171.7668     343.2264      1.795     4.73     1066.712     60.51128     227.3615        23     1.482     1.078  36.96   0
       124    686.4998    838.2787 307.6309136  +6.3327065     869.5389      1189.07     1442.583     85.78101     171.9713     343.3288      1.656     4.40     1056.155     60.51128     174.3571         8     1.219     0.482  18.63   0
       125    900.0652    836.4316 307.5422705  +6.3406004      2251.57     2876.933     2777.109     85.78101     171.7668     343.2264      1.332     3.26     1049.822     60.51128     300.5797        15     1.162     0.781  24.39   0
       126    870.9166    835.9188 307.5543948  +6.3398397     2244.791     2884.183     3332.775     85.78101     171.9713     343.3629      1.386     3.74     1050.926     60.51128     349.9772        15     1.229     0.743  26.00   0
       127    834.2357    835.3975 307.5696479  +6.3388308     3367.432     4926.917     5376.175     85.09529     171.4937     343.0898      1.582     3.34     1051.676     60.51128     447.3046        20     1.196     0.935  22.88   0
       128    102.0527    835.8250 307.8737353  +6.3141274     2669.658     4216.514     5127.935     85.50738     171.6985     343.1923      1.659     3.47     1066.547     60.51128     346.6053        20     1.280     0.936  29.56   0
       129    349.9413    833.6546 307.7708551  +6.3233471     785.6053      972.893     1497.786     86.18981     171.6303     343.2947      1.312     4.42     1065.562     60.51128     116.6759         8     1.005     0.623   9.81   0
       130    570.1387    826.8102 307.6796292  +6.3335500     333522.8     509645.8     530883.9     85.37024      171.562     343.0215      1.617     3.35     1058.752     60.51128     42587.85       143     1.578     1.318  22.03   0
       131    414.4875    829.4944 307.7441871  +6.3272288     7763.941     11595.34     11808.74     86.05376     172.1756      343.363      1.655     3.39     1063.598     60.51128     1028.212        32     1.378     1.117  23.62   0
       132    658.0640    830.1134 307.6429986  +6.3351273     1221.411     1990.722     1824.521     86.05376      171.835     343.3288      1.689     5.11     1056.594     60.51128     174.5173        15     1.321     0.938  22.28   0
       133    357.6612    827.8123 307.7678457  +6.3260182     12287.73     19163.11     20433.06     85.50738     171.4937     342.9874      1.673     3.41     1065.171     60.51128     1536.087        41     1.463     1.176  26.67   0
       134    675.9869    824.2112 307.6357527  +6.3381635     3685.821     5164.906     5107.351     85.78101     171.4254     343.2264      1.497     3.44     1055.913     60.51128     519.4552        20     1.162     0.987  13.63   0
       135    908.2633    822.9644 307.5393167  +6.3464344     5762.866     8182.917     9430.132     85.91749     171.6985     343.2947      1.544     3.47     1049.017     60.51128     888.9214        29     1.609     0.946  14.20   0
       136    747.4314    820.6066 307.6061989  +6.3420394     848.6705     915.2574     1163.512     85.37024     171.4937     343.0557      1.232     2.78     1053.846     60.51128      184.569         6     0.939     0.630 -55.39   0
       137    650.7592    818.1181 307.6464358  +6.3398358     3468.924     5094.554     5591.748     86.05376     171.6985     343.2264      1.591     3.33     1056.262     60.51128      493.358        26     1.481     0.974  13.49   0
       138    839.4325    817.1350 307.5681019  +6.3465449     1685.744     2449.115     2447.552     85.91749     171.6985     343.2606      1.558     3.35     1050.893     60.51128     224.7485        14     1.048     0.862  24.28   0
       139    641.2518    816.9448 307.6504241  +6.3400023     971.5294     1496.166     2669.468     86.05376     171.6985     343.2606      1.793     5.77     1056.435     60.51128     124.3683        11     1.272     0.736  23.64   3
       140    643.8067    812.5708 307.6495099  +6.3418938     2263.674     3615.146     4470.226     85.50738     171.4937     343.0898      1.877     4.55     1056.188     60.51128     269.4618        23     1.449     1.062  16.28   3
       141    193.8258    817.8052 307.8362288  +6.3246513     507.3494     500.7097     270.3299     85.50738     171.4937      343.124      1.261     4.38     1066.966     60.51128     84.13855         6     1.157     0.471  27.38   0
       142    966.7952    816.4581 307.5152226  +6.3510725     853.4783     1175.134     815.5656     85.37024      171.562     342.9874      1.404     5.88     1046.468     60.51128     144.7758        11     1.489     0.687   9.51   0
       143    927.2852    810.7617 307.5318247  +6.3521073     3607.052     5010.031     5818.938     86.05376     171.6985     343.2947      1.500     3.13     1047.817     60.51128     547.2677        20     1.312     0.821  23.02   0
       144    337.8786    811.4733 307.7766128  +6.3321009     998.2374     1389.921      1487.43     86.32565     171.9713     343.3288      1.496     4.87     1065.342     60.51128     178.0172         9     0.951     0.706  53.45   0
       145    385.5766    806.7292 307.7569618  +6.3356592     2745.013     4149.758     4342.037      85.6443      171.562     343.2606      1.602     3.50     1063.769     60.51128       327.64        24     1.296     1.041   9.35   0
       146    521.6992    796.5571 307.7007662  +6.3444198     3162.072     4907.748     4318.559     86.05376      171.562     343.5335      1.641     3.56     1059.565     60.51128      419.188        24     1.425     0.941  21.50   0
       147    866.2147    795.5196 307.5577023  +6.3563636     1060.327     1214.454     1587.401      85.6443     171.4254      343.124      1.341     4.18     1049.569     60.51128     172.1832         9     0.921     0.739  -9.46   0
       148    586.7606    794.1917 307.6738221  +6.3475742     757.2084     1117.894       1197.9     85.37024     171.4937     343.0215      1.691     3.65     1056.719     60.51128     109.4653         5     1.168     0.329  11.12   0
       149    568.5927    792.5959 307.6814220  +6.3476251      6031.75       9172.9     10165.21     85.37024      171.357     343.1581      1.663     3.37      1057.37     60.51128     765.7882        32     1.471     1.085  22.79   2
       150    575.6280    791.9313 307.6785222  +6.3481350     1355.275     2150.404     2760.303     85.78101     171.6303     343.1923      1.934     4.48     1057.031     60.51128     175.5487        13     1.230     0.765   8.90   3
       151    280.4338    792.8690 307.8010990  +6.3378549     697.4433        997.9     1416.663     85.91749     171.6985      343.363      1.546     4.37     1066.738     60.51128     103.4144         7     0.864     0.646 -14.52   0
       152    486.3417    791.4442 307.7156240  +6.3453469     1529.819     2235.231     2186.617     85.91749     171.6303     343.3971      1.641     3.33     1060.684     60.51128     209.7694        13     1.027     0.838  13.16   0
       153    249.8463    786.1085 307.8140313  +6.3396195     497.1762     2089.531     4842.996     86.05376     171.6303     343.4312      9.393    13.41     1066.638     60.51128     93.44385        22     3.446     1.453 -73.81   3
       154    904.2338    790.7319 307.5420708  +6.3596089     1471.599     1925.239     1759.969     85.91749     171.7668     343.3971      1.353     4.09       1047.9     60.51128     250.6321        12     1.185     0.675  22.62   0
       155    127.9922    790.5251 307.8644924  +6.3337027     1278.853     1716.473     1221.577      85.6443     171.2202      343.124      1.515     3.99     1066.299     60.51128     175.8462        12     1.061     0.848  12.53   0
       156    704.2836    789.7578 307.6251566  +6.3533350     579.8422     612.2039      773.922     86.05376     171.6985     343.2264      1.124     3.81     1053.679     60.51128      88.6842         5     0.920     0.452 -44.12   0
       157    539.2661    786.4859 307.6938085  +6.3491663     19290.97     29244.58     30176.59     86.05376     171.9032      343.363      1.679     3.50     1058.056     60.51128     2425.835        46     1.481     1.158  20.90   0
       158    380.4310    788.1657 307.7597245  +6.3431513      777.046     1195.565     1089.327     85.50738     171.4254     343.0557      1.673     4.61     1063.303     60.51128     112.0311         8     1.072     0.746  -5.15   0
       159    952.8514    784.7071 307.5220782  +6.3637178     4278.404     6097.943      6627.27     85.91749      171.562     343.4994      1.526     3.07     1045.931     60.51128     697.0125        26     1.452     0.870  27.55   0
       160    186.0300    786.4617 307.8405246  +6.3373306     619.1452     884.1125     865.0479     85.78101     171.6985     343.2264      1.414     3.76     1066.652     60.51128     99.85327         6     0.822     0.494  -5.66   0
       161    246.8726    779.7509 307.8154809  +6.3421447      541.785      1287.18     3565.312     86.05376     171.7668     343.3288      5.164     4.81     1066.509     60.51128     98.61951         5     1.177     0.644  18.47   1
       162     49.6185    777.1066 307.8974966  +6.3366076     1524.416     2280.006     2317.423     85.91749     171.4254     343.1923      1.568     4.31     1065.901     60.51128     225.9474        15     1.278     0.866  22.11   0
       163    331.9517    775.2528 307.7802954  +6.3468570      3004.88      4962.72     5280.807     86.18981     171.6303     343.2947      1.698     3.99     1064.463     60.51128     387.3907        28     1.458     1.085  22.28   0
       164    797.3819    771.0287 307.5871152  +6.3641783     57867.21     83909.77     86886.72      85.6443     171.4937     343.2264      1.550     3.21     1049.934     60.51128       8238.5        67     1.483     1.149  22.27   0
       165     32.0092    773.5631 307.9049300  +6.3374782     2226.483     3580.841     3419.809     85.50738     171.4254     343.0215      1.681     4.00     1065.875     60.51128     291.0673        23     1.401     1.018  34.75   0
       166    736.1097    772.5988 307.6125133  +6.3614835     803.8589     1170.623     1993.271     85.23288     171.2202     342.9874      2.474     4.93     1051.433     60.51128     98.84033         8     1.199     0.573  34.49   0
       167    254.5923    768.8968 307.8126407  +6.3468853     4746.533     8270.118     10477.15     85.78101     171.2886     343.0557      2.038     3.92     1066.157     60.51128     614.0189        38     1.543     1.315  31.61   0
       168    441.2894    769.9710 307.7350596  +6.3527036     815.9479     1326.788     1023.944     86.18981     171.4254     343.1923      1.644     4.24      1060.76     60.51128     109.4497         7     0.762     0.672  61.49   0
       169    922.7047    766.2360 307.5352194  +6.3703393     9495.769     13100.57     13959.82     86.18981      171.562     343.4312      1.491     3.18     1046.202     60.51128     1434.057        31     1.307     0.983  17.18   0
       170    725.6684    765.5869 307.6170858  +6.3640297     22215.17     33591.47     35580.66     85.50738      171.562     343.1581      1.637     3.40     1051.312     60.51128     2940.199        43     1.438     1.129  24.32   3
       171    719.3545    762.1562 307.6198236  +6.3652353     90396.51     133867.9     139561.9     86.05376     171.6985     343.2264      1.608     3.33     1051.319     60.51128     11953.46        76     1.501     1.206  22.52   3
       172    364.2963    763.0946 307.7672708  +6.3529618     19828.69      31540.7     33339.75     86.05376     172.3116     343.1581      1.727     3.49     1062.953     60.51128     2454.479        50     1.511     1.262  18.81   0
       173    413.5992    763.2084 307.7467887  +6.3545678      1410.85     2214.001      2372.28     85.37024      171.357     343.0557      1.640     4.33     1061.261     60.51128     163.3253        17     1.326     0.884  22.74   0
       174    652.5554    762.5332 307.6475575  +6.3628466     801.9716     1080.338      1758.51     86.05376     171.6303     343.3288      1.571     4.41     1053.591     60.51128     134.3525         8     1.016     0.713  34.51   0
       175    426.1477    760.8969 307.7416545  +6.3559428     21038.28     33680.59     35355.62     85.91749     171.6985     343.5677      1.696     3.58     1060.795     60.51128     2583.869        53     1.542     1.229  20.84   0
       176    254.1641    747.5076 307.8135402  +6.3557021     776704.1      1905225      2093447     86.18981      171.562     343.3288      2.352     5.53     1065.612     60.51128     62598.71       506     2.274     2.039  43.12   4
       177    963.2684    759.7728 307.5185865  +6.3743605     2285.579      3249.32     3153.338      85.6443      171.562     343.1923      1.480     3.27     1044.902     60.51128     318.7893        18     1.208     0.850  13.38   0
       178    919.5850    757.6467 307.5368032  +6.3737818     7500.051     10459.46     10580.13     85.37024     171.4937     343.0215      1.471     3.22     1045.982     60.51128     1168.727        29     1.302     0.994  22.97   0
       179    892.5377    758.9299 307.5479952  +6.3723498     980.4622     1219.907     1164.748     86.05376     171.6985      343.363      1.322     3.97     1046.887     60.51128     147.7058        10     1.013     0.675 -31.61   0
       180    660.1946    756.7816 307.6445776  +6.3654769     6217.194     9499.873     9850.936      85.6443     171.2886     343.0898      1.604     3.37     1053.178     60.51128     784.7418        29     1.390     1.034  18.40   0
       181    448.9406    754.5338 307.7324015  +6.3593338     1756.366     2606.553      2330.71     86.18981     171.6303     343.2947      1.639     4.00     1059.765     60.51128     215.5144        18     1.206     0.980  27.52   0
       182    174.5601    754.1236 307.8463803  +6.3502970     763.0964     1021.406     685.7642     85.91749     171.6985      343.363      1.374     4.53     1065.996     60.51128     111.4822         8     1.053     0.572  35.90   0
       183    887.8183    748.5936 307.5503021  +6.3764602     860.8641     1385.173     1598.094      85.6443      171.357      343.124      1.693     5.53     1046.594     60.51128     134.6926        11     1.276     0.676  15.38   0
       184    613.3629    748.9343 307.6642941  +6.3671507     806.3641     1219.287     1476.015     85.91749     171.6303      343.363      1.592     4.32     1053.529     60.51128     113.6385         7     0.850     0.629  69.25   0
       185    164.7133    747.7223 307.8506862  +6.3526092     923.6719     1562.018     1253.899     86.05376     172.0394     343.3971      1.659     6.61     1065.825     60.51128     129.1733        13     1.303     0.974  46.64   0
       186    139.7310    747.4521 307.8610716  +6.3518812     1086.747     1811.038      1075.99     85.91749      171.562     343.2264      1.672     4.92     1065.659     60.51128     134.1481        12     1.101     0.868  49.14   0
       187    695.1287    746.7360 307.6304044  +6.3707926     2385.923     3811.524     3983.739     86.05376     171.6985     343.3288      1.688     3.73     1051.431     60.51128     322.6584        19     1.314     0.863   8.30   0
       188    429.0702    743.5668 307.7410242  +6.3631961      51168.2     81768.27     86187.44     85.91749     171.6985     343.3288      1.742     3.58     1059.939     60.51128     6456.354        73     1.587     1.324  21.36   0
       189    972.0135    745.0911 307.5154457  +6.3807141     827.1529     1144.192     899.9923     85.78101     171.4254     343.0557      1.535     3.89     1044.298     60.51128     133.6316         7     0.888     0.546  49.63   0
       190    546.7911    742.5884 307.6921596  +6.3675431      6835.83     10897.79     10963.61      85.6443     171.4937     343.2264      1.690     3.60     1054.555     60.51128     841.8848        36     1.470     1.150  12.14   0
       191    463.7007    741.2068 307.7267194  +6.3653310      4240.53     6766.006     7876.518     85.78101     171.2886     343.0557      1.729     3.66     1058.485     60.51128     547.7175        31     1.521     1.131  16.98   0
       192    791.9890    739.1624 307.5904246  +6.3771558     11839.43     17955.03      18228.7     85.50738     171.4937     342.9532      1.569     3.31     1048.745     60.51128     1760.509        39     1.442     1.094  25.59   0
       193    460.4633    734.6735 307.7282840  +6.3679201     2064.436     3372.298      3720.78     86.32565     171.6985     343.2947      1.845     3.80     1058.318     60.51128     295.7645        22     1.316     1.030  22.50   0
       194     21.6112    735.3978 307.9105391  +6.3528858     1083.723     1890.966      2474.28      85.6443      171.357     343.0557      1.934     5.67     1064.888     60.51128     135.3763        12     1.249     0.789  28.31   0
       195    813.8441    733.5811 307.5815336  +6.3801901      1376.95     2004.407     1660.241     85.50738      171.562     343.0557      1.575     3.52     1048.115     60.51128     187.7241        11     1.045     0.729  22.46   0
       196    149.8250    731.2408 307.8574266  +6.3589137     10867.66     17941.83      20103.4      85.6443      171.562     343.0557      1.777     3.88     1065.274     60.51128     1327.248        41     1.532     1.218  27.44   3
       197    142.2827    728.7426 307.8606437  +6.3596917     2641.362      4617.64     5626.296     86.05376     171.6985      343.363      1.870     4.42      1065.18     60.51128     361.7869        25     1.603     0.998  18.98   3
       198    981.7964    732.9130 307.5117899  +6.3860685     644.0571     893.4688     931.1793     85.50738     171.2886     343.0215      1.339     3.78     1043.754     60.51128     115.7496         5     0.805     0.510 -41.26   0
       199    157.9092    731.4158 307.8540630  +6.3591131     2760.491     4450.201     5074.845     85.78101     171.4937     343.1581      1.795     4.18     1065.291     60.51128     311.9606        25     1.490     1.015  24.86   0
       200    937.4460    727.6497 307.5303892  +6.3867632     7187.029     9858.033     10296.81     86.05376      171.562     343.3288      1.482     3.05       1044.3     60.51128     1143.129        28     1.270     0.990  22.00   0
       201    986.6541    727.6812 307.5099473  +6.3883907     1753.724     2475.123     3486.936     86.05376     171.6985      343.363      1.617     3.57     1043.469     60.51128     267.5001        13     1.123     0.737  29.57   0
       202    579.9560    724.6927 307.6789856  +6.3760422     2075.753     3381.976     3117.388     86.05376     171.6303     343.4312      1.695     4.47     1053.119     60.51128     254.8246        22     1.555     0.916  36.00   0
       203    692.9985    725.2619 307.6320106  +6.3795879     1778.885      2760.89     3587.502     85.37024     171.4937     342.9874      1.693     4.08     1050.406     60.51128     229.6759        17     1.261     0.905  21.03   0
       204    428.0094    724.5837 307.7421042  +6.3709985      1090.96     1830.776     1961.065     85.78101     171.4254     343.1923      1.869     6.31     1059.147     60.51128     130.3623        15     1.215     1.054  25.45   0
       205    711.3585    722.6560 307.6244716  +6.3812776     644.6859     977.1413     1089.961     85.91749     171.6303     343.3288      1.748     3.48      1049.54     60.51128     115.2594         5     1.005     0.347  69.48   0
       206    141.9416    722.2102 307.8610060  +6.3623773     1997.652     3075.275      3686.16     85.37024      171.562     342.9874      1.767     3.99     1064.907     60.51128     300.7319        20     1.331     0.982  28.50   0
       207    961.2799    719.2042 307.5207716  +6.3910450     3320.899     4802.872     4973.172      85.6443     171.1517     343.0215      1.506     3.36     1043.501     60.51128     477.5992        22     1.261     0.953  28.69   0
       208    991.9836    718.8167 307.5080303  +6.3922285     2181.454     2996.176     2551.141     85.78101      171.357     343.2264      1.447     3.89     1043.038     60.51128     315.8135        18     1.283     0.872  34.50   0
       209    931.6763    719.6468 307.5330541  +6.3898753     3296.071     4577.877     5098.592     85.91749     171.7668     343.2947      1.537     3.31     1043.984     60.51128     481.7964        19     1.240     0.859  28.12   0
       210    684.1079    718.9876 307.6359144  +6.3818814     1369.512     2084.816     2145.163     85.78101     171.4254     343.0557      1.501     4.21     1050.505     60.51128     224.0692        15     1.263     0.868   5.30   0
       211    831.4359    717.1803 307.5747763  +6.3875492     1012.613     1445.236     1476.165     85.50738     171.4937     343.0557      1.417     3.14     1046.788     60.51128      157.454         8     0.930     0.645  32.21   0
       212    906.6023    714.7346 307.5436345  +6.3910672     791.4329     1076.032      1659.01     85.37024     171.4254     343.0557      1.572     4.57     1044.433     60.51128     141.9935         7     1.000     0.636   3.60   0
       213    256.7332    713.9180 307.8136063  +6.3696570     1644.545     2711.531     3902.416     86.18981     171.9713      343.363      2.041     4.78     1063.819     60.51128     200.2621        16     1.197     0.960  28.68   0
       214    949.3777    709.4231 307.5260435  +6.3946869     1124.871      1468.67     1221.201     85.78101     171.4937     343.2606      1.535     5.15     1043.214     60.51128     129.7454        10     0.990     0.758  32.21   0
       215    976.1447    707.1028 307.5150022  +6.3965372     2788.331      3900.75     4083.126     85.91749     171.6985     343.4994      1.457     2.96     1042.778     60.51128     471.8031        18     1.272     0.808  30.62   0
       216    923.1991    708.1261 307.5369616  +6.3943494     1245.148     1810.686     1623.908     85.23287     171.0833      343.124      1.502     4.51     1043.606     60.51128     172.4612        14     1.253     0.760  21.79   0
       217    695.3984    706.1320 307.6316563  +6.3875668      896.222     1527.468     2068.869     85.50738     171.2202     343.0898      1.578     5.08     1049.485     60.51128     164.5342        10     1.292     0.566  16.45   0
       218    416.7139    701.5567 307.7475717  +6.3801275     594.9749     1103.366     1367.943     86.05376      171.562     343.2947      2.137     4.59     1058.661     60.51128     77.76611         6     1.212     0.494  46.50   0
       219   1017.8853    700.3062 307.4978905  +6.4007346     1937.928     2431.412     2191.565     85.91749     172.1756     336.0158      1.383     3.48     1042.011     60.51128     271.9369        14     1.176     0.742  33.76  16
       220    818.9092    699.0182 307.5805892  +6.3946301     1167.908     1733.285     2028.984     85.78101     171.4254     343.1581      1.627     4.05     1046.278     60.51128     151.6215        14     1.109     0.923  17.98   0
       221    643.8189    700.3077 307.6532777  +6.3882471     658.8478      1133.26     1531.635     85.91749     171.4254     343.1581      1.721     3.95     1050.638     60.51128     116.7401         6     1.040     0.671  -7.97   0
       222    905.4780    696.2784 307.5447202  +6.3986503     1701.691     2341.996     2460.998     86.32565     171.9713     343.3971      1.492     3.17     1043.564     60.51128     232.5583        12     1.017     0.749  39.10   0
       223    879.7496    691.3030 307.5555747  +6.3998463     844.0733     1187.651     1935.009     85.91749     171.6303     343.4653      1.321     4.57     1044.105     60.51128     132.3845         7     1.112     0.533  28.10   0
       224    665.7900    690.5867 307.6444778  +6.3929956     595.3186     863.3159     998.9169      85.6443      171.357     343.2264      1.998     4.16     1049.586     60.51128     85.10474         7     1.045     0.474  -8.32   0
       225    862.2473    687.5544 307.5629710  +6.4008101     1710.943     2314.635     2029.784     86.05376      171.562     343.3288      1.419     3.29     1044.523     60.51128     279.6565        13     1.061     0.791  31.64   0
       226     61.5179    686.7443 307.8956089  +6.3743163     2545.045      3870.78      4021.81     86.05376     171.6985     343.3288      1.695     3.52     1064.639     60.51128      294.947        20     1.181     1.051  50.04   0
       227    124.9804    683.6675 307.8693530  +6.3777207     696.9249     1481.756     1301.628      85.6443     171.6985     343.1923      2.163     4.20     1063.726     60.51128     119.3065         6     1.107     0.454  29.67   2
       228    674.0101    675.0149 307.6415864  +6.3996999     6026.088     9307.776     9608.112     85.78101     171.4254     343.2264      1.638     3.27     1048.478     60.51128     798.4343        31     1.407     1.128  30.61   0
       229    620.9639    674.5925 307.6636360  +6.3981003     1379.068     2189.529     2782.951     85.37024     171.4937     343.0215      1.968     4.27     1050.167     60.51128     185.1213        16     1.186     0.974  28.92   0
       230    542.7302    674.9117 307.6961233  +6.3953504     747.6322     1176.884     1648.105     86.05376     171.9713     343.2947      1.988     5.47     1052.608     60.51128     97.19714         9     1.022     0.824   7.45   0
       231    531.8868    674.7697 307.7006323  +6.3950460     860.1339     1156.204     1240.323     86.18981     171.4254     343.1923      1.394     4.16       1052.9     60.51128     140.4294         6     0.949     0.526  68.79   0
       232    137.2811    671.0697 307.8646693  +6.3833355     3497.524     5678.395     5463.549     86.32565     171.9713     343.3288      1.704     3.61     1063.061     60.51128      445.953        29     1.335     1.205  22.03   0
       233    648.0761    670.8373 307.6524998  +6.4005576     1916.139     2946.198     2556.394     85.91749     171.7668     343.3288      1.584     4.39     1049.109     60.51128     240.9247        18     1.400     0.831  25.71   0
       234   1011.1062    670.2059 307.5017146  +6.4129373     3000.573     4051.382     3570.232      85.6443      171.357     343.0898      1.411     3.28     1041.026     60.51128     442.3293        16     1.161     0.829  27.25   0
       235    324.0170    670.9402 307.7871080  +6.3896600     707.4087     1044.966     1014.193      85.6443     171.6303     343.0215      1.606     4.42     1060.144     60.51128     109.1304         5     1.166     0.476  19.75   0
       236    260.0720    670.6450 307.8136795  +6.3876358     651.1432     1084.383     1551.253     85.91749     171.7668     343.2947      2.072     5.77     1061.161     60.51128        86.13         6     1.188     0.789  40.85   0
       237    790.9411    667.1578 307.5932765  +6.4068514     20279.43     30448.38     30640.02     86.05376     171.6985     343.3288      1.588     3.32     1045.579     60.51128     2802.512        44     1.430     1.139  25.14   0
       238    518.9326    667.2227 307.7062674  +6.3977283     742.8553     1281.693     928.6818      85.6443     171.6303     343.2606      1.726     4.52     1052.955     60.51128     130.3165         7     1.068     0.543 -69.29   0
       239    489.8458    667.3632 307.7183452  +6.3966962     1245.566     1923.891     2348.141     85.78101     171.6985     343.1923      1.839     4.57     1053.749     60.51128      183.251        14     1.207     0.909  17.55   0
       240    920.8696    666.8347 307.5393134  +6.4113210     3823.645     5465.341     5826.704     85.91749     171.6985     343.4312      1.499     3.14     1041.673     60.51128     603.6527        19     1.235     0.844  14.10   0
       241    653.9724    661.2730 307.6503719  +6.4047039     815.0778     1461.698     854.6425     85.78101     171.6303     343.2264      1.832     6.91     1048.438     60.51128     116.6847        11     1.208     1.107  66.77   0
       242    264.6093    660.9054 307.8121234  +6.3918095     5623.618     9351.881     9249.728      85.6443     171.2886     343.0557      1.741     3.76     1060.615     60.51128     651.1405        34     1.493     1.200  21.57   0
       243    671.6133    659.9936 307.6430868  +6.4058220     6609.771     10630.98     10989.76      85.6443     171.4937     343.1581      1.712     3.59     1047.729     60.51128     771.1826        35     1.496     1.143  18.55   0
       244    367.0747    660.2000 307.7695845  +6.3955388     693.3776     931.9974     1308.742     85.23287     171.0148     343.0557      1.513     4.76     1058.393     60.51128     101.6378         5     1.011     0.635  33.54   0
       245    931.4626    652.7734 307.5353841  +6.4174802     1386.264      1996.08     1750.066      85.6443     171.6303     343.2264      1.514     2.95     1040.802     60.51128     224.7908        11     0.929     0.778   0.15   0
       246    743.4207    648.6482 307.6136384  +6.4129066     3790.005     5926.545     6608.157      85.6443     171.6985     343.0898      1.729     3.56     1046.052     60.51128     479.5013        26     1.367     1.063  27.85   0
       247    698.9152    648.8087 307.6321212  +6.4113530     993.7488     1451.496     1857.673      85.6443      171.357      343.124      1.592     4.98      1046.74     60.51128     129.7494        10     1.084     0.728   2.80   0
       248   1009.4960    644.9775 307.5032285  +6.4233005     9638.913     13200.52      13557.4     86.05376     171.4937      343.124      1.471     3.15     1040.039     60.51128     1607.582        29     1.320     0.945  22.59   0
       249    947.8720    645.3605 307.5288158  +6.4210882      2585.99     3659.401     3904.852     85.91749     171.6985      343.363      1.466     3.15     1040.372     60.51128     387.4603        18     1.152     0.857  29.15   0
       250     28.9104    644.9691 307.9105653  +6.3904672     1742.224     3035.602     3546.244     86.18981     171.4937     343.2264      1.837     4.74     1063.966     60.51128      240.233        21     1.398     1.116  24.63   0
       251    548.2673    640.9595 307.6949655  +6.4095544     1802.957     2907.927     3046.223     85.91749     171.6303      343.363      1.724     4.78      1051.04     60.51128     207.5565        20     1.380     1.038  37.52   0
       252     86.9824    639.9533 307.8866133  +6.3944917     23124.22     38587.64     40894.77     85.50738     171.6303     343.0215      1.764     3.72     1063.169     60.51128     2871.943        60     1.657     1.291  28.55   0
       253    516.7479    638.0022 307.7081584  +6.4097200     1257.405     2310.386     2491.229     85.37024      171.357     342.8507      2.027     5.28     1051.978     60.51128     174.2964        14     1.409     0.847  57.85   0
       254    937.9807    636.9852 307.5332056  +6.4242166     1001.039     1000.185      923.792     85.78101     171.4254     343.1923      1.221     4.11     1040.091     60.51128      150.407         7     0.904     0.534  40.72   0
       255    557.4796    634.3490 307.6913611  +6.4125922     887.8995     1616.387      1790.26     86.05376     171.7668     343.2947      1.947     5.96     1050.511     60.51128     118.5383        10     1.181     0.845  63.99   0
       256    732.8992    632.0456 307.6185668  +6.4194102     3454.611     5212.845     5716.834     86.05376      171.562     343.5335      1.617     3.56     1045.418     60.51128     460.9493        22     1.280     1.032  30.63   0
       257    754.9628    630.3447 307.6094582  +6.4208497     4059.452     6262.086     6712.061     86.05376     171.6985     343.3288      1.638     3.23     1044.882     60.51128     608.4961        27     1.343     1.077  30.21   0
       258    247.0408    627.7593 307.8205395  +6.4049050     1543.311     2734.185     2633.912     85.78101     171.6985     343.1581      1.873     5.46     1059.395     60.51128     199.8248        19     1.336     1.160  38.01   0
       259    586.4260    628.1602 307.6795446  +6.4161163     2964.548     5036.327     4674.821      85.6443     171.4937     343.0898      1.803     4.18     1049.551     60.51128     375.6316        26     1.498     1.070  21.06   0
       260    422.3816    628.7815 307.7476690  +6.4103655     1082.483     1928.544     1509.323     85.78101     171.4937     343.2264      1.807     5.59     1055.019     60.51128     138.1548        12     1.124     1.002 -30.69   0
       261    330.6188    627.1025 307.7858438  +6.4079815      1316.97     2120.011     1427.027     85.91749      171.562     343.0215      1.683     4.45     1057.583     60.51128     176.5396        17     1.306     0.937 -21.68   0
       262    993.2416    625.3504 307.5106384  +6.4308629     8650.731     12273.37     12819.39     86.18981     171.6985     343.2606      1.500     3.17     1039.317     60.51128     1226.763        31     1.398     0.950  27.87   0
       263    713.0355    624.0560 307.6270869  +6.4220453     859.0863     1323.886     1432.019     85.91749     171.6985     343.3288      1.848     3.39     1045.276     60.51128     129.3185         7     0.884     0.516  38.97   0
       264    151.7197    618.8575 307.8604354  +6.4053782     21615.53     36505.28     37848.55     86.05376     171.6985     343.2947      1.790     3.81     1061.491     60.51128     2448.926        54     1.581     1.320  31.65   0
       265    105.1208    621.7074 307.8796957  +6.4026350     742.1325     1182.664     1449.032     85.78101     171.9032      343.363      1.997     4.28     1062.411     60.51128     125.4866         7     0.915     0.571  26.41   0
       266    820.1506    619.3489 307.5827468  +6.4275670     1167.105     1686.355      1666.77     86.05376      171.562     343.2264      1.461     4.07     1043.037     60.51128     187.1401        12     1.210     0.768  45.98   0
       267    438.8398    619.7006 307.7411381  +6.4146666     2530.259     4184.978     4282.477     86.05376      171.562     343.5335      1.755     4.31     1054.056     60.51128      294.963        22     1.355     1.075  32.02   0
       268    372.3138    613.6252 307.7689781  +6.4149447     592.9661     1093.461     979.0779     86.18981     171.4937      343.124      1.809     4.12     1056.068     60.51128      86.7522         5     1.014     0.478  -4.99   0
       269    988.0042    608.2982 307.5133855  +6.4377292     7513.354     11239.58     11910.72     85.78101      171.357     342.9532      1.589     3.54      1038.61     60.51128     994.1888        35     1.587     0.973  30.32   0
       270     33.1376    607.5788 307.9100739  +6.4060470     1148.726     1831.941      2211.04      85.6443     171.6985     343.1581      1.886     6.27     1062.607     60.51128     127.2495        15     1.276     0.901  33.73   0
       271    581.6680    603.6110 307.6823469  +6.4260933     43898.51     72115.52     75746.27     85.50738     171.4937      343.124      1.780     3.67     1048.614     60.51128     5272.833        69     1.604     1.315  20.70   0
       272    946.8117    605.5231 307.5305913  +6.4375018     737.3461     1049.651     1242.462      85.6443     171.2886      343.124      1.618     4.18     1038.745     60.51128     117.6597         7     1.057     0.473  46.94   0
       273    224.9737    604.9646 307.8304754  +6.4135755     627.6654     1120.863     902.8169     85.50738     171.4254     343.0557      1.540     3.64     1059.391     60.51128     93.20825         5     0.993     0.385  30.93   0
       274    541.3990    603.4703 307.6990801  +6.4248034      716.765       1034.6     913.5511     85.37024     171.2202     343.0898      1.606     4.97     1049.613     60.51128     94.02966         7     1.398     0.499   0.29   0
       275    189.3604    600.4857 307.8454203  +6.4142284     2620.031     4530.633      4852.23     86.05376     171.6303     343.2947      1.815     4.25     1060.015     60.51128      304.733        24     1.445     1.034  32.60   0
       276    991.7994    599.2804 307.5121109  +6.4415792     641.5005     1006.794     1518.878     85.23288     171.0148     343.0215      1.349     3.41     1037.815     60.51128     116.8933         5     0.952     0.353  44.37   0
       277     82.0729    594.5848 307.8901862  +6.4130581     1090.491     1904.054     1716.823     85.50738     171.4254     343.1923      1.793     4.95     1062.029     60.51128     156.6234        14     1.128     1.066  21.29   0
       278    478.9377    587.4427 307.7255672  +6.4293291     55666.07     94082.27     98908.41     86.05376     171.6303     343.3971      1.842     3.92       1051.6     60.51128     6612.746        74     1.647     1.369  21.47   0
       279     22.6802    589.2087 307.9150390  +6.4132796     1635.046     2941.991     3324.509      85.6443     171.2886      343.124      2.019     4.72     1062.658     60.51128     233.1279        18     1.183     1.151 -52.81   0
       280    664.7395    584.2335 307.6484884  +6.4368732      742.774     994.6952     718.0335     85.78101     171.7668     343.2264      1.655     4.77     1044.428     60.51128     109.7014         9     0.963     0.832  32.39   0
       281    153.7156    582.4819 307.8608351  +6.4204640     1557.661     2214.839     2242.944     85.78101     171.9713      343.363      1.631     6.11     1060.031     60.51128     186.1262        14     1.274     0.823  38.38   0
       282    624.5231    579.1847 307.6653652  +6.4376127     865.5367     1260.925     1448.526      85.6443      171.357      343.124      1.704     5.52     1045.544     60.51128     130.1925         9     1.054     0.816 -66.05   0
       283    433.1187    579.6496 307.7448638  +6.4310114     742.8945     1400.528     1308.094     86.05376     171.7668     343.3288      2.050     3.94     1052.363     60.51128     93.89185         6     1.062     0.418  13.67   0
       284    324.4080    577.0208 307.7901127  +6.4284511     1834.291     3448.951     4181.914     85.50738     171.4254     343.0557      2.126     4.63     1055.237     60.51128     219.7456        21     1.288     1.156  -0.14   0
       285    913.1913    574.7542 307.5455901  +6.4490851     2066.792     1951.573     1626.332     85.50738      171.562     342.9191      0.685     1.15     1038.524     60.51128     1018.498         5     0.719     0.320  69.25   0
       286    476.4230    575.2036 307.7270240  +6.4342983     764.6447     1020.533     869.2006      85.6443      171.357      343.124      1.534     4.44     1051.147     60.51128     130.5397         7     0.899     0.660 -14.82   0
       287    750.9508    570.9933 307.6131179  +6.4452217     5098.393     8012.079     8502.951     85.50738     171.4937     342.8849      1.644     3.48     1042.799     60.51128     630.0166        28     1.396     1.031  15.29   0
       288    881.1557    569.1038 307.5590886  +6.4503493     1548.594     1485.955     1666.988     86.05376     171.6303     343.4653      0.522     0.88       1039.2     60.51128     1045.132         5     0.483     0.289  14.72   0
       289    804.5261    566.2137 307.5910210  +6.4489847     13807.87     21069.28     22087.65     85.50738     171.4254      343.124      1.659     3.46     1040.659     60.51128     1735.411        42     1.486     1.151  19.87   0
       290    546.9696    566.4641 307.6980112  +6.4402695     1050.912     1904.955      2178.26     85.78101     171.7668     343.2264      2.098     6.30     1047.516     60.51128     128.4275        15     1.262     1.113 -85.83   0
       291   1021.9017    566.6800 307.5006970  +6.4560431     1181.352     1613.208     1782.712     85.91749     161.5005     287.9014      1.384     3.71     1033.744     60.51128     192.6245        10     1.003     0.715  40.00  16
       292    628.6045    564.2463 307.6641720  +6.4439172     2617.585     4116.524     4714.865     85.37024     171.4254     342.9532      1.745     3.90     1044.468     60.51128     310.4164        21     1.304     1.003  14.84   0
       293    945.4082    560.3655 307.5326879  +6.4561006     1119.686     1635.458     2137.987     85.50738     171.4937     343.0557      2.090     6.10     1036.844     60.51128     148.6489        13     1.424     0.735  28.23   0
       294    241.0661    558.2036 307.8253689  +6.4334228     1201.136     2087.849     2036.044     85.37024     171.4254     343.0557      1.975     4.60      1056.64     60.51128     162.2571        15     1.184     1.045  30.08   0
       295    387.6315    558.0264 307.7644888  +6.4384144     712.2015     1339.452     1568.436     85.50738     171.4254      343.124      2.184     5.63     1052.715     60.51128     102.1371         8     1.119     0.798  -0.39   0
       296    417.4554    555.9052 307.7521707  +6.4402902     2363.465      2420.89     2163.479     85.91749     171.6985     343.5335      0.892     2.81     1051.563     60.51128     643.9913         7     0.729     0.461  57.40   0
       297    880.5897    549.4844 307.5599818  +6.4584313     2774.083     3950.521     4232.607      85.6443     171.4254      343.124      1.597     3.41     1038.308     60.51128     413.4338        21     1.301     0.901  10.81   0
       298    176.0436    549.5443 307.8526724  +6.4348136     707.3173     1010.469     1161.865     86.05376     171.6985     343.2947      1.657     5.03         1058     60.51128     115.9984         7     1.134     0.630  19.19   0
       299    839.2756    546.9239 307.5772317  +6.4581097     2475.711     3753.677     3466.179     86.32565     171.9713     343.3971      1.619     3.40     1038.998     60.51128     362.0952        22     1.254     1.016  29.91   0
       300    810.1609    542.8203 307.5894652  +6.4588320     2467.614     4028.684     4929.931      85.6443     171.4937     343.0215      1.849     3.75      1039.37     60.51128     323.4037        20     1.237     1.020  -2.74   0
       301    267.4254    541.9526 307.8149672  +6.4410176     6619.365     11472.26      11742.5      85.6443     171.7668     343.1581      1.834     3.94     1055.024     60.51128     735.5985        39     1.534     1.265   8.52   0
       302    819.8820    538.0782 307.5855857  +6.4611146     154651.5     238243.7     249130.2     86.18981     171.9713     343.4312      1.637     3.35     1039.042     60.51128     20858.27       108     1.576     1.315  21.70   0
       303    201.5881    536.4745 307.8425022  +6.4410682     50976.35     88092.54     93343.79     85.50738      171.357     343.0557      1.867     3.92      1056.79     60.51128     5860.592        75     1.684     1.395  26.69   0
       304    125.6256    532.6957 307.8741859  +6.4400754     5349.955     9286.067     9787.771     86.18981     171.4254     343.1581      1.878     4.05     1058.966     60.51128     598.7417        35     1.559     1.209  20.00   0
       305    990.5976    529.6053 307.5149445  +6.4703081     1414.065     1896.426     1601.876     85.37024      171.357     343.0898      1.450     3.73     1032.975     60.51128     216.2722        10     1.177     0.548  42.54   0
       306   1011.6039    528.7315 307.5062464  +6.4713690     814.9381     1107.728     1104.506     85.37024     171.2886     343.0557      1.394     4.33     1031.853     60.51128     119.3451         7     1.016     0.527  27.15   0
       307    239.5752    527.6275 307.8270203  +6.4459970     660.6489     1062.798     822.7736     85.50738     171.4937     343.1581      1.746     6.43      1055.36     60.51128     89.31628         9     1.212     0.957   0.18   0
       308    856.4175    525.3965 307.5708323  +6.4675705     4441.866     6607.555     7359.429      85.6443     171.2202      343.124      1.665     3.41     1037.798     60.51128     587.1797        27     1.366     1.023  24.65   0
       309    375.0018    523.6442 307.7708944  +6.4521868     14316.04     25335.73     26594.75     85.37024     171.2202     342.8849      1.887     4.09     1051.429     60.51128      1716.37        49     1.628     1.314  23.90   0
       310    465.0598    523.3683 307.7334903  +6.4553198     746.0064     1202.052     1272.277     85.78101     171.7668     343.2606      1.779     4.06     1049.008     60.51128     111.2109         6     0.936     0.759  58.96   0
       311    176.8340    522.5916 307.8532544  +6.4459684      1750.34     2716.283     3088.359     85.50738     171.4937      343.124      1.711     4.52     1056.793     60.51128     227.8972        20     1.336     1.060  32.87   0
       312    252.2228    520.2050 307.8220167  +6.4494864     705.2662     1380.496     1395.041      85.6443     171.4254     343.0898      2.257     6.71     1054.492     60.51128     118.6561         8     1.597     0.791  -3.79   0
       313    810.3936    518.6558 307.5901796  +6.4688172     5755.395     8741.868     9543.896     85.50738      171.562     342.9874      1.645     3.44     1038.774     60.51128     687.5198        29     1.374     1.066  31.69   0
       314    541.3185    518.4343 307.7019752  +6.4599113     5771.246     9974.706     10812.01     85.91749     171.6985     343.2947      1.883     4.03     1045.208     60.51128     631.2429        36     1.486     1.269  22.89   0
       315    114.4206    519.7823 307.8792771  +6.4450302      713.601     991.8202     953.8781     85.78101      171.562     343.1923      1.524     4.18     1058.804     60.51128     120.2524         5     0.943     0.529  37.45   0
       316    399.4037    515.1987 307.7610416  +6.4564922     1229.995     2127.706     1711.856     85.37024     171.2202     343.0215      1.777     4.75     1050.468     60.51128     177.0974        16     1.293     1.008  72.16   0
       317    188.3526    511.6721 307.8488381  +6.4508640     5854.905     10289.58     10524.38     86.05376     171.7668     343.2947      1.873     4.08     1056.095     60.51128     662.0502        41     1.569     1.353  36.69   0
       318    586.2399    511.6577 307.6835407  +6.4642131     2012.901     3722.716     4053.151     86.05376     171.7668     343.3288      1.978     4.69     1043.581     60.51128     254.4819        23     1.446     1.080  -5.46   0
       319    869.1732    511.7679 307.5659900  +6.4736234     629.8511      1028.75     957.0601     85.50738     171.4254     343.0898      1.655     4.90     1036.911     60.51128     108.7227         6     1.178     0.576  69.96   0
       320    283.5833    508.0916 307.8093973  +6.4555407     72149.95     128848.9     137473.1     85.78101     171.4937     343.1923      1.904     4.07     1052.396     60.51128      7801.57        89     1.723     1.453  26.20   0
       321     59.9816    510.4046 307.9022090  +6.4470710     4448.411     7725.181     8459.766      85.6443     171.2886     343.0898      1.839     3.98     1060.237     60.51128     513.3429        35     1.570     1.216  27.39   0
       322    827.0420    510.9183 307.5835225  +6.4725679      1465.65     2329.381     2999.337     86.05376     171.6985     343.2264      1.859     4.60     1038.085     60.51128     175.6476        13     1.184     0.758   1.44   0
       323    572.9131    505.5094 307.6892842  +6.4663057     874.6301      1215.91     1387.161     85.78101     172.1756     343.4312      1.584     5.30      1043.69     60.51128     120.7657        10     1.021     0.778  33.97   0
       324    267.4907    503.1343 307.8162500  +6.4570472     1150.589     1933.665      2268.64     85.91749     171.9032     343.2947      1.813     5.78     1052.934     60.51128     148.2166        17     1.468     0.971  36.40   0
       325    983.0933    501.9374 307.5189893  +6.4814821     1815.147     2618.682     2798.471     86.05376     171.6985     343.3629      1.533     3.41     1032.739     60.51128     288.8513        16     1.127     0.910  22.08   0
       326    806.5829    500.4656 307.5923734  +6.4762007     15461.59     23504.87     24935.61     85.50738     171.6303     343.1581      1.680     3.50     1038.399     60.51128       1808.1        45     1.455     1.195  26.00   0
       327    510.2995    498.9137 307.7155191  +6.4669324     34865.79     64454.55     70160.75     86.05376     172.2436      343.363      2.009     4.32     1045.752     60.51128     3762.904        82     1.847     1.449  13.70   0
       328    661.3831    497.2896 307.6528052  +6.4726596      798.077     1430.076     1629.306     85.78101     171.4254     343.1923      1.951     6.06     1041.783     60.51128     116.0233        11     1.606     0.642  27.82   0
       329     58.7077    495.5947 307.9032390  +6.4531428     1100.811     1857.348      1957.44      85.6443      171.357     343.0215      2.021     4.75     1059.702     60.51128       156.55        13     1.181     0.942  70.66   0
       330    222.7513    495.3442 307.8350992  +6.4587611      1629.83      2757.72     3594.259     86.05376     171.6985     343.3971      1.833     4.12     1054.731     60.51128     214.7482        17     1.201     1.006  30.96   0
       331    670.2236    493.8713 307.6492472  +6.4743667     2797.947     4438.926     5193.766      85.6443      171.562     343.2264      1.714     3.57     1041.538     60.51128     334.6582        24     1.255     1.119   2.00   0
       332    732.5359    493.0350 307.6233868  +6.4767950     1118.361     1994.349     2237.674     85.91749     171.6985     343.2947      2.078     5.18     1039.565     60.51128     142.2209        16     1.139     1.075 -11.43   0
       333    680.4186    493.8760 307.6450114  +6.4747056     1306.459     2156.932     2008.042     85.50738     171.4254     343.2264      1.631     4.71     1041.265     60.51128     164.3296        14     1.248     0.835   8.09   0
       334    407.9301    489.5309 307.7583644  +6.4673759     1559.315     2590.465     2206.478     86.05376      171.835     343.2606      1.802     5.38       1049.4     60.51128     181.6534        20     1.431     1.014  30.21   0
       335    339.4749    487.8501 307.7868606  +6.4657739     3334.743     5783.045      5729.25     86.05376     171.7668     343.3288      1.843     4.21     1049.927     60.51128     373.7727        28     1.390     1.221  18.47   0
       336    882.5159    486.7193 307.5612867  +6.4844112     1540.567     2263.224     2512.574     85.91749     171.9713      343.363      1.526     4.17      1035.28     60.51128     225.7543        16     1.234     0.956  59.60   0
       337    519.4362    487.1462 307.7121194  +6.4720971     1777.758     3473.586     3671.204     85.91749     171.6985     343.3288      1.997     5.20     1044.611     60.51128     187.4628        25     1.385     1.258  34.48   0
       338    154.6846    486.5096 307.8636747  +6.4601215     22157.21     38469.11     40481.77     85.78101     172.0394     343.4312      1.863     4.01     1055.732     60.51128     2407.958        53     1.613     1.342  24.69   0
       339    119.9557    484.7134 307.8781628  +6.4596955     2315.663     4079.027     4509.243     86.05376      171.562     343.2947      1.865     4.92     1056.876     60.51128     253.0443        26     1.568     1.105   6.08   0
       340      1.2439    485.0420 307.9274676  +6.4555657     929.8384     1185.725     982.8048     73.41592     135.1123     256.6135      1.067     3.07     1061.648     60.51128     236.4657         7     1.051     0.420  84.70  24
       341    357.2833    483.1227 307.7796216  +6.4683232     938.8036     1572.819     1468.618     86.18981     172.0394     343.3971      1.777     5.93     1049.311     60.51128     124.4955         9     1.115     0.888 -57.16   0
       342    980.1519    481.0031 307.5209129  +6.4900278     5359.535     7731.019     8241.452     85.37024     171.4254     342.8507      1.517     3.13      1032.29     60.51128      797.109        25     1.277     0.958  24.50   0
       343    553.2300    473.7168 307.6985314  +6.4787736     1176.577     2035.411     1793.055     86.05376     171.4937     343.1923      1.864     6.11     1042.477     60.51128     147.1456        15     1.384     0.964  32.31   0
       344     18.9636    470.8502 307.9205866  +6.4620216     21746.11     37470.11     39846.66     85.91749     171.6303     343.1581      1.846     3.94     1060.345     60.51128     2629.959        57     1.636     1.328  30.27   0
       345    451.6409    467.5918 307.7409439  +6.4778996     36004.53     63490.41     66892.86     85.37024     171.4937     342.9874      1.869     4.03     1046.329     60.51128     4072.741        66     1.655     1.399  22.88   0
       346      2.2868    465.2003 307.9277057  +6.4637929     158325.7     222662.3     229003.2     84.26508     150.6913     274.3557      1.562     4.32      1060.77     60.51128     19137.77        65     1.428     1.190  72.76  24
       347    659.6074    467.2476 307.6545529  +6.4850044     10876.58     18142.86     18403.22     85.50738     171.4937     342.8849      1.777     3.85     1040.628     60.51128     1227.704        43     1.526     1.280  20.47   0
       348    299.5830    467.6608 307.8041145  +6.4727710     976.3135     1611.426     1359.751     85.50738     171.6303     343.0898      1.757     5.86     1049.323     60.51128     128.5334        12     1.350     0.878 -26.02   0
       349    216.8375    465.2057 307.8385736  +6.4710060     15817.04     29514.78     31608.67     85.09529     171.4254     343.0215      1.985     4.25     1053.427     60.51128     1865.152        56     1.738     1.361  27.96   0
       350    182.8803    466.3672 307.8526416  +6.4693855     1421.428     2196.019     2075.242     85.91749     171.6303     343.2947      1.656     6.36     1054.258     60.51128     169.5184        15     1.331     0.904  46.71   0
       351    993.3634    465.7379 307.5159353  +6.4967713     1105.417     1844.999     2140.162     86.05376     171.7668     343.2947      1.718     5.50     1031.042     60.51128     147.0529        10     1.214     0.702 -18.06   0
       352    833.7360    465.3666 307.5822700  +6.4915996     1036.897     1413.306     1923.052     85.91749     171.7668     343.2606      1.522     4.92     1036.152     60.51128     152.5723         9     1.088     0.631  39.73   0
       353    581.4321    464.1467 307.6871365  +6.4836691     2413.388     3967.487     4117.573     85.91749     171.7668     343.1923      1.739     4.10     1041.801     60.51128     268.3708        24     1.313     1.163  25.43   0
       354    922.0406    465.3368 307.5455822  +6.4945587     845.3452     1315.837     1400.395     86.05376     171.6303      343.363      1.621     5.15     1033.081     60.51128     128.9247         7     1.130     0.664  -1.39   0
       355    955.2408    461.1673 307.5319278  +6.4973875     4905.392     7093.711       7043.8     85.78101      171.562      343.124      1.515     3.12     1031.938     60.51128     709.4451        26     1.333     0.986  18.49   0
       356    628.3854    459.6045 307.6677816  +6.4871158     5624.484     9503.045     10263.64      85.6443      171.357      343.124      1.827     3.93     1040.985     60.51128     624.6805        39     1.544     1.257  17.54   0
       357    116.1980    459.8869 307.8805630  +6.4698194      868.446     1647.216      1818.98     85.37024     171.2886     342.9874      1.957     5.75     1056.102     60.51128     131.8436        11     1.214     0.835  11.18   0
       358    978.0173    453.3648 307.5227260  +6.5013685     3452.779     4996.583     5124.936     85.50738     171.4937     343.0557      1.559     3.38     1030.732     60.51128     474.7533        22     1.267     0.960  16.53   0
       359    540.6165    450.9500 307.7045382  +6.4877515     6359.623     11363.19     11701.95     85.50738     171.7668     342.9874      1.868     4.09     1041.479     60.51128     671.6013        35     1.500     1.262  24.79   0
       360    386.5805    451.2013 307.7685261  +6.4824858     2152.605     3656.783     3363.689      85.6443     171.2202     342.9874      1.805     4.17     1046.333     60.51128      254.499        23     1.346     1.112  12.57   0
       361    897.1373    446.6858 307.5565546  +6.5014289     3086.193     4866.705     5265.254     86.18981      171.835     343.2947      1.682     3.81     1033.315     60.51128     396.9908        23     1.322     1.050  17.25   0
       362    904.2814    441.0331 307.5537759  +6.5040012     2098.731     3118.302     3033.486     85.91749     171.6303     343.2947      1.542     3.47     1032.978     60.51128     326.9257        20     1.353     0.904  20.58   0
       363    943.8752    440.3689 307.5373473  +6.5055962     1267.141     1728.607     1684.791     85.91749     171.7668     343.2947      1.530     4.93     1031.698     60.51128     190.5985        13     1.234     0.808  13.55   0
       364    728.5414    437.0374 307.6269277  +6.4997827     2751.291     4153.158     4144.625     86.05376     171.7668     343.3288      1.621     3.54     1037.249     60.51128       352.34        23     1.254     1.115   4.17   0
       365    399.5341    435.3569 307.7636785  +6.4894621     3096.267     5556.901     5230.501     86.05376     171.6303     343.3288      1.880     4.54     1044.772     60.51128     324.2899        31     1.469     1.320  13.03   0
       366     90.4061    435.8969 307.8920890  +6.4788569     1594.498     2761.569     2818.467     85.78101      171.357     343.0898      1.908     5.17     1056.174     60.51128     168.4037        18     1.243     1.027  53.16   0
       367    439.3427    435.6650 307.7471290  +6.4906695     793.7574      1198.01      1377.01     86.18981     171.6303     343.3288      1.672     4.96     1043.849     60.51128     93.08923         9     1.032     0.898 -13.01   0
       368    627.1906    431.8590 307.6692111  +6.4985317     8548.054     14525.72     14742.81     85.37024      171.562     342.9874      1.799     3.90     1039.521     60.51128     966.7909        45     1.543     1.284  24.25   0
       369    789.7652    428.4059 307.6017799  +6.5053922      15228.7     24075.98      25009.5     85.23288     171.4254     343.0557      1.685     3.50     1035.903     60.51128     1860.813        43     1.484     1.204  22.43   2
       370    793.6696    423.7041 307.6003156  +6.5074640     1394.316     2165.054     2218.683     85.91749      171.835     343.2947      1.661     4.11      1035.66     60.51128     198.2292        15     1.136     0.956  32.08   3
       371    309.7121    428.6616 307.8012220  +6.4892130      2134.59     3910.067     4489.889     86.05376     171.9032      343.363      2.031     4.45     1046.096     60.51128     279.5399        25     1.323     1.278 -13.52   0
       372    818.3887    425.6824 307.5899786  +6.5074727       1226.4     2126.925     1651.562      85.6443     171.4254      343.124      1.767     5.74     1034.951     60.51128     157.9977        19     1.492     0.982  16.06   0
       373    392.5149    425.6227 307.7669228  +6.4932458     1154.521     2195.909     2419.958     85.91749     171.4254     343.1923      2.056     7.40      1043.97     60.51128     130.9006        18     1.298     1.182  32.22   0
       374    975.1296    423.1812 307.5249374  +6.5137351     2180.821     3248.479      3175.51      85.6443      171.562     343.2264      1.499     3.57     1029.222     60.51128     325.0787        15     1.238     0.753  18.35   0
       375    127.2133    420.3612 307.8773226  +6.4865091     3713.006     6892.822     7527.203     85.50738     171.4937     343.0215      1.951     4.51     1054.371     60.51128     425.0701        35     1.600     1.269  26.74   0
       376    765.4510    419.3241 307.6121872  +6.5083298      2060.85     3328.211     3854.866     86.05376     171.7668     343.2947      1.828     3.74     1035.918     60.51128     266.4651        19     1.156     1.066  16.25   0
       377    284.9787    417.3428 307.8118797  +6.4930562     1160.388     2183.357     2227.189      85.6443     171.6303     343.0898      1.875     6.11     1046.321     60.51128     145.6353        19     1.326     1.188  -0.85   0
       378    363.3711    415.1167 307.7793854  +6.4966061     2688.388     4650.403     4636.062     86.05376     171.4254     343.1581      1.828     4.73     1043.236     60.51128     308.7332        27     1.496     1.177   7.84   0
       379    719.0117    412.7973 307.6317016  +6.5094728      1465.05     2208.733     1647.217      85.6443      171.357      343.124      1.630     4.95     1036.388     60.51128     182.6135        14     1.201     0.816   3.56   0
       380    993.2596    411.5642 307.5177937  +6.5191361       618.93     979.2955     738.3423     86.05376     171.6985     343.2606      1.710     5.13     1027.431     60.51128      96.3053         7     1.044     0.712  41.36   0
       381    560.7678    405.3394 307.6977008  +6.5072584     755.6799      1432.37     1365.628     85.78101     171.7668     343.2264      2.032     4.19     1038.496     60.51128     124.0428         6     1.233     0.673   8.40   0
       382    482.9201    404.4086 307.7300766  +6.5050353     1031.647     1742.646     1629.809      85.6443     171.2886      343.124      1.830     6.09     1039.167     60.51128     141.2471        12     1.181     0.884 -56.38   0
       383    830.9282    402.1546 307.5855582  +6.5176059     1797.653     2854.995     3222.434     85.91749     171.6985     343.2947      1.725     4.46      1033.31     60.51128     227.3837        17     1.214     1.037  20.65   0
       384    845.3172    402.6866 307.5795617  +6.5178666     1449.941     2174.965     2621.529     85.78101     171.9032      343.363      1.733     3.93     1032.894     60.51128     235.7421        13     1.217     0.766  26.01   0
       385    728.2906    400.1324 307.6282718  +6.5150122     13638.58        21862     23282.23     86.18981      171.835     343.2947      1.739     3.63     1035.458     60.51128      1645.24        45     1.497     1.231  22.21   0
       386    649.5695    396.0699 307.6611166  +6.5140574     2332.681     3684.079     4333.504     85.91749     171.6985     343.2606      1.786     4.16     1036.522     60.51128     278.9916        23     1.422     1.026  32.06   2
       387    621.7847    391.2630 307.6728226  +6.5151126     11736.62        25234     31033.91     85.50738      171.562      343.124      2.409     6.44     1036.613     60.51128       1469.8        69     2.481     1.331  31.56   0
       388    953.5245    389.9580 307.5350280  +6.5267326     3782.344     5566.472     5480.599     85.91749     171.6985     343.3288      1.571     3.54     1028.677     60.51128     493.5508        24     1.312     0.984  28.77   0
       389    392.7031    386.0185 307.7681797  +6.5096041     23507.58      42993.2     45252.19     85.91749      171.562     343.0215      1.951     4.20     1040.899     60.51128     2519.194        58     1.676     1.389  20.09   0
       390    138.6790    385.4945 307.8737375  +6.5012903     1873.571     3472.105     3575.025     85.78101     171.9713     343.3288      1.944     5.02     1052.967     60.51128     203.3406        26     1.439     1.258  45.49   0
       391    908.8933    385.6086 307.5537185  +6.5270398     1398.343     2444.932     3327.138      85.6443     171.2886     343.0898      2.282     4.59     1030.418     60.51128     207.1605        16     1.442     0.734  31.25   2
       392    922.3044    380.2979 307.5483242  +6.5296800     5243.259     7864.223      7637.44     86.05376     172.3116      343.124      1.598     3.36     1029.605     60.51128     712.5529        28     1.370     1.030  21.00   0
       393     72.4072    381.2436 307.9014146  +6.5008163     1352.073     2203.342     2552.259     85.50738     171.4254     342.9874      1.849     4.72     1055.066     60.51128     145.6582        16     1.103     1.064 -73.27   0
       394    978.4852    378.7036 307.5250338  +6.5322118     747.5725     836.8199     282.1679     86.05376     172.1075      343.363      1.515     4.28     1026.757     60.51128     96.71289         7     0.997     0.524  31.23   0
       395    250.3099    376.5476 307.8276605  +6.5087355     11377.64     20726.96     22159.04     86.05376     171.4937     343.4312      1.959     4.29     1046.418     60.51128     1178.937        50     1.664     1.397  28.20   0
       396    745.3186    370.0808 307.6222063  +6.5279894     719.6503     1316.424      1880.42     86.05376     171.9713     343.3971      1.982     5.31     1033.391     60.51128     102.9001         7     0.961     0.827  65.19   0
       397     85.4106    370.4480 307.8963773  +6.5057110     785.8703     1092.283     741.7799     85.50738      171.562     342.9532      1.599     5.98     1054.208     60.51128     113.8428         8     1.161     0.866  63.06   0
       398    973.2611    368.5817 307.5275437  +6.5362169     1078.278     1377.408     690.2844      85.6443     171.6303      343.124      1.486     4.42     1026.483     60.51128     132.0128        12     1.054     0.816  37.07   0
       399    713.5591    369.6129 307.6354183  +6.5271211       582.42     821.9772     792.5986     85.37024     171.4937     343.0215      1.685     3.92     1033.861     60.51128      81.7334         5     1.061     0.415  15.11   0
       400    363.2987    366.3221 307.7810608  +6.5167502     1055.945     1808.665     1574.068      85.6443     171.9713     343.3288      1.842     5.31     1040.678     60.51128     131.8003        15     1.197     0.967  75.05   0
       401    150.6715    365.2599 307.8694388  +6.5100479     4384.058     7691.676     7855.187     86.18981     171.6985     343.3288      1.865     4.19     1052.069     60.51128     509.1144        35     1.546     1.249  14.25   0
       402    196.3796    366.0293 307.8504223  +6.5112665     698.9647     1201.922     999.3816     85.50738     171.4937     343.1923      1.858     4.76     1049.156     60.51128      98.0166         7     0.914     0.703 -19.97   0
       403    255.3856    364.2401 307.8259671  +6.5139875     1127.736      2006.35     1921.562     85.50738     171.4937     343.0215      1.879     6.74     1045.428     60.51128     129.0228        14     1.181     1.078  41.89   0
       404    172.6447    361.0516 307.8604517  +6.5125240     1790.441     3758.831     3926.567     86.18981     171.6303     343.3288      2.200     6.02     1050.736     60.51128     203.5243        25     1.579     1.177 -65.13   0
       405    836.3372    361.2645 307.5846832  +6.5346699      796.939     1269.846     1360.864     86.05376     171.6985     343.3288      1.806     4.15     1031.384     60.51128      115.309         6     0.723     0.681 -10.99   0
       406    568.0307    359.8466 307.6962142  +6.5262850     870.4499     1407.588     1632.307     85.50738     171.6985     343.1923      1.664     5.29     1034.602     60.51128     121.8346        12     1.217     0.909  50.72   0
       407    396.2802    355.8384 307.7677109  +6.5221850      1622.37     3037.237     3275.659     85.91749     171.7668     343.2606      1.904     5.38       1038.6     60.51128     173.9949        21     1.275     1.159  24.80   0
       408    984.3672    354.5467 307.5233993  +6.5423822     1132.264     1622.412     2075.531     85.91749     171.6985     343.2264      1.661     4.35     1025.294     60.51128     145.3346        11     1.099     0.782  38.38   0
       409     46.4204    350.2448 307.9132596  +6.5127404     2671.878     5127.002     5546.258      85.6443      171.562     343.0898      2.068     4.81     1055.291     60.51128     307.0411        35     1.537     1.446 -37.92   0
       410    449.8487    349.3459 307.7456723  +6.5266617     6021.239     10951.74     11616.84     86.05376     171.6985      343.363      1.951     4.31     1035.814     60.51128     647.0609        37     1.584     1.301  21.11   0
       411    790.4489    346.6943 307.6042396  +6.5391534     12234.94     19178.03     20137.32     85.91749      171.562     343.4312      1.723     3.56     1031.251     60.51128     1446.225        46     1.526     1.223  23.50   0
       412    782.5645    348.0157 307.6074713  +6.5383444     1844.734     3005.792     2853.375      85.6443     171.4254     343.0898      1.688     4.08     1031.419     60.51128     218.9274        18     1.291     0.920  16.84   1
       413    354.5437    345.0890 307.7854145  +6.5252232     903.1535     1563.475     1397.397     86.05376      171.562     343.4312      1.710     4.88     1039.998     60.51128     109.5057         9     0.988     0.683  18.45   0
       414    198.8482    337.1930 307.8503707  +6.5232554     685.4637     1004.394     776.6683     85.50738     171.4937     342.8849      1.548     5.88     1047.799     60.51128     83.82288         7     1.569     0.621  49.53   0
       415      4.8290    336.1898 307.9310152  +6.5171432     894.1748     2332.946      3472.48     85.50738     171.4937      311.966      3.392     8.55     1056.309     60.51128      116.075        18     1.868     1.094 -33.48  16
       416    470.3593    333.7199 307.7376766  +6.5338009     2019.228     3472.897     3822.051     86.05376     171.6985     343.2264      1.917     4.82     1034.196     60.51128     244.2275        24     1.470     1.141  -0.73   0
       417    498.1153    332.9464 307.7261699  +6.5350503     2480.875     4514.069     4398.615     86.05376     171.6985     343.4653      1.914     4.82      1033.51     60.51128     286.5519        26     1.489     1.229  32.49   0
       418    926.1617    332.9556 307.5483091  +6.5493562     605.0658     859.4836     948.9059     85.78101     171.6303     343.1923      1.288     3.76     1026.726     60.51128     99.64172         5     0.801     0.507  37.36   0
       419    855.7903    329.5654 307.5776640  +6.5484077     31019.43     50467.61     53066.21     85.50738     171.4937     343.0898      1.752     3.51     1029.653     60.51128     3897.688        61     1.534     1.329  33.33   0
       420     35.9204    322.2932 307.9185677  +6.5239274       1044.5     1880.436     2302.598     85.78101     171.9032      343.363      2.073     6.00     1054.778     60.51128     112.6753        11     1.200     0.843  78.88   0
       421    627.6284    322.0843 307.6727214  +6.5438714     2254.601      3863.63     4078.034     86.05376      171.357     343.1581      1.868     4.85     1031.531     60.51128      238.517        25     1.437     1.178   7.42   0
       422    712.2599    315.5865 307.6377738  +6.5493848     70979.29     117498.2     123701.1     85.37024     171.6303     342.9874      1.790     3.72     1030.932     60.51128     8377.583        79     1.618     1.353  21.48   0
       423     92.0412    314.9629 307.8954986  +6.5288424     1179.227     1681.389     1468.762     85.78101     171.6985     343.1581      1.630     6.31     1053.251     60.51128      143.691        16     1.408     0.891  25.09   0
       424    574.8367    312.4200 307.6949823  +6.5460949     2164.516      3795.39     3970.804      85.6443     171.4937     343.0215      1.863     4.40     1031.262     60.51128     260.5518        24     1.346     1.150  39.14   0
       425    954.0355    312.5269 307.5374117  +6.5587208     762.9229     1104.547     898.8412     85.91749     171.6985     343.2606      1.476     3.52     1024.512     60.51128      128.816         7     0.945     0.589  56.92   0
       426    112.0471    311.1518 307.8873153  +6.5310889     5195.342      9551.96     9777.279     86.05376      171.562     343.3288      1.932     4.51     1052.278     60.51128     562.3517        38     1.549     1.323  32.37   0
       427    558.0324    308.6152 307.7020929  +6.5471032     6053.341     10633.96      10767.6      85.6443     171.4254     343.1923      1.846     4.13     1031.202     60.51128     662.0417        38     1.531     1.293  24.09   0
       428    287.3627    306.4677 307.8146310  +6.5389144     2133.119     3841.567     4124.448     85.91749     171.6985     343.4312      2.014     5.31     1041.393     60.51128      241.858        25     1.467     1.248  48.51   0
       429    420.9462    303.6968 307.7592198  +6.5445406     20990.83     39140.86     41671.28     85.91749     171.6985     343.5677      1.975     4.27     1034.536     60.51128      2405.64        63     1.715     1.429  28.78   0
       430    601.0184    303.2574 307.6844117  +6.5507544     550.0113      1018.02     1194.491     85.50738     171.6303     343.0557      1.765     3.85     1030.517     60.51128      78.2334         5     0.834     0.508  55.51   0
       431    528.5912    302.2967 307.7145389  +6.5487261     1144.558     1999.963     1971.122     85.78101     171.2886     343.0898      1.871     7.14     1031.109     60.51128     113.4696        19     1.237     1.157  78.18   0
       432    400.4193    301.9483 307.7678079  +6.5445742     897.8958     1762.646     2843.598     85.50738     171.7668     343.0898      2.661     4.81     1035.491     60.51128     144.6066        10     1.490     0.439  23.98   0
       433    397.8672    297.2615 307.7690263  +6.5464237     807.3245     1439.675     2427.547     86.05376     171.6303     343.2947      2.920     5.37     1035.335     60.51128     102.9543         8     1.238     0.658  44.44   1
       434    816.3729    296.2472 307.5951615  +6.5608486     902.6196     1359.569     898.0393      85.6443     171.7668     343.2264      1.636     4.05     1029.091     60.51128     138.7906         9     1.076     0.614 -57.60   0
       435    509.9933    294.0902 307.7225430  +6.5514914     7043.883     12694.01     13269.01      85.6443      171.357     343.0557      1.909     4.21     1030.968     60.51128     740.6133        39     1.541     1.298  28.94   0
       436    779.0244    292.7618 307.6107981  +6.5610402     2923.401     4881.613     5104.481      85.6443     171.4937     343.0898      1.805     4.04     1029.582     60.51128     355.0579        25     1.489     1.010  30.03   0
       437    934.3990    292.4801 307.5462435  +6.5663432      875.725     1362.108     1062.589     85.23288     171.0833     343.0557      1.725     4.41     1024.675     60.51128     119.8666         8     1.110     0.499   0.68   0
       438    870.4648    316.9953 307.5719881  +6.5540877     1125.569      1489.64      1611.52     85.37024      171.357     343.0557      1.540     4.23     1028.501     60.51128     157.6952        10     1.050     0.643  19.24   0
       439    336.7610    291.1021 307.7946242  +6.5469167     764.9305     1213.849     519.1016     86.05376      171.562     343.5335      1.743     5.46     1038.229     60.51128     105.2518        10     1.327     0.633 -11.96   0
       440    172.4837    284.5442 307.8631036  +6.5441067     902.1224     1620.368     1485.495     86.05376     171.6985     343.3971      1.888     4.65     1047.715     60.51128     145.7463        11     1.045     1.028  20.88   0
       441    399.8404    278.3741 307.7688432  +6.5542881     5999.457     11256.18     12219.72      85.6443     171.4937     343.0898      2.002     4.39     1034.337     60.51128     648.4034        44     1.658     1.380  27.51   0
       442    753.4922    278.3349 307.6218923  +6.5661438     990.7787     1592.138     1186.509     86.05376     171.9032     343.2947      1.698     6.29     1028.902     60.51128     124.1571        13     1.294     0.897  54.06   0
       443    255.6646    279.0012 307.8287289  +6.5491903     1625.585     2945.722     3385.807     85.37024     171.4254     343.0557      1.902     5.24     1042.758     60.51128     179.5725        24     1.447     1.129  12.59   0
       444    689.3826    279.5561 307.6484911  +6.5634965     562.6547     548.0491     455.4785     85.50738      171.562     343.0557      1.246     4.03     1029.069     60.51128     89.26892         5     0.943     0.493  -4.36   0
       445    767.7618    274.1367 307.6161037  +6.5683541     49383.69     79868.23     83725.62     86.05376     171.6303     343.3629      1.731     3.61     1028.646     60.51128      5915.27        70     1.603     1.281  23.88   0
       446    439.2464    273.8001 307.7526234  +6.5574980     1922.203      3560.03     3328.191     85.23288     171.2886     342.8165      1.947     4.92     1032.144     60.51128      204.217        24     1.404     1.139   2.24   0
       447   1002.6639    271.1748 307.5185906  +6.5774162     1692.985     2507.641     2673.225      85.6443     171.6985     343.2264      1.535     4.09     1019.926     60.51128     259.1206        15     1.385     0.720  29.62   0
       448    585.7998    271.2015 307.6918141  +6.5634805     1113.016     1918.397     1732.712     85.37024     171.2202     342.9532      1.721     5.05     1028.683     60.51128      142.229        15     1.341     0.795 -31.22   0
       449    943.6978    270.2000 307.5431267  +6.5758527     2303.683     3399.916     3235.879     85.50738     171.2886     342.9191      1.576     4.01     1022.959     60.51128     303.8013        21     1.258     1.125  13.93   0
       450    476.4292    270.4156 307.7372871  +6.5601418     1005.078      1723.97     2165.374      85.6443     171.4254     343.2264      1.985     7.06     1029.902     60.51128     116.4558        15     1.239     1.129  17.43   0
       451    846.8950    263.8242 307.5835668  +6.5752550     1084.379     1823.562      1787.16     86.18981     171.4254     343.1581      1.764     5.28     1026.138     60.51128     133.1525        11     1.041     0.803 -49.39   0
       452    425.9056    269.4310 307.7583140  +6.5588547     1611.702     2845.783     2465.268     86.18981     171.4937     343.2947      1.848     5.65     1032.578     60.51128      151.533        21     1.372     1.086  -9.99   0
       453    457.2600    261.1479 307.7455647  +6.5633258     941.0222     1650.936     2110.668     86.05376     171.6303     343.2947      2.294     6.12     1030.309     60.51128     132.9176        10     1.302     0.808 -66.94   0
       454    202.4277    260.5582 307.8514721  +6.5550164     1863.081     3470.815      3807.12      85.6443     171.6303      343.124      2.017     5.02     1045.549     60.51128     203.4764        23     1.432     1.117  28.89   0
       455    766.2220    258.6652 307.6172633  +6.5746907     5647.102     8951.392     9316.099      85.6443     171.6985     343.1581      1.706     3.57     1027.832     60.51128     678.1631        31     1.383     1.148  22.91   0
       456    356.3713    258.6924 307.7875691  +6.5609562     612.2497     1163.236      858.651     86.18981     171.4254     343.1923      1.856     6.30     1035.746     60.51128     99.04187         7     1.241     0.899  87.00   0
       457    237.7674    259.0177 307.8368401  +6.5568398     575.5692     956.7598     864.9036      85.6443     171.4937     343.1581      1.463     3.86     1043.698     60.51128     85.06067         5     0.827     0.516  31.60   0
       458    782.6025    256.6945 307.6105227  +6.5760516     2506.207     3996.461      3878.92      85.6443      171.357     342.9532      1.674     4.13     1027.668     60.51128     300.9526        24     1.427     1.093   8.51   0
       459    372.3009    251.5368 307.7811913  +6.5644450     1555.296       3371.9     3243.809     85.78101     171.7668     343.3288      2.138     6.99     1034.616     60.51128     161.9019        27     1.758     1.098  -4.87   0
       460     86.2384    251.5078 307.9000555  +6.5548461     1053.328     1911.755      1334.89     86.18981     171.6303      343.363      1.768     6.91     1052.251     60.51128     143.8759        14     1.400     0.963  48.25   0
       461   1020.7173    247.4919 307.5118821  +6.5877965     6300.422     9078.711      9125.12     85.78101      171.357     305.1689      1.538     3.27       1018.3     60.51128     902.2605        27     1.365     0.950  23.95  24
       462    498.9759    247.5506 307.7286885  +6.5703379     1730.618     3035.718     3470.995      85.6443     171.7668     343.1923      1.977     5.26      1027.57     60.51128     234.6307        23     1.443     1.225  31.04   0
       463    261.5033    243.2271 307.8275106  +6.5641567     4874.289     8747.563     9457.304     86.18981     171.4254     343.2264      1.941     4.35     1042.062     60.51128     493.7953        40     1.610     1.355  12.53   0
       464    781.1752    236.0132 307.6118105  +6.5845431     760.9768     1227.493     888.7574     85.78101     171.4937     343.2264      1.679     5.91     1026.517     60.51128      98.8302         9     1.115     0.883  13.05   0
       465    395.8546    233.9194 307.7719982  +6.5725090     1407.565     2628.593     2415.314     86.05376     171.6985     343.3288      1.927     6.71      1032.65     60.51128      165.661        19     1.309     1.161  -7.87   0
       466    982.2997    232.5530 307.5283477  +6.5926842     1082.604      1449.94     1902.927     86.05376      171.562     343.5335      1.541     3.65     1019.464     60.51128     160.9868        10     0.899     0.822  55.87   0
       467    317.6623    229.8665 307.8046262  +6.5715587     1059.482     1758.814     1606.377     86.05376     171.6985     343.2947      1.651     4.37     1037.774     60.51128     149.4629        11     1.113     0.717 -59.05   0
       468    165.5423    229.6377 307.8678432  +6.5665428     1460.068     2514.214     2736.061     86.05376     171.7668     343.2947      1.819     5.07     1045.929     60.51128     180.0514        17     1.287     0.996 -10.75   0
       469    574.9232    225.5533 307.6978701  +6.5819640     1902.581     3413.383         3565     85.91749     171.7668     343.2947      1.897     4.62     1025.951     60.51128     225.8124        21     1.382     1.065  10.85   0
       470    918.8779    224.3258 307.5549793  +6.5939660     1721.143     2610.902     3206.564     86.32565     171.9713     343.3288      1.653     4.21     1021.349     60.51128     225.8447        17     1.221     0.969  14.84   0
       471    738.3833    222.7543 307.6300383  +6.5885877     4350.167     7296.061      7639.97     85.50738      171.562     343.0557      1.783     3.79     1025.996     60.51128     497.7423        31     1.525     1.152  37.76   0
       472    679.4694    222.6629 307.6545232  +6.5866557     2078.977     3318.601     3710.094     86.05376     171.6985      343.363      1.790     4.11     1026.233     60.51128     248.0035        23     1.378     1.056   7.72   0
       473    976.6609    222.8662 307.5310157  +6.5964958     813.0349     1231.159     1567.527     86.05376     171.6303     343.2947      1.790     5.33     1019.201     60.51128     108.6891        11     1.072     0.748  13.64   0
       474    394.4427    216.8891 307.7731592  +6.5794932     657.7311     1119.876      964.207     86.05376      171.562     343.3288      1.760     5.09     1031.907     60.51128     100.0834         5     1.049     0.698  23.05   0
       475    934.4442    215.0488 307.5488217  +6.5983157     1042.877     1549.042     1936.552     86.05376     171.6303     343.2947      1.637     5.65     1020.424     60.51128       135.95        12     1.221     0.737  43.50   0
       476    238.0242    208.1994 307.8384496  +6.5778301     1926.461     3645.219      4016.77      85.6443      171.357     343.0557      1.950     4.89     1043.311     60.51128     210.6743        25     1.467     1.186  53.00   0
       477    880.9257    207.3112 307.5713218  +6.5997249     1554.773     2609.864     3222.274     86.05376     172.0394      343.363      1.841     4.41     1021.453     60.51128     210.2083        17     1.331     0.940  23.35   0
       478    771.1464    206.6976 307.6169628  +6.5963123     1658.129     2669.257     2375.714     85.91749     171.6985     343.5335      1.723     4.09     1024.974     60.51128     229.6412        18     1.231     0.997  16.96   0
       479    472.0809    198.0907 307.7415308  +6.5898578     18746.67      34880.1     36728.81     85.78101     171.9713     343.3288      1.971     4.29     1025.713     60.51128     1932.116        56     1.682     1.402  19.30   0
       480    798.0469    197.1496 307.6061046  +6.6011532     12275.55      19881.3     21218.59     86.05376      171.562     343.3288      1.738     3.63     1024.216     60.51128     1537.044        43     1.529     1.221  14.13   0
       481    477.8360    192.6071 307.7393240  +6.5923148     1320.494     2451.832     2551.632     85.37024     171.4937     343.0557      2.012     6.73      1025.25     60.51128     150.9197        17     1.306     1.011  36.54   0
       482    160.2423    191.6021 307.8713310  +6.5820686     1965.831     3863.941      4468.39     85.37024      171.357     342.9874      2.125     5.14     1045.519     60.51128     190.6895        25     1.357     1.276  -1.76   0
       483    135.5405    190.6147 307.8816287  +6.5816456     904.7202     1559.528     1735.826     85.37024     171.6985     343.0215      1.804     6.51     1046.867     60.51128      130.308        13     1.526     0.779 -10.03   0
       484    186.1791    189.1471 307.8606364  +6.5839541     544.3564     1024.356     1340.835     85.50738     171.6985     343.0898      2.019     4.56      1044.82     60.51128     93.97766         5     1.276     0.462 -63.23   0
       485    737.5842    193.6007 307.6313501  +6.6005982     777.9723     1194.341     1288.059      85.6443     171.2886     343.0215      1.815     5.70     1024.538     60.51128     96.06274         9     1.287     0.711  53.70   2
       486    934.4421    187.5715 307.5497442  +6.6096609     1436.328     2067.634     1718.252      85.6443     171.6303     343.1581      1.522     3.76     1019.038     60.51128     187.6951        13     1.138     0.755  35.90   0
       487    316.5385    184.6398 307.8066194  +6.5901941     864.4244     1699.641      1003.73     86.05376     171.6985      343.363      1.975     6.85     1038.542     60.51128       131.58        10     1.386     1.079  68.63   0
       488      1.1527    185.1660 307.9376543  +6.5793724     662.0886     922.0666     1276.144     71.80218     133.1908     254.9184      1.265     3.57     1054.914     60.51128     188.2518         5     1.305     0.282  79.91  24
       489    596.1677    183.7874 307.6904476  +6.5999197     3906.403     6835.753     7588.554     85.50738     171.4254     343.1923      1.900     4.16     1024.855     60.51128     451.1122        29     1.442     1.151  34.24   0
       490    558.6685    183.9885 307.7060240  +6.5985812     1859.408     3116.632     3195.734     85.50738     171.4937     343.1581      1.793     4.43     1024.888     60.51128     220.7717        21     1.282     1.098  17.98   0
       491    400.6902    183.1802 307.7716997  +6.5936205     1232.106     2153.482     2003.244     85.91749     171.4254      343.124      1.814     5.76     1029.281     60.51128     143.1692        18     1.243     1.139 -64.08   0
       492    957.0357    180.8928 307.5405788  +6.6131720     2713.839     4062.006     4670.289     86.18981      171.562     343.3971      1.553     3.39     1017.585     60.51128     445.8829        16     1.182     0.820  32.74   0
       493    903.0953    180.3070 307.5630149  +6.6116146     11238.72     16880.87     17023.73     86.05376     172.3116     343.2264      1.580     3.30     1019.458     60.51128     1531.664        35     1.427     1.054  27.01   0
       494    330.9007    181.1238 307.8007699  +6.5921279     812.0837     1638.231     1618.917     85.50738      171.835     343.2947      2.241     5.98     1036.922     60.51128     101.8489        10     1.133     0.887  77.84   0
       495    578.0959    179.9552 307.6980865  +6.6008970     866.8459     1270.962     816.6689     86.05376      171.562     343.4653      1.582     6.17      1024.77     60.51128     114.4027        11     1.174     0.910  72.89   0
       496    223.1817    180.8715 307.8455401  +6.5886145     628.0221     1120.737     1060.825     85.50738     171.6303     343.2264      1.595     5.02     1043.925     60.51128     83.74316         6     1.062     0.671  72.27   0
       497    989.7534    178.1227 307.5270748  +6.6154068      10338.2     14719.89     14983.84     85.91749     171.7668     343.2947      1.506     3.20     1015.823     60.51128     1502.583        33     1.379     1.012  23.09   0
       498     29.3768    177.0186 307.9262024  +6.5836866     21710.26     38889.83     41414.28     85.78101     171.6303     343.2264      1.899     4.17     1053.075     60.51128     2350.836        62     1.683     1.387  29.47   0
       499    701.2274    178.1131 307.6469793  +6.6057774     2553.216     4287.196     4658.983     86.18981     171.4254     343.1581      1.757     3.83     1024.728     60.51128     292.8851        24     1.317     1.095  21.67   0
       500    510.0097    173.2179 307.7266073  +6.6013984     1698.723     2804.571     2748.013     85.78101     171.4254     343.1581      1.760     4.50     1024.698     60.51128     202.7617        20     1.342     1.021  25.94   0
       501    893.8287    168.8232 307.5672512  +6.6160469     1954.459     2908.701     2965.326     85.50738      171.562      343.124      1.613     4.12     1019.069     60.51128     268.4091        17     1.271     0.913   8.96   0
       502    841.6671    169.6343 307.5889012  +6.6139708      2053.26     2980.314     3068.726     85.91749     171.7668      343.363      1.583     3.29     1020.782     60.51128     322.0388        17     1.120     0.945  19.14   0
       503    521.7437    169.0536 307.7218714  +6.6035109     2165.793     3746.009     3262.106     86.18981     171.6985     343.2947      1.843     4.42     1024.615     60.51128     252.7662        24     1.379     1.158  46.70   0
       504    753.3308    166.2685 307.6257248  +6.6124097     36882.33     59358.14     62204.76     86.05376      171.835     343.2606      1.746     3.64     1022.954     60.51128     4457.498        63     1.603     1.272  25.74   0
       505    356.4356    165.8290 307.7906749  +6.5992998     4753.608     11148.06      12606.4      85.6443     171.4254     343.0898      2.411     5.96     1033.874     60.51128     520.6111        55     2.002     1.544 -81.96   0
       506    987.0543    165.1358 307.5286319  +6.6206790     2841.774     4128.931     4454.862     86.05376     171.6303     343.2606      1.540     3.28     1015.143     60.51128     451.6481        19     1.234     0.865  31.95   0
       507    921.1729    163.3250 307.5560719  +6.6192295     7605.899        11243     10949.85     85.91749     171.6303     343.2606      1.566     3.28      1018.18     60.51128     1036.899        31     1.360     1.034  24.42   0
       508    464.7543    162.4401 307.7457767  +6.6043318     4180.662     7463.347     7501.787     85.91749     171.6985     343.1581      1.884     4.03     1024.821     60.51128     443.3224        35     1.496     1.298  12.70   0
       509    122.3288    153.9698 307.8883576  +6.5963308     4262.979     7552.049     7397.649     85.91749     171.6985     343.2606      1.851     4.22     1046.318     60.51128     504.8292        32     1.413     1.287  35.03   0
       510    941.0280    152.8863 307.5481706  +6.6242019     784.7902     989.8594     1182.697     86.18981      171.357     343.1581      1.498     4.99      1016.82     60.51128     124.0915         8     1.058     0.667  25.84   0
       511    292.4427    150.5645 307.8177824  +6.6034540     27973.21     51361.74     54304.65     85.78101     171.6985     343.0898      1.949     4.32     1042.312     60.51128      2828.86        64     1.682     1.452  25.91   0
       512    267.7678    151.6236 307.8280004  +6.6021881     5455.381     10110.36     10960.54     85.50738      171.562     343.0898      1.959     4.30     1043.093     60.51128     572.8712        39     1.564     1.333  19.15   0
       513    722.1084    150.3934 307.6392336  +6.6179208     677.3926      1008.69     1341.263      85.6443      171.357     343.0898      1.530     3.67     1023.057     60.51128     108.4009         6     0.836     0.694  13.40   0
       514    416.5136    146.0186 307.7663772  +6.6094945     41229.11     75561.27     80533.02     85.78101     171.4254     343.1581      1.954     4.24     1025.602     60.51128     4023.813        73     1.697     1.454  21.52   0
       515    172.5106    147.4272 307.8677261  +6.6007197      3454.24     6275.571     6398.521     86.18981     171.4254     343.1581      1.959     4.48     1044.676     60.51128      363.347        30     1.441     1.280  -2.55   0
       516    434.2244    146.6431 307.7589962  +6.6098306     1181.347     2216.431     2008.825      85.6443      171.562      343.124      1.972     5.37     1025.307     60.51128     195.4651        14     1.168     0.921  61.77   0
       517    320.5211    143.8043 307.8063425  +6.6071879     14865.63     27507.22     29231.71      85.6443     171.1517     343.0215      1.960     4.21     1038.482     60.51128     1478.537        53     1.669     1.402  27.28   2
       518    327.9413    143.6387 307.8032646  +6.6075053     1724.868     3729.984     4035.787     86.05376     171.7668      343.363      2.207     6.41     1037.557     60.51128     163.8607        28     1.516     1.387 -10.74   3
       519    803.8049    142.5412 307.6055459  +6.6238929     1132.363     2009.568     2469.132     85.37024      171.562     343.0557      1.848     5.35     1021.021     60.51128     165.9053        15     1.422     0.959  41.54   0
       520    755.7755    142.1873 307.6255180  +6.6224343     30041.55     48997.54     50969.97     85.78101     171.4937     343.2264      1.729     3.64     1021.994     60.51128     3575.045        53     1.556     1.241  21.40   0
       521    703.9016    144.0742 307.6470124  +6.6199211     729.7449     1053.724     970.8337     85.50738      171.835     343.2606      1.442     4.71     1023.358     60.51128      109.338         9     0.940     0.739 -14.35   0
       522     72.6670    139.5817 307.9094806  +6.6006003     7931.186     14157.16      14597.7      85.6443     171.6303     343.1923      1.904     4.09     1049.068     60.51128     806.9075        41     1.582     1.299  23.35   0
       523    106.6075    137.4710 307.8954484  +6.6026138     1276.823     1971.975     2291.919     85.50738     171.2886     343.1923      1.721     6.65     1046.791     60.51128     162.9825        16     1.141     1.128  26.71   0
       524   1013.7993    136.3283 307.5184826  +6.6334650      1087.41     1653.459     2342.209     85.37024     171.2202      343.124      1.751     4.13     1012.077     60.51128     154.6904        12     1.120     0.823  12.51   0
       525    590.0658    127.1138 307.6948908  +6.6231152     791.4042     1584.323     2070.204     86.05376     171.9032     343.3629      2.491     5.37       1022.8     60.51128     108.3165         8     1.095     0.743  18.85   0
       526      6.7189    125.1400 307.9373734  +6.6043426     786.0802     1223.628     486.2664     86.18981     171.6985     332.6866      1.695     4.63     1053.814     60.51128     118.0454         7     0.973     0.625 -79.25  16
       527   1015.0916    122.6053 307.5184055  +6.6391742     2373.195      3566.87     5022.278      85.6443      171.357     343.0215      1.833     3.15     1011.296     60.51128     405.6378        21     1.349     0.931  33.62  16
       528    598.3635    120.4621 307.6916663  +6.6261394     968.1145     1515.677     2045.226     86.05376     171.7668     343.2947      1.793     6.18     1022.492     60.51128     125.3176        12     1.107     1.052  -9.86   0
       529    291.3481    116.8591 307.8193752  +6.6173334     25091.65      46059.4     50462.72     86.05376     171.6985     343.2947      1.971     4.28     1042.444     60.51128     2570.505        71     1.752     1.538  13.02   0
       530    606.5441    118.7309 307.6883249  +6.6271280     1685.279     2799.169     2827.452     86.18981      171.562     343.2606      1.886     4.21     1022.435     60.51128     210.3121        20     1.339     1.007  17.60   0
       531    350.8482    118.3148 307.7945998  +6.6187298     866.4143     1402.994     1261.435     86.05376     171.6303     343.2947      1.700     5.47     1034.519     60.51128     106.1622        11     1.158     0.728 -86.22   0
       532     36.6679    115.4082 307.9252578  +6.6093690     3978.188     7018.536     7896.467     85.50738     171.4254     343.1923      1.940     4.43     1051.391     60.51128     418.0144        35     1.536     1.317  39.03   0
       533    276.5745    112.2528 307.8256700  +6.6187391     693.7411     1034.334     1194.152      85.6443     171.7668     343.1923      1.643     3.50     1042.928     60.51128     89.45862         5     0.749     0.471 -75.03   0
       534    133.8275    110.6021 307.8850457  +6.6146228     4264.551     7446.174     7162.096     85.50738     171.4254     343.0898      1.840     4.29     1045.539     60.51128     445.7867        32     1.536     1.204  35.04   0
       535    472.8316    107.8402 307.7442600  +6.6271458     1221.824      1962.51     1587.525      85.6443     171.4937     343.1581      1.660     4.99     1024.566     60.51128     152.4196        15     1.114     1.005  52.33   0
       536    403.8159    106.2310 307.7729956  +6.6254961     4464.412      8991.31        10014      85.6443     171.4254     343.2264      2.089     9.41     1027.143     60.51128     686.3818        41     1.823     1.355  45.88   0
       537    368.9521    105.5560 307.7875068  +6.6246052     2544.058     4566.919     4802.988     86.05376     171.6303     343.2264      1.921     4.84     1032.024     60.51128      258.554        26     1.433     1.182  14.12   0
       538    123.4174    105.6329 307.8895397  +6.6163243     1621.564     2880.984     2871.502      85.6443     171.4937     343.1581      1.923     5.34     1045.986     60.51128     184.0863        20     1.275     1.153  28.23   0
       539    581.8132    104.8863 307.6990686  +6.6320163      622.247     1073.312     1182.463      85.6443     171.4937     343.1923      1.875     5.13      1021.88     60.51128     108.8688         6     1.062     0.700 -17.66   0
       540   1015.8991     99.5859 307.5188415  +6.6487057     1577.859     2256.579     2520.407     85.91749     171.4254     343.0215      1.473     3.92     1009.954     60.51128     228.0384        13     1.273     0.680  37.90  16
       541    220.8112     94.4369 307.8494451  +6.6242214     4552.847     8089.491     8156.371     85.50738     171.4937     342.9532      1.875     4.36     1043.896     60.51128     438.6106        34     1.563     1.230  26.30   0
       542    103.4649     94.3061 307.8982141  +6.6203295     1907.286     3523.204     4170.405     85.91749      171.835     343.3288      1.994     5.39     1046.754     60.51128     205.5547        30     1.655     1.260  30.50   0
       543    682.6100     93.1307 307.6575739  +6.6402430     5676.143      9159.53     9785.673     85.50738     171.4937      343.124      1.727     3.61     1021.233     60.51128     670.9598        32     1.460     1.145  17.04   0
       544    830.4205     92.9635 307.5961496  +6.6452520     964.5729     1549.621      1402.76      85.6443     171.4254     343.0215      1.591     5.98     1017.455     60.51128     134.5353        13     1.378     0.730  37.27   0
       545      8.7249     92.4655 307.9376460  +6.6179003     565.8055     1528.431     3293.137     86.18981     171.6985     343.2264      3.412     3.66     1052.699     60.51128     88.11499         4     0.859     0.448  17.37   2
       546    634.7512     90.4451 307.6775542  +6.6397508     8293.551     14009.56     15535.51     86.05376      171.562     343.2947      1.842     3.90     1021.171     60.51128     899.9995        41     1.575     1.247  30.49   2
       547    638.2468     81.9165 307.6763884  +6.6433891      47737.7     80360.44     84855.95     86.05376     171.6985     343.2947      1.805     3.85     1020.746     60.51128     5427.197        71     1.646     1.329  25.73   2
       548    269.7910     91.2898 307.8291969  +6.6271664     600.9643     1018.296     1032.742     85.78101      171.357     343.0557      1.497     4.33     1043.003     60.51128     104.6124         6     1.084     0.675  -8.24   0
       549    722.9453    113.3913 307.6401296  +6.6332265     7373.842     12177.43     13028.15     85.37024     171.6303     342.9874      1.751     3.80     1021.775     60.51128     872.6334        37     1.489     1.207  29.10   0
       550    362.0388     86.1238 307.7910354  +6.6323963     2919.344     6118.486     7304.198     85.91749     171.7668     343.2947      2.256     4.76     1032.822     60.51128     341.8354        39     1.649     1.435 -31.09   0
       551    543.9084     85.5343 307.7154730  +6.6387371     1542.294     2915.498     3121.441     86.05376     171.9032     343.2947      2.055     5.96     1021.377     60.51128     163.3362        19     1.330     1.055  23.11   0
       552   1007.8922     84.6827 307.5226688  +6.6545923     797.8102     1414.771     1653.438     85.78101     172.0394     343.3971      1.748     4.79     1009.044     60.51128     133.5887         8     1.078     0.604  59.49   0
       553    317.5078     75.6249 307.8098958  +6.6352364     3176.793     5458.232     6004.588     86.18981     171.4254      343.124      1.858     4.13     1038.542     60.51128     330.2366        29     1.478     1.202  31.11   0
       554    626.7582   1021.6261 307.6495658  +6.2550059     1874.686     2539.908     2211.596      85.6443     164.0916     291.8626      1.478     3.50      1065.25     60.51128     322.0844        15     1.072     0.941  20.65  16
       555    716.6691     70.2162 307.6441895  +6.6508431     829.4121     1451.217     1388.671     85.50738      171.562     343.1923      1.799     5.95     1019.233     60.51128     117.1212        11     1.464     0.680   5.90   0
       556    688.8001     69.3091 307.6558025  +6.6502857     1283.738     2065.052     2224.617     85.23288     171.1517     343.0557      1.705     4.88     1019.663     60.51128      138.603        15     1.136     0.942  30.00   0
       557    702.6146     65.7698 307.6501801  +6.6522090      2900.94     4888.686     4985.002      85.6443     171.4254     343.2264      1.824     4.26     1019.202     60.51128     334.1415        26     1.481     1.066  32.00   0
       558    444.2267     56.8289 307.7578672  +6.6472484     3378.843      6379.26     6731.743     85.50738     171.4937      343.124      1.993     4.47     1024.327     60.51128     360.1381        34     1.539     1.336  27.95   0
       559    916.9553     52.3023 307.5615497  +6.6649292     3995.313     5949.835     6050.965     86.05376     171.6303     343.4994      1.613     3.35     1012.227     60.51128     515.5287        27     1.442     0.981  29.11   0
       560    898.7409     53.1294 307.5690922  +6.6639798     2160.338     3154.473     2862.711     86.18981     171.6985     343.3629      1.514     3.24      1012.68     60.51128      350.505        16     1.214     0.814  27.90   0
       561    609.0488     50.8295 307.6895692  +6.6552472     1512.242     2618.719     2394.928      85.6443     171.7668     343.1923      1.840     5.44     1019.255     60.51128     188.4191        20     1.446     1.043  24.94   0
       562    254.9774     50.4708 307.8367316  +6.6435218       774.83     1303.673     1585.898      85.6443      171.562     343.2947      2.039     6.03     1043.038     60.51128     97.08813        10     1.042     0.982 -48.46   0
       563    407.9425     48.8928 307.7732142  +6.6493082      1701.38     2885.564      2601.56     85.91749     171.6303     343.4312      1.783     5.22     1027.038     60.51128     179.2085        21     1.380     1.076  44.31   0
       564    155.7782     45.6920 307.8781183  +6.6421605     2719.163     4809.061     4699.791     86.05376     171.4937      343.124      1.849     4.37     1044.252     60.51128     271.8318        29     1.497     1.182  31.97   0
       565    304.0088     44.3734 307.8165607  +6.6476861     1075.826     1917.838     2271.996      85.6443     171.4937     343.1581      1.836     7.01     1039.974     60.51128     120.0607        16     1.370     1.005  41.70   0
       566     37.6756     43.5473 307.9272712  +6.6390718     11373.88     19253.43     20092.41     86.05376     171.6985     343.2947      1.829     4.00     1049.323     60.51128     1139.907        48     1.561     1.354  27.71   0
       567    564.7737     43.3909 307.7082206  +6.6568361     679.9015      1234.09     1106.667      85.6443     171.4937     343.1581      2.014     4.14     1020.024     60.51128     98.44952         6     0.936     0.523  41.84   0
       568    958.7760     42.0717 307.5445112  +6.6705483     679.4277     1276.422     1242.994      85.6443      171.562     343.2606      2.109     2.59     1008.999     60.51128      129.291         5     0.758     0.490  31.12   0
       569    429.3372     39.1356 307.7646517  +6.6540543     1015.348     1569.514     1392.729     86.05376     171.6985     343.3288      1.680     5.56     1025.234     60.51128     130.5118        13     1.226     0.781  31.18   0
       570    906.0071     39.0139 307.5665459  +6.6700505      792.536      1040.58       1423.4      85.6443     171.4254      343.124      1.434     4.13      1011.72     60.51128       117.78         7     0.931     0.524  50.84   0
       571    839.3144     38.0369 307.5942977  +6.6682276     6242.698     9338.184      10154.1     86.05376     171.6303     343.2947      1.597     3.35     1012.813     60.51128     843.6788        29     1.410     1.009  23.94   0
       572    784.4471     38.3944 307.6170897  +6.6662472     3324.586     5164.535      5894.05     85.37024     171.4937     342.9532      1.746     3.56     1014.219     60.51128     395.4261        24     1.415     0.950  18.66   0
       573    771.3848     37.9362 307.6225340  +6.6659999     657.4812     1114.125     1877.068     85.50738      171.562     343.1581      1.770     4.20     1014.765     60.51128     108.9978         5     1.079     0.466  28.37   0
       574    547.7255     36.0948 307.7155516  +6.6592776     884.0417     1636.077     1989.864     85.78101     171.9032     343.2947      2.002     3.71     1020.337     60.51128     126.9527         5     0.777     0.508  68.97   2
       575     77.7978     35.3160 307.9108761  +6.6438209     2802.512     4988.451     5055.892     85.37024     171.2886     342.9532      1.819     4.43     1046.162     60.51128     324.2257        31     1.538     1.211  43.25   0
       576     62.9984     36.0596 307.9170012  +6.6430157     848.6375      1397.58     926.9534     85.37024      171.357     342.9874      1.646     6.15     1047.277     60.51128     103.4458        13     1.279     0.830  47.76   0
       577    666.3479     36.1132 307.6662503  +6.6632407     595.5441     925.1102     1077.147     86.05376      171.562     343.3971      1.227     3.44      1018.13     60.51128     110.4141         5     0.826     0.414  70.74   0
       578    439.1873     34.6570 307.7607090  +6.6562337     842.4181     1414.768     1911.348     85.37024      171.562     342.9532      1.979     5.69     1024.414     60.51128     97.49878        11     1.117     0.816  15.47   0
       579     20.3249     30.9961 307.9349064  +6.6436694     2287.897     3956.998     4209.302     85.50738     171.1517     343.1923      1.908     4.80     1050.229     60.51128     292.7109        26     1.489     1.129  30.05   0
       580    601.3021     31.7680 307.6934304  +6.6628581     1215.181     1853.372     2225.721     86.05376      171.562     343.4312      1.712     4.75     1018.567     60.51128     153.1731        16     1.277     0.919  10.82   0
       581    778.8210     25.8880 307.6198482  +6.6712230     1779.921     2851.654     3570.204     86.05376     171.4254     343.1581      1.772     4.25     1013.387     60.51128      244.196        17     1.262     0.905  29.23   0
       582    419.8346     26.4451 307.7690289  +6.6589752     1025.974     1579.339     1409.541      85.6443     171.6303     343.1581      1.748     4.99     1026.097     60.51128     124.0835        13     1.107     0.929   7.68   2
       583     93.0662     27.1030 307.9048087  +6.6477256     798.2137     1284.905     933.2202     86.05376     171.7668     343.3288      1.703     4.72     1044.782     60.51128     104.7035         7     0.897     0.705 -54.88   0
       584    116.6976     24.8825 307.8950631  +6.6494375     815.2659     1492.415     1460.174     86.05376     172.1075      343.363      1.891     7.29     1044.338     60.51128     109.0061        14     1.283     1.161  48.78   0
       585    246.8589   1020.3123 307.8073720  +6.2428205     1536.671     2061.333     2142.069     86.05376     171.6985       310.46      1.373     2.82     1068.872     60.51128     240.3579        11     0.892     0.771  27.42  16
       586    256.4080     20.3446 307.8371546  +6.6560081     527.7924     719.7753     227.4158     85.37024     171.4937     342.9874      1.543     4.98     1042.819     60.51128     83.68945         5     1.315     0.533 -45.44   0
       587    434.6947     19.4375 307.7630893  +6.6623669      2177.24     3768.218     4281.298     86.18981      171.562     343.4312      1.862     4.28     1024.669     60.51128     250.8521        22     1.385     1.006  12.80   0
       588   1022.6553   1018.9752 307.4852413  +6.2693142     736.0781     1040.573     1081.465     84.95749     151.6988     260.1056      1.422     4.45     1051.567     60.51128     137.4535         7     0.867     0.650  23.38  24
       589    530.3003   1018.1697 307.6897392  +6.2532058     632.2227     825.6917     1151.368     86.05376     171.4254     333.8117      1.148     3.41     1065.606     60.51128     135.7067         5     1.129     0.313 -11.01  16
       590    727.0656   1015.0649 307.6081298  +6.2610677     643.1425     751.2245     326.1482     86.05376     171.6985     343.2947      1.288     3.53     1062.248     60.51128     124.4342         5     0.664     0.558  -1.89   0
       591     82.6721   1012.6196 307.8758114  +6.2404814      8451.93     12044.25     12626.99      85.6443      171.562     343.2264      1.515     3.15     1067.821     60.51128     1293.245        31     1.374     1.007  23.21   0
       592    812.0035   1012.0953 307.5729553  +6.2651304     15973.11      22153.1     23046.35     85.78101      171.357     342.9874      1.453     3.24     1058.623     60.51128     2367.745        34     1.382     0.950  25.37   0
       593   1004.4573   1011.5406 307.4930479  +6.2717776     606.3716     773.0231     364.1234     86.18981     171.6303     343.3288      1.393     4.01     1052.062     60.51128     93.58142         5     0.932     0.531  45.85   0
       594    595.4894   1003.0400 307.6631759  +6.2616341     175140.6     246125.8     255738.2     86.05376     171.6985     343.3288      1.509     3.18     1065.185     60.51128     26487.45        94     1.496     1.168  24.57   3
       595    597.2705    995.8480 307.6626780  +6.2646632     80130.21       115232     120155.1     86.05376     171.6303     343.3288      1.543     3.21     1064.867     60.51128        11646        71     1.483     1.146  25.71   3
       596    229.3128   1005.8670 307.8151455  +6.2481957     4044.834     5707.101     5832.849     86.18981     171.9032     343.3288      1.525     3.40     1068.681     60.51128     574.9911        22     1.245     0.959  22.19   0
       597    412.3495   1006.0731 307.7391287  +6.2542499     645.5132     880.0221      1005.54     86.05376     171.7668     343.3288      1.506     4.66     1067.475     60.51128      140.709         6     1.371     0.475  27.99   0
       598    770.8940   1005.3666 307.5902536  +6.2665361     934.4412     1119.471     1337.104     86.18981      171.562     343.3971      1.376     4.75     1060.047     60.51128     153.6454         8     1.030     0.622 -10.72   0
