#   1 NUMBER                 Running object number                                     
#   2 X_IMAGE                Object position along x                                    [pixel]
#   3 Y_IMAGE                Object position along y                                    [pixel]
#   4 ALPHA_J2000            Right ascension of barycenter (J2000)                      [deg]
#   5 DELTA_J2000            Declination of barycenter (J2000)                          [deg]
#   6 FLUX_APER              Flux vector within fixed circular aperture(s)              [count]
#   9 FLUXERR_APER           RMS error vector for aperture flux(es)                     [count]
#  12 FLUX_RADIUS            Fraction-of-light radii                                    [pixel]
#  13 FWHM_IMAGE             FWHM assuming a gaussian core                              [pixel]
#  14 BACKGROUND             Background at centroid position                            [count]
#  15 THRESHOLD              Detection threshold above background                       [count]
#  16 FLUX_MAX               Peak flux above background                                 [count]
#  17 ISOAREA_IMAGE          Isophotal area above Analysis threshold                    [pixel**2]
#  18 A_IMAGE                Profile RMS along major axis                               [pixel]
#  19 B_IMAGE                Profile RMS along minor axis                               [pixel]
#  20 THETA_IMAGE            Position angle (CCW/x)                                     [deg]
#  21 FLAGS                  Extraction flags                                          
         1    255.8654     29.9200 307.8304217  +6.6634968     4378.026     11905.35     14937.03     92.68691     184.4973     368.5551      2.802     6.36     1206.352     64.97029     448.0568        64     2.056     1.850 -72.75   0
         2    435.2036     29.3788 307.7558282  +6.6697257     10288.99     29097.28     35398.56     91.95535     183.9841     368.3352      2.692     6.39     1184.398     64.97029     997.7589        80     2.123     1.914  69.42   0
         3    244.0852     26.5232 307.8354372  +6.6645050     1414.546     4069.998     5461.222     92.54106     184.7168     368.7017      3.139     9.39     1206.785     64.97029     154.0013        35     1.798     1.607 -88.08   0
         4    173.4026     12.0037 307.8653333  +6.6681321      5064.56     14014.11     16679.77     91.66109     183.8372     368.3352      2.646     6.26     1207.073     64.97029     577.0221        64     2.040     1.826  75.61  16
         5    517.3506     10.0208 307.7223020  +6.6804689     1435.955     3883.875     4833.158     91.80834     184.4241     368.4452      2.648     8.95     1177.403     64.97029     146.2416        31     1.690     1.526  68.24  16
         6    918.6385      9.2161 307.5553660  +6.6941871     2833.911     5726.884     5986.458     91.95535     184.1309     368.3352      2.114     5.37     1167.249     64.97029     316.2194        32     1.685     1.243  62.59  16
         7    719.5344      8.2979 307.6382387  +6.6879319     1200.919      2574.68     3029.065     92.39498     184.4241     368.1518      2.370     7.11     1171.599     64.97029      155.425        19     1.470     1.244  45.21  16
         8    455.7311      8.8874 307.7479772  +6.6788766     863.4518     2028.078     2490.741     92.39498     184.6437     368.6284      2.634     7.04     1181.406     64.97029     105.3167        10     1.351     1.028 -53.43  16
         9    983.3062      5.6617 307.5285781  +6.6978071     1476.842     2843.406     3008.967     92.24867     184.3509     345.9447      2.098     5.10     1160.129     64.97029       173.45        18     1.288     1.061 -80.44  16
        10    702.9831      2.8280 307.6453087  +6.6896392     4043.359     8401.961     9202.414     91.95535     169.7006     304.3607      2.114     5.43     1171.235     64.97029     391.1163        37     1.687     1.393   5.26  24
        11    623.3022      2.2928 307.6784793  +6.6872008     1897.039     3504.318     3622.937     91.51361     162.7114     295.2141      1.947     6.22     1174.592     64.97029     220.6833        22     1.522     1.036  -8.95  24
        12    423.4258      1.1636 307.7616779  +6.6809863     794.6513      852.562     496.1265     76.91781     143.0999     273.8511      1.201     3.48     1186.671     64.97029     167.8737         5     0.968     0.362  -4.98  24
        13     24.2954      1.1666 307.9277321  +6.6676024      888.462     1326.111     1546.001     77.96436      143.477     273.9005      1.245     4.01     1208.217     64.97029     208.1155         7     1.263     0.364   3.68  24
        14    290.4961    992.2427 307.7836097  +6.2671541     10712.12     21088.94     24536.06     92.39498     184.2776     368.7383      2.170     4.45     1252.107     64.97029     1108.268        68     1.810     1.755  87.75   0
        15    886.1315   1022.6569 307.5349669  +6.2744704     1388.226     2280.651     2248.793     91.80834     162.9602     295.9452      1.698     5.26     1239.726     64.97029     190.8065        14     1.133     1.112 -57.55  24
        16    787.6965   1023.6393 307.5758570  +6.2707874     2138.521     2651.462     2643.173     80.85605     147.1946     277.8177      1.216     2.86     1242.254     64.97029     487.2472        10     1.112     0.536  -2.36  24
        17    578.7856   1021.5101 307.6627785  +6.2647009     57051.14     104785.1       112899     92.10213     177.3296     315.1749      1.965     4.33     1246.788     64.97029     5972.911        87     1.709     1.602  32.69  24
        18    208.8251   1021.0804 307.8165904  +6.2525073      1672.04     2951.057     2763.705     92.10213     181.0236      322.043      1.814     5.75     1253.821     64.97029      183.238        18     1.386     0.970  65.82  24
        19    744.5744    992.7174 307.5948200  +6.2821239     6492.579     11773.12     12716.54     92.24867     184.0575     368.5918      1.953     4.06     1241.474     64.97029     682.2577        42     1.648     1.311  72.02   0
        20    540.2075    993.5502 307.6797548  +6.2749626     3274.193     6059.417     6470.819     91.80834     184.0575     368.1884      1.973     4.54     1246.426     64.97029     362.6825        30     1.496     1.249  77.12   3
        21    537.3610    985.7452 307.6812001  +6.2780915     6154.471     11964.68     13531.84     92.39498     184.4241     368.5918      2.094     4.48      1246.29     64.97029     601.6899        48     1.749     1.399  70.17   3
        22    510.8701    994.6426 307.6919146  +6.2735315     804.2468     1388.268     1179.142     92.24867     184.3509     368.6651      1.834     5.32     1246.488     64.97029     110.3533         8     1.021     0.784  24.86   0
        23    414.4949    994.2458 307.7319936  +6.2704748      782.546     1305.716     976.7078     92.24867     184.2776     368.7383      1.769     4.72     1251.111     64.97029     105.7692         6     0.937     0.675   7.23   0
        24    806.4350    992.1511 307.5691208  +6.2844187     753.6551       1420.4     887.7329     92.24867     184.3509     368.5185      1.470     4.62     1239.744     64.97029     129.1989         6     1.253     0.484  84.67   0
        25    260.6795    989.0252 307.7961132  +6.2674849     625.0129     1058.004     629.2786     92.10213     184.1309     368.5551      1.675     6.12     1252.695     64.97029     88.31445         6     1.186     0.887  74.97   0
        26    905.8732    986.2088 307.5279785  +6.2901835     7822.803     13507.94     14594.91     91.95535     183.8372     368.4085      1.862     3.91     1236.318     64.97029     901.5459        42     1.559     1.279  60.87   0
        27    879.4854    982.3682 307.5390777  +6.2908919     10945.55     19125.94     20915.43     92.39498     184.1309     368.4818      1.909     3.86     1237.392     64.97029     1246.667        49     1.640     1.337  67.22   0
        28   1001.1931    981.7108 307.4884993  +6.2952116     4398.097     7022.596     7176.094     91.80834     183.9841     368.3352      1.711     3.62     1233.992     64.97029     581.2711        30     1.533     1.044  71.92   0
        29    592.0696    982.8322 307.6585536  +6.2811212     984.0591     1933.474     2092.264     92.24867     184.3509     368.6284      2.100     7.54     1245.167     64.97029      151.056        14     1.445     1.100 -85.56   0
        30    523.9377    981.4182 307.6869259  +6.2794307     3107.875     6272.427     7637.667     91.95535     184.2776     368.4452      2.251     5.06     1246.271     64.97029     329.9431        37     1.760     1.344  55.53   0
        31    633.3851    980.3692 307.6414597  +6.2835173     1009.226     1458.857     1569.089     91.95535     184.0575     368.5185      1.654     6.16     1243.592     64.97029     122.4126        12     1.236     0.864  79.92   0
        32     58.8648    979.8657 307.8803181  +6.2645042     660.8885     1130.489     1368.613     92.39498     184.3509     368.5918      1.627     3.91     1253.519     64.97029     90.78516         5     1.017     0.432  44.98   0
        33    477.0232    978.0100 307.7065443  +6.2792713     1658.806     3157.065     2967.869     91.95535     184.1309     368.4085      1.948     4.82     1246.734     64.97029     216.7169        21     1.288     1.175 -47.73   0
        34    911.2673    969.8904 307.5262816  +6.2971039     38682.46     66249.61     71476.55     92.54106     184.4973     368.5918      1.846     3.79     1235.171     64.97029     4306.062        73     1.693     1.396  69.36   0
        35    218.9653    968.7855 307.8141359  +6.2744482      1130.93     2245.516     2090.154     91.95535     184.0575     368.4085      1.989     6.89     1253.193     64.97029     145.5162        14     1.297     1.025 -68.96   0
        36    757.4245    961.7088 307.5905162  +6.2953612      5165.01     9450.843     10758.93     92.54106     184.1309     368.4085      2.047     4.06     1239.021     64.97029     565.1036        43     1.783     1.327  78.63   0
        37    809.2454    963.9235 307.5688973  +6.2961727     1991.748     3670.678     3613.827     92.24867     184.4241     368.6284      1.831     4.67     1237.899     64.97029     263.7064        23     1.379     1.128  66.85   0
        38    226.9811    960.9724 307.8110666  +6.2779441     1026.925     1911.144     1830.667     91.95535     184.1309     368.4818      1.988     5.62     1253.056     64.97029     127.6567        11     1.115     0.798 -78.59   0
        39     52.1233    959.0170 307.8838238  +6.2728898      1848.89      3648.73     3535.936     91.80834     184.0575     368.4452      2.043     5.36      1253.46     64.97029     232.6697        24     1.612     1.033  75.35   0
        40    945.6526    956.7159 307.5124260  +6.3036899     6022.886      10218.6     10354.95     92.39498     184.2776     368.7383      1.826     4.02     1233.392     64.97029     645.2957        33     1.490     1.175  75.56   0
        41    919.2178    948.5173 307.5236908  +6.3061973     1721.602     3283.474     3572.392     91.95535     183.9841     368.5551      2.083     5.37     1233.701     64.97029     198.6283        21     1.448     1.050 -66.63   0
        42    640.2272    944.5398 307.6398166  +6.2985459     3280.059     6463.263     6305.635     91.95535     184.4241     368.4452      2.027     5.06     1241.042     64.97029     337.3998        35     1.685     1.295 -86.97   0
        43    252.5004    944.8196 307.8010014  +6.2854710     3032.665     6288.166      6954.11     92.39498     184.2043     368.3352      2.162     4.86     1252.549     64.97029      347.328        33     1.586     1.305  67.27   0
        44    778.9367    945.1739 307.5821261  +6.3029083     1031.812     1926.766     2015.254     91.95535     184.3509     368.5185      1.903     6.15     1237.365     64.97029     130.8726        11     1.187     0.896 -82.53   0
        45     21.6027    942.3788 307.8970728  +6.2787382      1700.56     2937.763     2719.353     91.95535     183.9841     368.2985      1.835     5.48     1253.659     64.97029     214.8198        19     1.359     1.134 -74.69   0
        46    462.5218    942.5525 307.7137640  +6.2934333     942.2245     1573.185     1119.347     92.39498     184.4241     368.5185      1.865     6.11     1247.013     64.97029     125.4088        11     1.144     0.917 -63.98   0
        47    872.3201    941.2048 307.5434338  +6.3076574     840.9794     1245.438      1250.95     91.95535     183.8372     368.2985      1.740     5.21      1234.85     64.97029     114.4963         7     0.993     0.773  44.63   0
        48    963.8340    938.3650 307.5054803  +6.3118751     657.0582     1025.615     847.9261     92.10213     184.0575     368.2985      1.394     4.66     1231.915     64.97029     158.6675         6     1.421     0.433  55.97   0
        49    289.5610    938.3898 307.7858105  +6.2893677     636.4564     1258.444     2009.962     91.66109     184.1309     368.2618      2.011     4.16     1252.103     64.97029     83.84399         5     0.998     0.494 -86.97   0
        50    995.9547    936.3103 307.4921942  +6.3137918     791.2791     1466.217     1703.976     92.39498     184.2776     368.7383      2.078     6.55     1230.979     64.97029     134.9376         9     1.517     0.794 -63.85   0
        51    564.8022    937.2687 307.6714186  +6.2990323     1157.508      2177.44     2427.562     91.66109     183.9107     368.3718      2.074     6.44     1244.454     64.97029     126.9968        15     1.142     1.049 -30.72   0
        52    604.2258    933.5637 307.6551525  +6.3018787     934.4904     1613.476      1247.61     91.95535     184.1309     368.3352      1.811     6.51     1242.709     64.97029     139.4637        12     1.114     1.069  42.14   0
        53    284.2217    931.0609 307.7882769  +6.2922163     1045.411     2204.816     2817.672     91.95535     184.2776     368.4818      2.218     6.15     1252.163     64.97029     134.4808        13     1.532     0.694 -69.06   0
        54    750.8718    926.9731 307.5944040  +6.3094916     687.9586     1118.265     1150.309     91.95535     184.2043     368.4818      1.781     5.15     1236.768     64.97029      95.4093         8     1.154     0.650  15.73   0
        55    888.3563    923.6604 307.5373534  +6.3154385     5815.456     10312.86     11094.99     92.24867     184.3509     368.7383      1.912     4.05     1233.228     64.97029     688.8295        35     1.535     1.216  68.20   0
        56    326.0294    919.4083 307.7712878  +6.2984291     6188.173     13316.05     15116.18     91.95535     184.1309     368.3352      2.250     5.00      1251.51     64.97029     685.0244        49     1.813     1.476  67.28   0
        57    424.2402    920.8060 307.7304101  +6.3011367     1365.402     2870.525     3156.679     91.51361     183.9841     368.2618      2.158     5.90     1247.559     64.97029      152.834        19     1.401     1.075  74.69   0
        58    246.0568    918.2374 307.8045751  +6.2962354     4831.654     10028.41     11479.77     92.39498     184.4241     368.5918      2.224     5.06     1252.411     64.97029     503.3551        45     1.812     1.403  70.73   0
        59    904.3278    908.5504 307.5312183  +6.3222117     894.5349     1458.076     1921.177     92.39498     184.4241     368.6284      2.020     5.12     1231.834     64.97029     114.5934         9     1.024     0.723 -41.37   0
        60    740.3970    901.7109 307.5996054  +6.3195779     1308.848      2585.79     3161.393     91.66109     183.9841     368.2251      2.426     5.34     1235.372     64.97029     178.7263        17     1.212     1.047 -60.85   0
        61    971.6920    897.9576 307.5035638  +6.3288281     1018.917     1607.076      2261.26     92.39498     184.3509     368.7017      1.973     5.79     1229.405     64.97029     126.9692        10     1.124     0.838 -81.14   0
        62    604.5605    897.8504 307.6562114  +6.3166423     646.3914     1267.423     446.5709     92.24867     184.3509     368.5551      1.951     4.98      1240.23     64.97029     90.40186         5     1.029     0.682 -24.86   0
        63    526.2427    897.3854 307.6887888  +6.3142196     844.4794     1749.509     2057.834     91.51361     184.0575     368.2985      2.006     5.98     1244.305     64.97029     122.7604         7     1.229     0.817  47.26   0
        64    658.8415    895.2995 307.6337287  +6.3195071     1783.763     3628.215     4270.902     92.39498     184.2043     368.8482      2.248     5.28      1237.66     64.97029     196.3871        24     1.419     1.229 -70.22   0
        65     73.4348    891.2045 307.8772512  +6.3016156     1414.117     2937.726       3210.4     91.51361     184.2043     368.3352      2.155     5.79     1251.854     64.97029     192.2715        22     1.346     1.275  84.95   0
        66     55.8392    891.5375 307.8845550  +6.3008876     2327.941      4130.93     4234.684     92.39498     184.3509     368.6651      1.939     4.70     1251.811     64.97029     311.1108        27     1.467     1.196  59.03   0
        67    199.2853    890.1924 307.8249643  +6.3062531     1579.293     3398.805     3284.807     91.95535     183.9841     368.4085      2.160     6.80      1252.37     64.97029     207.7228        23     1.450     1.326  73.96   0
        68    937.1597    890.6030 307.5181676  +6.3307178     691.1696     1109.479     1283.028     91.51361     183.9841     368.2618      1.761     3.57     1229.833     64.97029     130.4832         5     1.039     0.353 -84.19   0
        69    653.6787    884.3604 307.6362420  +6.3238536     4821.735     9712.778     10509.36     92.24867     184.4241     368.5918      2.108     4.71     1237.505     64.97029     476.5542        39     1.643     1.370  69.48   0
        70    791.0350    885.6962 307.5790877  +6.3278805     718.5031     1167.328     283.9203     92.54106     184.2043      368.775      1.383     2.81     1233.306     64.97029     136.3347         6     0.892     0.745 -58.48   0
        71     14.1515    883.3942 307.9021607  +6.3028523     929.3653     1737.242     1839.661     91.80834     184.1309     368.2251      1.896     6.44     1251.111     64.97029     93.32031        12     1.300     0.897 -54.60   0
        72     26.2645    881.3431 307.8971941  +6.3041061     803.8804       1868.8     2266.481     92.54106     184.2776     368.6284      2.491     7.77     1251.104     64.97029     113.1707        11     1.715     0.984  54.57   0
        73    891.4337    880.4844 307.5375182  +6.3333763     2332.765     4146.136     3943.716     92.39498     184.2043     368.5551      1.860     4.60     1230.394     64.97029     245.5044        23     1.367     1.141  69.66   0
        74    336.6747    877.6865 307.7682655  +6.3160193     10410.52     22986.06     25988.09     92.54106     184.7168     368.6651      2.296     5.05     1251.052     64.97029     1066.789        64     1.873     1.622  71.65   0
        75     71.6107    879.4442 307.8784061  +6.3064121     869.5521     1642.821     1853.073     91.80834     184.2043     368.2618      2.099     6.33     1251.446     64.97029     108.3879         8     1.374     0.820  30.35   0
        76    208.5993    877.0829 307.8215336  +6.3119803     723.4492     1528.719      1439.96     91.51361     183.7637     368.2251      1.986     4.72     1252.196     64.97029     118.5146         8     1.049     0.602 -71.97   0
        77    100.6526    868.2214 307.8667107  +6.3120220     1025.631     2318.268     2337.723     91.80834     184.3509     368.3718      2.205     6.88     1251.489     64.97029     132.4849        15     1.480     0.896  73.22   0
        78    881.7842    862.3381 307.5421374  +6.3405511     1398.182      2344.51     2714.859     91.80834     184.2776     368.3718      1.843     5.34     1229.489     64.97029     161.9771        18     1.243     1.158  18.30   0
        79     83.8881    861.9967 307.8738903  +6.3140309     1561.467     3283.701     4328.018     91.80834     183.9841     368.2251      2.430     6.23     1251.121     64.97029     188.4128        25     1.479     1.252 -81.36   0
        80    852.0394    861.6788 307.5545271  +6.3398333     1619.087     3229.396     3560.629     92.24867     184.4241     368.5918      2.052     5.04     1230.264     64.97029      188.613        23     1.397     1.168  61.44   0
        81    815.8940    861.2747 307.5695695  +6.3387967     2275.971     4256.714     5083.992     92.10213     184.5705     368.5918      1.979     4.70     1231.114     64.97029     263.7709        27     1.519     1.155  61.01   0
        82    551.7318    852.6837 307.6796918  +6.3335361     216213.9     464423.9     521684.3     92.68691     184.6437     368.6284      2.253     4.85     1240.654     64.97029     20097.79       184     2.053     1.811  68.74   0
        83    396.1460    855.3918 307.7442893  +6.3272181     4846.053     10799.98     12192.12     91.80834     184.2776     368.2618      2.292     5.15     1247.892     64.97029      516.449        47     1.820     1.521  73.27   0
        84    339.2332    853.8644 307.7680031  +6.3259452     7884.767     17570.31     20087.71     92.24867     184.3509     368.5551      2.301     5.08     1250.432     64.97029     764.5658        56     1.856     1.552  72.01   0
        85    639.6586    855.8782 307.6430264  +6.3351513     948.5895     1501.907     1261.645     92.54106     184.3509     368.5185      1.673     3.39      1236.48     64.97029     163.2058         7     0.870     0.592   8.16   0
        86    657.6899    849.8076 307.6357329  +6.3382605      2226.68     4468.829     4745.391     91.95535     183.9841     368.2985      2.128     5.89     1235.812     64.97029     234.4736        26     1.531     1.162  79.38   0
        87    889.7014    848.7088 307.5393015  +6.3464447     4083.616     7603.799     8695.095     92.39498      184.863     368.5551      2.019     5.55     1228.392     64.97029     468.6068        39     1.819     1.419  15.27   0
        88    632.2761    844.0892 307.6464913  +6.3397748     2368.437     4749.935     5409.331     92.39498     184.7168     368.6651      2.160     5.35     1235.772     64.97029     262.9908        29     1.517     1.341  52.83   0
        89   1022.9930    842.8005 307.4840765  +6.3533183     3688.899     5547.464     5530.666     88.66482     157.7374     289.8112      1.584     4.54     1223.931     64.97029      489.615        22     1.500     0.854  75.57  24
        90    820.8326    843.0587 307.5681259  +6.3464859      1146.72     2338.805     2712.176     92.24867     184.4241     368.5551      2.204     6.56     1229.753     64.97029     150.1469        16     1.416     1.054  68.43   0
        91    624.4199    839.4802 307.6499124  +6.3414166     1288.734     3235.498      4624.47     92.10213     183.9841     368.5185      2.793    10.34     1235.533     64.97029     172.8672        29     2.411     1.320 -63.38   0
        92    908.8221    836.4444 307.5317614  +6.3521472      2541.84     4578.776     4629.135     91.80834     184.2043     368.3718      1.962     4.15     1227.152     64.97029     324.1666        25     1.413     1.102  66.48   0
        93    319.1747    836.4124 307.7769299  +6.3324828     773.2808     1471.838     1546.604     91.95535     184.1309     368.5185      2.012     5.08     1250.484     64.97029      107.281         5     1.147     0.637  60.64   0
        94    367.3662    832.9327 307.7570103  +6.3355327     1648.553     3688.484     3700.593     92.24867     184.4241     368.7017      2.060     6.27      1248.28     64.97029     166.5784        28     1.556     1.311  28.05   0
        95     75.5676    828.6696 307.8784735  +6.3275179     12714.56      13953.5     13575.98     92.24867     184.3509     368.6284      0.923     4.17     1250.587     64.97029     5649.678        13     0.953     0.521 -59.06   0
        96    503.5497    822.4782 307.7007393  +6.3444040     1842.111      4229.06     4377.352     92.39498     184.4241     368.5918      2.373     6.02      1241.65     64.97029     216.2418        28     1.501     1.415 -66.55   0
        97    847.6697    821.5403 307.5576874  +6.3562685     779.3345      1447.63     1744.194     92.54106     184.3509     368.5918      1.902     4.87     1227.454     64.97029     123.5798         7     1.071     0.627  45.59   0
        98    550.2469    818.3854 307.6814605  +6.3476544     3710.984     8464.004     10578.29     91.66109     184.1309     368.2985      2.440     5.48     1237.569     64.97029     396.0115        43     1.767     1.516  62.02   0
        99    885.1960    816.3511 307.5422574  +6.3596612     1115.623     1597.944     1415.153     91.66109     184.1309     368.1884      1.536     5.56     1226.203     64.97029     174.7349        10     1.198     0.728  72.35   0
       100    469.3873    817.5621 307.7151086  +6.3452932     859.1094     1835.497     1984.709     91.95535     184.1309     368.2618      2.152     4.89      1243.85     64.97029     118.8148         6     1.127     0.601 -73.80   2
       101    520.8882    812.4685 307.6938663  +6.3491180      12185.9     27131.95     30338.24     92.54106     184.6437     368.5918      2.292     5.09     1239.509     64.97029     1155.812        67     1.898     1.648  74.78   0
       102    110.3891    816.4256 307.8644091  +6.3337435     806.9958     1786.016     1907.403     91.95535     184.1309     368.4452      2.234     5.88     1250.819     64.97029     113.5414         8     1.514     0.642  56.30   0
       103    934.1954    810.6384 307.5220742  +6.3636515     3065.078     5492.497     5918.351     91.36589     184.0575     368.2985      1.918     4.31     1225.087     64.97029     325.9983        30     1.472     1.259  85.15   0
       104    313.4791    801.3705 307.7804771  +6.3467669     1942.583     4415.974     4504.301     92.24867     184.3509     368.5551      2.280     6.44     1249.849     64.97029     211.7318        32     1.658     1.416 -48.25   0
       105     31.6859    802.3481 307.8976056  +6.3369177     978.4137     1949.962     1736.483     92.39498     184.2776     368.7017      2.090     6.79     1249.953     64.97029     163.7415        11     1.462     0.884  29.04   0
       106    778.8934    796.8513 307.5871116  +6.3641764     38097.09     77069.33     85425.07     92.24867     184.1309     368.8116      2.150     4.47     1228.175     64.97029     3712.229        88     1.862     1.611  72.48   0
       107     13.7990    799.3849 307.9051423  +6.3375413     1447.367     2946.224     3423.734     91.95535     183.9841     368.3352      2.315     5.23     1249.745     64.97029     215.9459        20     1.363     1.226 -84.96   0
       108    235.7414    773.6205 307.8137333  +6.3556265     773105.3      2424041      2929551     91.95535     184.2043     368.3718      2.765     5.48     1249.855     64.97029     63685.21       605     2.852     2.227  79.98   4
       109    707.2421    791.4843 307.6170846  +6.3640053     14258.45     31586.27     35783.18     92.39498     184.2043     368.5185      2.278     5.21     1230.312     64.97029     1304.295        56     1.809     1.517  78.15   3
       110    700.9300    788.0212 307.6198253  +6.3652253     56116.92     122358.8     139770.8     91.95535     184.2043     368.5551      2.270     4.77     1230.276     64.97029     5267.767       103     1.983     1.724  69.56   3
       111    345.9095    789.0602 307.7674072  +6.3529374     11732.52     28295.34     33152.88     92.24867     184.4241     368.6651      2.406     5.44     1246.864     64.97029     1236.795        71     1.941     1.729  68.76   0
       112    407.7112    786.8890 307.7417837  +6.3559016     12543.78     30274.86     34924.93     92.10213     184.9361     368.7017      2.392     5.45     1244.657     64.97029     1321.175        72     1.969     1.726  69.52   0
       113    395.7239    789.0897 307.7466940  +6.3545917     819.2873     1926.144     2014.424     92.39498     184.6437     368.6651      2.133     6.86      1245.13     64.97029     119.4838        10     1.520     0.868  41.78   0
       114    944.6140    785.8644 307.5185705  +6.3742319     1609.313     2889.553     3381.411     91.80834     184.1309     368.4452      2.111     4.79         1223     64.97029     187.9629        18     1.319     1.009  78.12   0
       115    901.1051    783.4989 307.5367414  +6.3737615     5133.684     9456.665     10548.74     92.39498     184.9361     368.4085      1.999     4.28     1224.119     64.97029     529.1936        35     1.516     1.329  76.46   0
       116    641.7349    782.6727 307.6446184  +6.3654603     3918.646     8667.919     9392.291     92.39498     184.3509     368.5918      2.223     5.27     1231.485     64.97029     366.2651        40     1.646     1.509  79.22   0
       117    430.7294    780.6482 307.7324227  +6.3592492     975.5959     2034.334     1965.977     92.39498     184.2776     368.6284      2.045     7.16     1243.335     64.97029     129.2356        13     1.308     1.097 -50.98   0
       118    904.1207    792.0925 307.5351999  +6.3703119     6410.708      11854.3     13065.29     92.10213     184.6437     368.6651      1.978     4.24     1224.536     64.97029     738.3478        42     1.561     1.380  66.99   0
       119    677.0029    772.7285 307.6302872  +6.3707445     1401.894     3316.954     3630.716     91.80834     183.9107     368.4085      2.342     7.84     1229.943     64.97029     158.2947        24     1.521     1.324 -76.84   0
       120    410.6776    769.5511 307.7411332  +6.3631626     30538.27     73012.65     83461.77     92.39498     184.4241     368.5551      2.417     5.39     1243.615     64.97029     2959.389        99     2.026     1.796  73.86   0
       121    121.4955    774.3594 307.8612097  +6.3514920     781.7673     1657.073     1583.159     92.39498     184.2776      368.775      1.934     4.42     1249.914     64.97029     127.8346         7     1.169     0.666  -8.40   0
       122    145.8940    772.6878 307.8511217  +6.3530007     611.7654     867.9901     685.6275     92.39498      184.863     368.6651      1.354     4.46     1250.485     64.97029     95.02893         6     0.969     0.583  60.35   0
       123    528.4869    768.5179 307.6921826  +6.3675268     4237.405     9455.377     10098.15     92.10213     184.5705     368.6651      2.275     5.59     1235.888     64.97029     399.8127        40     1.724     1.478  72.66   0
       124    444.9610    766.6342 307.7269762  +6.3655138     2529.004     6243.587     9053.091     92.10213     184.2043     368.3718      3.198    11.55     1241.549     64.97029     301.3702        52     2.843     1.496  59.55   2
       125    773.4995    764.9354 307.5904236  +6.3771806     7762.352     16092.86     18066.55     92.39498     184.4973     368.5551      2.186     4.62     1226.042     64.97029     736.6229        57     1.792     1.574  79.61   0
       126    131.5399    757.4313 307.8576041  +6.3588213     6757.587     15957.63      18369.4     92.10213     184.4241     368.5551      2.413     5.43     1249.681     64.97029     688.9958        54     1.830     1.624  70.31   1
       127      3.3533    760.4909 307.9107980  +6.3532561     713.7015     1164.971     863.2603     92.39498     175.9532     313.2835      1.698     4.84      1248.05     64.97029     114.2809         6     0.964     0.690 -65.83  16
       128    795.2568    759.4972 307.5815586  +6.3801519     825.7275     1475.723     1617.227     92.24867     184.2776     368.8482      1.980     5.21     1225.238     64.97029       108.26         7     0.968     0.792 -48.83   0
       129    139.5452    757.4213 307.8542760  +6.3590938     1693.638     3888.453      4412.56     91.80834     184.3509     368.3718      2.240     6.76     1249.907     64.97029     185.8726        29     1.567     1.400  50.10   1
       130    124.2921    754.5807 307.8607137  +6.3597557      1845.71     4635.187     7367.537     92.24867     184.0575     368.4085      3.356    10.46     1249.392     64.97029     216.7268        42     2.589     1.355  74.00   3
       131    124.3907    747.1938 307.8609218  +6.3628103      1034.34     1941.482     2497.283     91.66109     184.1309     368.4085      2.009     5.55     1249.142     64.97029     128.9425        12     1.242     0.821  55.87   3
       132    918.9915    753.4716 307.5303083  +6.3867605     4892.619     8975.704     9676.832     91.80834     183.8372     368.4452      1.959     4.10     1222.147     64.97029     552.2747        34     1.550     1.227  78.49   0
       133    968.6578    753.5884 307.5096516  +6.3883643     1307.018     2448.844      2547.73     91.66109     184.2776     368.2618      2.101     5.20      1220.19     64.97029     159.5477        15     1.122     1.009 -49.27   0
       134    674.6915    751.4213 307.6319627  +6.3794691     954.4668     2108.339     2867.276     92.24867     184.1309     368.4085      2.349     7.00     1228.208     64.97029     120.5229        12     1.274     1.079  36.01   0
       135    561.8609    750.0868 307.6789242  +6.3762548     1229.229     2846.671     3714.748     92.54106     184.5705     368.7017      2.654     9.32      1232.71     64.97029     146.4834        24     1.926     1.262 -48.42   0
       136    942.7478    745.2184 307.5207057  +6.3909601     2232.597     4309.821     4124.485     91.80834     184.4241     368.3352      2.059     5.06     1220.834     64.97029      252.076        26     1.515     1.189  65.43   0
       137    913.1102    745.5631 307.5330185  +6.3898317     2243.562     3997.484     3964.046     92.54106     184.2776     368.6284      1.893     4.51     1221.919     64.97029     285.5841        24     1.308     1.263 -46.29   0
       138    973.6574    744.6342 307.5078720  +6.3922295     1374.808     2663.313     2830.845     92.24867     184.3509     368.5918      2.012     5.39     1219.568     64.97029     206.6836        16     1.214     1.152 -84.79   0
       139    664.9717    744.6095 307.6362328  +6.3819587     780.6682     1609.492     1538.354     91.95535     184.1309     368.4452      1.982     6.94     1228.087     64.97029     89.21436         9     1.601     0.844  -3.23   0
       140    812.2519    743.4155 307.5750302  +6.3873612     694.7764     1431.002     1009.261     91.66109     184.4241     368.2618      1.727     4.52     1224.029     64.97029     125.2891         6     1.131     0.515 -46.28   0
       141    238.2470    739.9819 307.8138243  +6.3696055     1005.197     2750.084     4251.065     91.80834     184.2776     368.3352      3.445     8.38      1247.76     64.97029     125.6906        18     1.512     1.299  10.60   0
       142    957.4688    733.0270 307.5149919  +6.3964859     1878.133     3692.837     3573.971     91.95535     184.2043     368.4818      2.006     4.99     1219.581     64.97029     205.6437        22     1.293     1.194 -72.71   0
       143    904.7254    734.3827 307.5368792  +6.3941712     794.6909     1334.713     1184.597     91.80834     184.0575     368.4818      1.902     5.77     1221.416     64.97029     102.0961         9     1.143     0.819 -50.47   0
       144    999.1693    726.1949 307.4978796  +6.4006947      1331.17      2452.41     2178.483     91.80834     184.2043     368.3352      1.878     6.74      1217.72     64.97029     141.8733        16     1.268     1.013 -76.13   0
       145    800.6826    724.6498 307.5804695  +6.3947276     762.8078     1618.105     1346.654     92.39498     184.3509     368.6284      2.016     5.39      1223.31     64.97029     105.8787         6     1.321     0.621 -42.19   0
       146    886.8040    722.0093 307.5447456  +6.3986860     1087.657     2382.547     3358.147     91.66109     183.9841     368.4085      2.381     5.24     1220.867     64.97029     147.8022        16     1.265     1.082  86.66   0
       147    843.3973    713.6512 307.5630755  +6.4006935     1050.164     1959.601     1852.963     91.66109     183.9841     368.1151      1.884     6.79     1221.429     64.97029     150.1732        14     1.661     0.777  63.39   0
       148     43.5043    712.6646 307.8957181  +6.3743592     1560.571     3205.551     4194.248     92.24867     184.4973     368.6284      2.419     6.58     1246.473     64.97029     164.5834        22     1.592     1.144  75.26   0
       149    655.6790    700.9279 307.6415620  +6.3996927     3658.419     8743.101     10061.18     92.68691     184.6437     368.5551      2.394     5.86     1225.901     64.97029     335.5973        45     1.795     1.582  83.22   0
       150    602.3926    699.9678 307.6637525  +6.3983111     713.0264     1513.295     1545.172     91.80834     184.2043     368.3718      2.228     7.06      1228.51     64.97029     108.7875         9     1.641     0.852  84.49   0
       151    629.4126    696.8657 307.6526207  +6.4004943     1312.438     3321.778     3810.256     91.80834     184.1309     368.4818      2.418    10.00     1227.065     64.97029     128.4756        29     1.826     1.526  53.58   0
       152    118.8967    697.1538 307.8648934  +6.3832957     1920.616     4853.275     5161.286     92.39498     184.2776      368.775      2.384     6.86     1246.212     64.97029     244.0385        36     1.731     1.569 -48.78   0
       153    992.4064    696.0367 307.5017001  +6.4129279     1978.613     3080.723     3378.062     91.36589     184.0575     368.3352      1.747     3.83     1216.382     64.97029      269.516        17     1.157     0.987  75.46   0
       154    772.4476    693.0151 307.5932704  +6.4068546     12446.96     27058.98     30026.48     91.66109     184.2043     368.2985      2.232     4.88      1221.89     64.97029     1245.141        67     1.850     1.623  73.18   0
       155    902.2505    692.7119 307.5393026  +6.4113024     2474.469     4985.487     6164.596     92.39498     184.1309     368.7383      2.228     4.84     1217.877     64.97029     267.6401        33     1.538     1.398  59.41   0
       156    246.1871    686.9152 307.8123100  +6.3917916     3294.265     8284.471     10318.58     91.95535     184.2043     368.4085      2.616     6.09     1242.621     64.97029     367.9713        50     1.936     1.651  79.64   0
       157    653.0620    686.0362 307.6431497  +6.4057568     4111.473     9296.648     10610.23     92.39498     184.3508     368.5551      2.313     5.20     1225.267     64.97029     409.6592        47     1.744     1.621  63.20   0
       158    913.7297    678.8331 307.5349933  +6.4174175     962.2529      1485.32      1517.88     92.24867     184.3509     368.6284      1.669     6.34      1216.42     64.97029      141.464        12     1.388     0.815  82.33   0
       159    724.8749    674.2982 307.6136804  +6.4130006     2250.933     5398.416     6641.896     91.80834     184.4973     368.5918      2.479     6.15     1221.463     64.97029     223.6294        36     1.722     1.457  43.68   0
       160    991.0592    670.7556 307.5031055  +6.4233264     6808.098     12611.76     13540.28     92.24867     184.2776     368.7017      1.955     4.21     1215.011     64.97029     697.7155        45     1.620     1.382  65.99   0
       161     10.3807    671.4254 307.9108827  +6.3902814     1205.799     3026.481     3721.184     91.80834     184.1309     368.4818      2.513     8.74     1244.756     64.97029     149.9625        24     1.571     1.359 -26.51  16
       162    929.2663    670.9639 307.5287956  +6.4211852       1784.5      3503.89     3426.321     92.24867     184.3509     368.6651      2.019     5.29      1215.54     64.97029     223.0317        24     1.428     1.215  29.98   0
       163     68.6449    666.0601 307.8868371  +6.3944534     13975.71     34262.16     40010.81     92.24867     184.2776     368.7017      2.454     5.58     1244.429     64.97029     1598.312        79     2.052     1.768  72.67   0
       164    530.8398    665.7830 307.6946543  +6.4100428     910.9229     2088.356     2816.768     91.95535     184.1309     368.3352      2.730     8.72     1230.281     64.97029     126.7628        12     1.571     1.350  11.97   2
       165    500.1979    665.2138 307.7074155  +6.4092542     756.1435      1410.17     2329.468     91.95535     183.9841     368.3718      2.590     3.83     1231.847     64.97029     109.6644         5     0.830     0.634  34.41   0
       166    920.0823    662.2452 307.5329065  +6.4244812     795.1159     1149.625     857.7884     92.39498     184.3509     368.5918      1.539     5.63     1215.178     64.97029     107.8865         8     1.143     0.863  34.42   0
       167    714.2689    657.9698 307.6186383  +6.4193919     2066.984     4859.476     5715.685     92.24867     184.3509     368.5551      2.453     6.38     1221.447     64.97029     219.8384        35     1.629     1.519  83.76   0
       168    736.2524    656.2364 307.6095545  +6.4208409     2484.793     5457.644     5785.094     92.24867     184.3509     368.6284      2.287     5.48      1220.66     64.97029     228.4872        34     1.536     1.440  55.67   0
       169    566.4982    655.4900 307.6801717  +6.4154856     1352.703     2175.484     2091.358     92.39498      184.863     368.5551      1.695     7.63     1228.384     64.97029     167.7249        17     1.706     0.956  63.12   3
       170    569.2410    653.3150 307.6791041  +6.4164756      1461.41     2710.224     3017.447     92.39498     184.2776     368.5551      1.985     7.09     1228.186     64.97029     189.8983        17     1.678     0.838  57.85   3
       171    228.4874    654.5080 307.8207614  +6.4045850     962.1473     2759.047     3755.407     92.39498      184.863     368.7017      2.938     7.75     1240.637     64.97029     115.0356        13     1.853     0.906 -21.04   0
       172   1009.2920    652.1470 307.4961452  +6.4316196     3941.381     7231.477     7733.054     92.24867     184.1309      368.775      1.973     4.26     1213.016     64.97029      438.573        35     1.644     1.241  57.60   0
       173    974.6671    651.2030 307.5105760  +6.4308583     6015.992     11535.76     12755.97     91.66109     183.9841     368.3718      2.053     4.23     1213.546     64.97029     647.8773        42     1.569     1.397  57.25   0
       174    313.5982    652.4125 307.7854406  +6.4083011     657.0236     1215.774     1201.261     91.95535     183.9841     368.3352      1.654     3.49     1238.263     64.97029     75.78894         5     1.091     0.322  69.23   0
       175    420.3900    645.9690 307.7412495  +6.4145359     1517.803     4039.463     5031.015     91.80834     184.1309     368.4085      2.781     8.08     1234.575     64.97029     185.0598        32     1.655     1.610 -26.93   0
       176    133.3573    644.9346 307.8606413  +6.4053506     12706.05     32211.96     37088.54     92.39498     184.2776     368.6284      2.492     5.79     1242.878     64.97029     1394.433        74     2.016     1.786  70.46   0
       177     87.2733    647.3425 307.8797227  +6.4028101      519.984     1194.447     1908.999     92.39498     184.3509     368.5551      1.707     3.82     1243.181     64.97029     107.8595         5     1.034     0.406  15.01   0
       178    969.5754    634.1217 307.5132647  +6.4377450     5148.717     10525.05     12214.66     91.95535     184.1309     368.5551      2.181     4.64     1212.319     64.97029     577.1982        43     1.732     1.407  60.19   0
       179    563.1607    629.5765 307.6824296  +6.4260784     24955.65     63549.44     74548.59     91.95535     184.0575     368.3352      2.518     5.73     1227.952     64.97029     2252.267       100     2.111     1.870  62.25   0
       180   1023.3489    628.9433 307.4910749  +6.4416720     38970.21     56951.44     60603.25     84.92987     152.2469     283.6398      1.519     4.78     1210.375     64.97029     7066.436        49     1.791     0.897  84.77  24
       181    523.3765    629.7900 307.6989668  +6.4246614     420.7247     751.3736     1029.053     91.95535     184.1309     368.4452      2.245     4.94     1229.653     64.97029     76.06189         5     1.084     0.638 -26.89   0
       182    170.9432    626.4109 307.8456366  +6.4142624     1415.804     3823.625     4223.127     91.66109     184.2776     368.2251      2.517    10.64     1241.325     64.97029      163.395        37     1.928     1.671  48.41   0
       183     63.6951    619.7012 307.8904595  +6.4134364     867.8025      1770.03     1803.203     92.39498     184.9361     368.4085      2.298     6.03     1241.868     64.97029     105.9622         9     1.116     0.917  10.92   0
       184    460.4901    613.4377 307.7256677  +6.4293145     31338.98      82675.2     97857.14     92.39498     184.2776     368.6284      2.583     5.95     1230.913     64.97029      3037.58       107     2.128     1.934  68.80   0
       185      5.4583    615.0055 307.9148342  +6.4134209      806.209     1706.241     2247.471     91.80834     184.2043     342.9644      2.021     4.36     1242.716     64.97029     108.6881         8     1.217     0.444  78.49  16
       186    135.6796    609.6574 307.8608651  +6.4200002     779.9759     1631.914     1591.738     92.39498     184.3509     368.5551      2.230     7.36      1240.62     64.97029     105.1694        12     1.481     1.024 -63.71   0
       187    306.6298    602.1292 307.7900309  +6.4288383     914.2728     2469.362     3632.689     92.24867     184.3509     368.5918      2.991     8.66     1233.717     64.97029     138.5665        14     2.045     1.023  50.46   0
       188    732.4741    596.9259 307.6131138  +6.4452151     2980.622     7082.219     7555.125      92.6869     184.6437     368.7017      2.325     5.69     1219.032     64.97029     294.7717        42     1.712     1.579  77.26   0
       189    786.0333    592.0998 307.5910016  +6.4489937     8090.585     18690.77     21288.88     92.39498     184.2043      368.775      2.327     5.29     1215.573     64.97029     774.6488        54     1.824     1.581  68.33   0
       190   1002.9951    592.7228 307.5007504  +6.4559576     792.4003     1533.525     1356.288     91.95535     183.7637     368.4085      1.869     4.30     1207.676     64.97029     121.4401         6     1.134     0.464  71.53   0
       191    609.8416    590.3574 307.6643334  +6.4438375     1539.407     3759.694     4235.625     92.10213     184.3509     368.4452      2.539     7.44     1223.862     64.97029     162.5586        26     1.709     1.159  61.52   0
       192    529.7841    590.9193 307.6976078  +6.4409320     555.6575     1343.992      2360.48     91.95535     184.0575     368.4085      2.760     3.77       1227.8     64.97029     91.08362         5     1.165     0.351 -78.88   0
       193    650.3296    581.0605 307.6478076  +6.4490290     1327.797     1238.921     1177.974     92.54106     184.3509     368.6284      0.751     1.30     1221.635     64.97029     556.8773         6     0.638     0.469  85.58   0
       194    862.0542    575.5126 307.5599415  +6.4583777     1888.755     4101.155     4701.169     92.39498     184.2043      368.775      2.272     5.55     1211.866     64.97029     223.6038        32     1.603     1.424  12.09   0
       195    820.5157    573.0483 307.5772993  +6.4580123     1379.841     3187.755     3426.394     92.39498     184.3509     368.6284      2.247     8.47      1213.31     64.97029     144.3789        24     1.474     1.359 -57.23   0
       196    793.0000    568.4494 307.5888967  +6.4589954     1146.672     2456.468     3905.433     91.51361     183.7637     368.0417      3.141     6.99     1214.286     64.97029     148.5107        14     1.695     0.808 -87.08   3
       197    790.8055    569.2212 307.5897835  +6.4586035      1148.81     2315.025     3635.334     91.95535     184.0575     368.3718      2.337     6.54     1214.414     64.97029     179.8921        12     1.680     0.715 -86.45   3
       198    249.0240    567.8377 307.8151410  +6.4410738     3916.829     10053.35     11552.28     91.95535     184.1309     368.2985      2.487     6.01     1234.005     64.97029     411.2316        51     1.911     1.641  72.96   0
       199    801.3524    563.9052 307.5855753  +6.4611508     93031.13     213939.7     243875.2     92.24867     184.2043     368.7383      2.363     5.25     1213.799     64.97029     8672.603       135     2.049     1.834  72.60   0
       200    183.1765    562.4734 307.8427046  +6.4410829     27803.83     76887.16      93337.2     91.95535     184.1309     368.5185      2.646     6.32      1236.82     64.97029     3171.353       115     2.207     1.979  76.43   0
       201    107.3010    558.7959 307.8743814  +6.4400573     3069.474     8116.057     9565.976     92.10213     183.9841     368.1884      2.621     6.13     1238.511     64.97029     353.3446        48     1.852     1.674  28.01   0
       202    972.4318    555.6579 307.5147008  +6.4702523     973.8551     1946.127     1815.694     92.24867     184.3509     368.5185      2.005     7.07     1206.414     64.97029      134.333        12     1.492     0.940 -64.60   0
       203    837.9214    551.2477 307.5707906  +6.4675975     2701.542     6296.223     7098.441     92.39498     184.4241     368.5185      2.353     5.52     1211.808     64.97029     263.6398        37     1.630     1.484  70.45   0
       204    356.4967    549.6236 307.7710605  +6.4521961     7995.786     22405.44     26836.67     92.54106     184.0575     368.4085      2.663     6.39     1227.745     64.97029     841.8887        73     2.055     1.866  54.89   0
       205    496.9067    551.1727 307.7126159  +6.4562518     5134.645     5221.264     5347.432     92.54106     184.0575     368.4452      0.852     2.11     1226.696     64.97029     1640.236         7     0.813     0.432  52.22   0
       206    158.9393    548.6809 307.8532487  +6.4459674     950.3583     2344.193     3128.041     92.54106     184.3509     368.5551      2.855     9.27     1237.062     64.97029     128.4871        16     1.913     1.254 -37.02   0
       207    791.7783    544.5064 307.5902070  +6.4688451     3455.986     8053.328     8737.468     92.39498     184.1309     368.3718      2.316     5.50     1213.489     64.97029     349.9518        47     1.752     1.671 -68.25   0
       208    522.8218    544.5186 307.7020619  +6.4598664     3245.458     8695.229     10544.41     92.10213     183.9841     368.5185      2.593     6.60     1225.175     64.97029     296.4741        51     1.941     1.711  67.48   0
       209    380.8954    541.0844 307.7612011  +6.4565398     717.9645     1881.978     2018.807     92.39498       184.79     368.7017      2.319     8.82     1226.991     64.97029     110.9265        12     2.314     0.940 -47.72   0
       210    169.9519    537.7859 307.8490363  +6.4508370     3158.627     8724.242     10426.43     91.66109     184.2776     368.2618      2.580     6.73      1235.44     64.97029      351.972        52     1.959     1.722  76.29   0
       211    568.0908    537.7446 307.6834629  +6.4641767     1257.242     3191.526       3936.4     92.24867     184.2043     368.7383      2.708     7.43     1223.687     64.97029     172.0151        22     1.729     1.376 -31.93   0
       212    265.1511    534.1546 307.8095689  +6.4555274     39413.27     111313.5     134417.2     92.39498     184.2043     368.6284      2.661     6.44     1229.789     64.97029     4684.088       123     2.231     2.011  74.51   0
       213     41.6387    536.3803 307.9024433  +6.4471126     2802.067     6661.556     7408.802     91.95535     184.1309     368.2618      2.423     6.11     1237.257     64.97029     300.0702        43     1.843     1.594  88.63   0
       214    808.6151    536.9379 307.5834582  +6.4725325     931.3063     1869.189      2044.35     91.80834     184.2776     368.3718      2.164     7.04     1212.477     64.97029     114.9545        13     1.245     1.114 -71.73   0
       215    788.1314    526.3681 307.5923314  +6.4762162     9321.681     21684.31     23879.32     92.24867     184.3509     368.5918      2.332     5.25       1212.9     64.97029     888.9668        63     1.876     1.679  73.40   0
       216    491.8456    524.8915 307.7156038  +6.4669387     19558.23     54202.44     67835.88     92.39498     184.2776     368.7383      2.726     6.20     1225.358     64.97029     1730.008       115     2.240     2.090  53.15   0
       217    964.2675    527.7747 307.5190289  +6.4814989     1077.213     1996.141     2178.381     91.95535     184.2043     368.4818      1.962     5.38     1204.796     64.97029     148.4266        12     1.164     0.945  84.04   0
       218    250.2074    528.8123 307.8159634  +6.4572335     623.8056      1442.51       2122.6     91.95535     184.1309     368.4818      2.608     4.43     1230.042     64.97029     86.07239         5     0.764     0.730  30.81   0
       219    204.9862    520.9756 307.8350335  +6.4589552     938.5093     2329.685     2923.627     92.10213     184.1309     368.5185      2.633     8.88     1231.478     64.97029     138.6786        16     1.889     1.166 -75.67   0
       220    715.4291    521.7712 307.6227222  +6.4756917     552.5777     1256.695     1898.518     91.80834     184.0575     368.2985      1.767     4.50      1216.44     64.97029      80.2511         5     1.327     0.434 -58.42   0
       221    650.6787    521.3439 307.6496660  +6.4737083     1098.578     2021.761     3382.506     92.54106     184.3509     368.5918      2.215     6.83     1220.388     64.97029     144.0222        12     1.816     0.720  75.87   3
       222    653.2325    519.7713 307.6486566  +6.4744432     1485.893     3123.093     4509.702     91.80834     184.0575     368.3352      2.473     6.66     1220.264     64.97029     166.6891        19     1.527     1.010  73.38   2
       223    390.0478    514.7040 307.7582823  +6.4677430     738.1316     1975.345     2723.023     92.24867     184.2043      368.775      2.629     5.26     1225.006     64.97029     95.12671         5     1.122     0.695  27.62   2
       224    321.2232    514.1006 307.7869253  +6.4656888     1727.495     4777.149     5645.782     92.54106     184.0575     368.3352      2.624     8.92     1225.554     64.97029     210.3556        36     1.676     1.624  73.90   0
       225    136.2350    512.6215 307.8639064  +6.4601008     12125.74     33104.39     39415.82     91.80834     184.1309     368.2985      2.625     6.14     1233.546     64.97029     1403.376        86     2.148     1.901  70.74   0
       226    501.6989    513.2615 307.7118968  +6.4720721     925.7924     2357.634     2904.098     92.10213     184.4241     368.7383      2.618     7.90      1224.38     64.97029     125.7695        16     1.543     1.131 -21.76   0
       227    862.9581    512.6729 307.5616695  +6.4843658     899.0474     1980.863     2228.935     92.24867     184.4241     368.6284      2.268     4.89     1208.243     64.97029     120.7684         8     1.038     0.653  83.82   2
       228    101.7253    510.8571 307.8783172  +6.4596719     1333.309     3506.943     3893.289     92.24867     184.2043     368.5551      2.530     7.75     1234.386     64.97029     158.9019        26     1.644     1.585  68.87   0
       229    961.5991    506.9155 307.5208364  +6.4900268     3433.323     7171.303      7693.14     91.51361     183.7637     368.2618      2.119     4.97     1203.267     64.97029     393.1724        37     1.648     1.384  77.79   0
       230      2.0203    497.1113 307.9202446  +6.4620026     11997.22      19601.4     21397.55     89.27212     158.0796     290.4165      1.771     5.45     1233.618     64.97029     1475.372        37     1.898     0.943  88.69  24
       231    433.1816    493.5970 307.7410535  +6.4779045     19322.68     54327.96     65446.57     91.95535     183.8372     368.3718      2.659     6.46     1223.388     64.97029     1934.662        98     2.177     1.949  68.74   0
       232    641.2391    493.2914 307.6545332  +6.4849813     6054.385     15625.75     19003.41     92.54106     184.2776     368.6284      2.554     5.95     1220.059     64.97029     545.5127        62     1.935     1.754 -89.06   0
       233    198.4392    491.2668 307.8387575  +6.4710075     9180.531     25730.79     31831.37     92.24867     184.2776     368.7017      2.717     6.39     1228.069     64.97029     1023.556        83     2.185     1.926  67.71   0
       234    974.2635    491.8269 307.5160737  +6.4966809     696.5414     1537.318     1751.118     91.95535     184.2776     368.4818      2.448     4.93     1201.064     64.97029     82.18762         7     1.008     0.683 -76.25   0
       235    563.0957    489.9770 307.6871444  +6.4837416     1435.769     3670.665     3898.245     92.39498     184.0575     368.4085      2.500     8.27     1222.576     64.97029     154.9761        27     1.605     1.386  64.86   0
       236    165.9358    491.7441 307.8522587  +6.4697205     789.5554     1467.906     1514.297     92.54106     184.2776     368.5918      1.969     3.99     1229.873     64.97029      109.326         6     0.937     0.486  37.90   1
       237    936.8369    486.9678 307.5318027  +6.4974432     3049.641     6288.214     6630.796     91.95535     184.0575     368.2985      2.121     4.90     1203.796     64.97029     362.1622        35     1.609     1.384  62.03   0
       238    609.7935    485.4445 307.6678749  +6.4871730     3151.658      8262.39     10239.75     91.80834     184.1309     368.2251      2.650     6.18      1220.97     64.97029     350.1324        55     1.975     1.782  76.46   0
       239    959.2474    479.2734 307.5227392  +6.5013671     2309.102     4351.623     4422.421     92.24867     184.4241     368.5918      1.981     4.53     1201.306     64.97029     267.1772        25     1.396     1.186 -74.16   0
       240    522.1807    477.0068 307.7045967  +6.4877324     3458.185      9809.55     12417.06     91.95535     183.9841     368.3718      2.761     6.65     1222.337     64.97029     365.6978        56     2.016     1.746  79.02   0
       241    370.3338    476.2369 307.7677753  +6.4829730     880.4301     1478.308     2453.851     92.24867     184.2776     368.6651      1.591     5.78     1221.809     64.97029     146.6462        10     1.745     0.540 -85.45   2
       242    368.0000    476.0450 307.7687524  +6.4829742     883.8324     2653.576     3143.104     91.51361     183.9107     368.1151      2.708     7.39      1221.81     64.97029      111.901         9     2.273     0.673 -84.84   2
       243    878.5219    472.5066 307.5565411  +6.5014761     1867.176     4171.282     6205.154     92.10213     184.5705     368.6651      2.843     5.92     1205.145     64.97029     194.6152        29     1.561     1.336  53.71   0
       244    885.9453    467.2349 307.5536300  +6.5039008     1495.062     3232.949     3848.464     92.24867     184.3509     368.6284      2.283     6.16     1204.609     64.97029     166.9996        24     1.628     1.057  60.06   0
       245    709.5527    462.9908 307.6271374  +6.4997767     1447.731      3811.91     4473.554     91.80834     184.2776     368.1884      2.525     8.07     1215.175     64.97029     175.9705        32     1.905     1.503  55.87   0
       246    380.9361    461.3123 307.7638680  +6.4894927     1622.754     4779.033     5572.219     92.39498     184.4973     368.5918      2.781     8.93     1219.972     64.97029     181.8575        44     1.934     1.712  56.19   0
       247    608.6814    457.8210 307.6692647  +6.4985466     4851.266     12870.41     15745.17     92.10213     183.9841     368.5185      2.623     6.13     1219.484     64.97029     474.9957        64     2.012     1.840 -87.32   0
       248    771.3878    454.0245 307.6017196  +6.5055421     8840.131     21375.69     26405.82     91.95535     184.1309     368.5185      2.532     5.55     1210.637     64.97029     883.8447        79     2.187     1.808 -70.00   0
       249    293.0000    455.0580 307.8006509  +6.4891324     1066.857     1989.325     3035.273     91.51361     183.9107     368.1884      2.448     7.21     1219.811     64.97029     160.7811        16     1.701     0.855 -72.73   2
       250    289.6825    454.6526 307.8020443  +6.4891888     969.7609     1836.953     2650.767     92.39498     184.3509     368.6284      2.963     7.70     1219.839     64.97029     119.8596        13     1.839     0.903 -84.40   2
       251     72.4265    462.0150 307.8921497  +6.4788634     945.9067     2292.962     2930.845     91.95535     184.2043     368.5185      2.465     6.67     1230.368     64.97029     135.6923         9     1.705     0.733  24.83   0
       252    956.3770    449.3507 307.5249341  +6.5136323     1249.824     2597.299     3188.486     91.95535     184.4241     368.4818      2.292     5.91     1199.347     64.97029     165.6987        14     1.374     1.021 -85.59   0
       253    798.9835    450.7990 307.5903500  +6.5077940     683.9398     1433.869     1478.823     91.95535     183.8372     368.2618      1.933     4.31     1208.415     64.97029     113.4885         6     1.040     0.509  80.91   0
       254    109.2101    446.5708 307.8773733  +6.4864772      2126.92     5857.618     7417.302     91.80834     184.1309     368.4085      2.726     7.26     1228.274     64.97029     230.0762        44     1.931     1.634 -52.85   0
       255    745.2407    445.8413 307.6128691  +6.5080508     902.2476       2314.7     3181.602     92.10213     184.3509     368.4452      2.607     5.96     1212.075     64.97029     153.1818        11     1.506     0.867  76.25   2
       256   1010.3083    443.8190 307.5026872  +6.5177109     2981.357     6245.145     6654.862     92.24867     184.0575     368.4452      2.141     5.16     1195.247     64.97029      290.335        34     1.669     1.263  63.08   0
       257    268.6203    445.2586 307.8111203  +6.4923636     607.8405     1434.565      2522.67     91.95535     184.2043     368.3718      3.025     4.37     1220.028     64.97029     105.2576         6     1.077     0.505  87.32   2
       258    346.6011    441.0103 307.7788312  +6.4967298     1193.088     2054.928     2303.347     91.95535     183.9841     368.3718      1.911     6.02     1217.636     64.97029     166.2152        14     1.602     0.636  63.47   3
       259    343.5884    440.7852 307.7800917  +6.4967219      1085.43     2664.774     2895.711     92.10213     183.9841     368.5185      2.454     8.71     1217.678     64.97029     134.2925        19     2.018     1.051  83.44   3
       260    700.4172    439.5994 307.6317216  +6.5091346     709.6504     1813.493     2246.852     91.95535     183.8372     368.2251      2.677     8.24      1214.43     64.97029     112.5005        10     1.747     1.086  23.25   0
       261    463.0881    431.5891 307.7307002  +6.5045182     421.2401     1087.531     1364.095     91.95535     184.0575     368.4452      2.205     4.32     1216.398     64.97029     84.25635         6     1.508     0.352  46.09   0
       262    826.7214    429.2180 307.5795360  +6.5176328     962.8798     1926.952     1520.049     91.95535     183.9841     368.5185      1.999     4.64     1205.774     64.97029     137.0908         9     1.102     0.803 -37.28   0
       263    709.8270    425.9698 307.6282649  +6.5150785     7415.261     19233.13     22558.89     91.80834     184.0575     368.4085      2.487     5.87     1213.077     64.97029     738.5839        69     1.979     1.778  78.09   0
       264    812.2800    428.5612 307.5855647  +6.5174231     1105.927     2488.436     2966.107     92.24867     184.4241     368.5551      2.466     7.43     1206.319     64.97029      142.135        14     1.413     1.092 -14.91   0
       265    630.7639    422.0515 307.6612809  +6.5140593     1388.045       3946.9     5160.479     92.24867     184.3509     368.5185      2.802     9.06      1216.47     64.97029     148.0022        33     1.700     1.592 -57.33   0
       266    603.1541    417.1624 307.6729287  +6.5151571     7514.024     21224.34     29654.07     92.10213     184.2776     368.4452      3.003     7.24     1217.056     64.97029     716.1713        98     2.751     1.890  38.31   0
       267    934.9909    415.7488 307.5349536  +6.5268012     2194.751     4663.796     5101.387     91.80834     184.2043     368.2251      2.172     5.76     1198.105     64.97029     255.1578        28     1.514     1.355  43.48   0
       268    374.2647    412.0012 307.7683019  +6.5096384     12604.58     36583.04     44844.18     91.66109     184.0575     368.3352      2.700     6.56     1213.935     64.97029     1398.224        91     2.189     1.965  73.30   0
       269    890.6472    412.0363 307.5535223  +6.5268589     829.3613     2187.075     2716.469     91.95535     184.4241     368.5185      2.559     7.86     1201.431     64.97029     98.62439        12     1.558     1.108 -25.89   2
       270    120.3601    411.5222 307.8739185  +6.5013285     1083.564      3174.69     3759.302     92.24867     184.3509     368.6284      2.612     9.00     1225.274     64.97029     129.4719        24     1.708     1.434  73.02   0
       271     53.3173    408.5553 307.9019014  +6.5003039     628.4408     1850.813     2136.853     92.39498     184.3509     368.5918      3.215     8.53     1227.818     64.97029      97.6333        11     2.250     0.902  48.19   0
       272    903.9160    406.0402 307.5482040  +6.5297775     3179.447     6828.986       7414.3     92.39498     184.2776     368.5185      2.293     5.52     1199.929     64.97029      360.385        43     1.782     1.556 -85.62   0
       273    231.8887    402.6381 307.8278330  +6.5087380     6277.574     17611.98      21360.4     92.39498     184.2043     368.6284      2.657     6.34     1218.743     64.97029     644.9441        71     2.093     1.857  75.96   0
       274     55.1023    405.8959 307.9012488  +6.5014624     643.1884      1346.52     1833.545     92.39498     185.0091     368.4085      2.158     4.34     1227.544     64.97029     105.1566         5     1.080     0.497  37.68   0
       275    954.2451    394.6676 307.5276503  +6.5361501      656.345     1093.395     788.7438     92.39498     184.2776     368.6284      1.878     4.23     1195.477     64.97029     109.8293         5     0.906     0.563  52.00   0
       276    132.2000    391.3938 307.8696733  +6.5100400     2361.669     6661.782     7913.144     91.51361     183.9107     368.3718      2.601     6.85     1223.746     64.97029     313.0442        51     1.998     1.712  80.14   0
       277    238.2336    390.2239 307.8256125  +6.5140785     581.5576     1278.228     1686.133     91.80834     184.1309     368.3352      1.921     3.84     1217.187     64.97029     95.91406         5     1.336     0.317  58.67   0
       278    154.4663    386.7278 307.8605700  +6.5127142     1297.892     3372.963     3728.989     92.39498     184.4241     368.6651      2.470     8.72     1222.544     64.97029     142.6694        24     1.652     1.286 -16.48   0
       279    379.2192    381.2994 307.7672744  +6.5224861     930.6204     2200.114     2891.413     92.39498     184.2043     368.3352      2.696     7.43     1209.752     64.97029     139.3491        14     1.805     1.101  43.41   2
       280    964.7474    382.0068 307.5237054  +6.5417294     635.3036     1146.895     1417.908     91.80834     184.1309     368.2618      1.950     4.60     1193.633     64.97029     108.4863         6     0.947     0.635  49.13   0
       281     28.0257    376.4894 307.9135027  +6.5126998     1589.432     4358.387     5444.516     92.54106     184.1309     368.4085      2.646     7.96     1226.147     64.97029     184.6188        34     1.664     1.620 -72.64   0
       282    430.0000    375.9851 307.7463321  +6.5263802     2912.267     5905.258     7270.588     91.80834     183.9107     368.2618      2.179     6.59     1208.931     64.97029     338.2582        30     2.051     1.054  78.43   3
       283    433.0090    374.5422 307.7451291  +6.5270769     2832.873     5247.238     6287.871     91.66109     184.2776     368.2618      2.014     6.36     1208.794     64.97029      362.329        24     1.733     1.024  72.65   3
       284    771.7833    372.6042 307.6042842  +6.5391884     6797.891      16484.7     19931.35     91.95535     183.9107     368.4085      2.506     5.39     1205.994     64.97029     713.9399        68     1.997     1.809  63.28   2
       285    763.5471    374.2564 307.6076546  +6.5382313     1070.075     2356.434     3657.245     92.54106     184.3509     368.5918      2.780     6.65     1206.405     64.97029     134.1594        12     1.350     0.918 -88.33   2
       286   1015.5475    367.4915 307.5030602  +6.5494148     2558.574       5012.2     5405.001     92.24867     184.1309     368.8116      2.006     4.68     1187.773     64.97029     281.2618        30     1.511     1.280  70.33  16
       287    452.0021    359.7838 307.7377255  +6.5338083     1101.784     2886.065     3105.664     91.95535     183.9107     368.3718      2.447     9.28     1206.734     64.97029     125.7546        23     1.817     1.321  10.97   0
       288    478.7079    360.4723 307.7265944  +6.5344168      1270.28     2612.568     2973.723     92.24867     184.4973     368.6284      2.114     8.13     1206.734     64.97029     157.7653        19     2.011     0.918  65.33   3
       289    481.6755    359.3475 307.7253979  +6.5349806     1002.178     1840.189     2695.522     92.39498     184.4241     368.5918      2.242     7.51     1206.618     64.97029     132.0276        13     2.182     0.723  54.00   3
       290    837.2291    355.3912 307.5776385  +6.5484793     19215.03     44904.27      52366.9     91.95535     184.1309     368.3718      2.403     5.23     1201.182     64.97029     1831.666        86     2.043     1.764  75.79   0
       291    609.8873    346.7303 307.6724928  +6.5444757     1169.345      2929.02     3907.437     92.54106     184.6437     368.6284      2.799     9.11     1206.378     64.97029     129.4924        22     1.816     1.277  58.73   2
       292    693.7044    341.4386 307.6378064  +6.5494587     39764.99     102661.4     121371.7     92.39498     184.2043     368.7383      2.560     5.86     1206.255     64.97029     3811.485       115     2.138     1.939  71.05   0
       293    850.8097    342.9981 307.5724047  +6.5540509     606.8527     1268.506     1617.349     91.66109     183.9841     368.3352      2.450     3.93     1199.093     64.97029     81.83704         5     0.846     0.522  32.49   0
       294    555.9784    338.4562 307.6951941  +6.5460933     1229.099     3593.777     4238.137     91.95535     184.3509     368.3718      2.671     8.35     1204.135     64.97029     152.7393        35     1.743     1.612 -54.16   0
       295     93.6094    337.3431 307.8875472  +6.5310713     2831.234     7896.108     9585.709     91.66109     184.2776     368.2618      2.640     6.48     1223.177     64.97029     306.1285        55     1.998     1.760  76.18   0
       296    538.4958    335.5035 307.7025652  +6.5467289     2990.214     5877.623     7724.611     92.39498     185.0091     368.4085      2.410     7.25     1203.484     64.97029     304.0082        29     2.024     1.038  70.13   3
       297    541.0000    334.0060 307.7015739  +6.5474311     2813.979     5470.958     7017.652     91.51361     183.9107     368.3352      2.239     5.59     1203.124     64.97029     328.5092        25     1.973     0.848  73.60   3
       298    268.7923    332.3033 307.8148539  +6.5390273     1185.714     3235.406     3772.461     92.10213     183.9107     368.3352      2.571     9.73     1210.683     64.97029     128.6727        29     1.786     1.479  77.10   0
       299    402.4364    329.7546 307.7593520  +6.5445545     10988.01     33025.22     40332.53     92.10213     184.3509     368.5185      2.763     6.80     1203.407     64.97029     1080.971        84     2.169     1.959  81.05   0
       300    491.5086    320.1372 307.7226260  +6.5515060     3867.808     11110.81     13475.63     92.39498     184.4973     368.7017      2.725     6.84     1199.841     64.97029     398.3392        59     2.022     1.812  81.92   0
       301    760.6678    318.7706 307.6107125  +6.5610554     1759.534     4267.945     5724.108     92.10213     184.3509     368.5551      2.729     7.29     1202.206     64.97029     179.8158        36     1.839     1.466  74.35   0
       302    381.3358    304.3423 307.7689838  +6.5543455     3135.895     9371.661     11191.24     92.54106     184.2776     368.6284      2.770     7.38     1202.231     64.97029      336.812        59     2.103     1.808  56.82   0
       303    237.6753    305.4690 307.8287008  +6.5490689     1034.421     2862.302     3344.865     92.54106     184.4973     368.5918      2.738     9.67     1211.005     64.97029       133.01        24     1.831     1.424  85.01   0
       304    749.1499    299.9792 307.6161336  +6.5684337     27882.15     70136.84     82353.28     91.80834     184.4241     368.4452      2.491     5.73     1200.785     64.97029     2947.446       104     2.092     1.871  71.12   0
       305    421.8930    300.4519 307.7522448  +6.5573095     1059.107     2964.516     3718.948     92.24867     184.2043     368.8482      2.692     8.03     1198.765     64.97029      111.514        18     1.826     0.987 -55.05   2
       306    924.7019    296.2069 307.5432343  +6.5758395     1446.853     3301.599      3714.91     92.10213     183.9107     368.3352      2.336     7.26     1189.619     64.97029     173.4696        26     1.732     1.230 -88.78   0
       307    984.1458    297.1394 307.5184755  +6.5774319     1121.565     2204.222     2031.533     92.54106     184.2776     368.5551      2.005     6.67     1185.923     64.97029     124.7579        16     1.273     0.979  29.03   0
       308    406.0771    295.2810 307.7589975  +6.5589163     889.8336     1909.743     2626.892     92.68691     184.6437     368.7383      2.920     5.53     1199.328     64.97029     115.0336        10     1.132     0.763  85.83   0
       309    830.4771    288.7534 307.5826797  +6.5757811     584.4485     1657.062     2448.755     92.24867     184.4241     368.5918      3.048     7.86     1196.537     64.97029     88.68567         9     2.124     0.814  16.40   2
       310    185.5099    286.3108 307.8510444  +6.5552337     1020.216      2549.78     3367.298     92.39498     184.9361     368.7017      2.947     9.08     1214.345     64.97029     136.0896        16     1.567     1.469  27.43   2
       311    747.5350    284.5203 307.6173238  +6.5747656     3281.924     8025.746     10031.56     92.68691     184.4241     368.5551      2.607     6.17      1199.27     64.97029     321.0111        50     1.968     1.618  60.32   0
       312    763.9645    282.8953 307.6105439  +6.5759845      1504.56     3594.042     4653.233     92.54106     184.2043     368.7017      2.730     7.29     1198.672     64.97029     188.5778        32     1.791     1.424 -11.05   0
       313     81.9950    283.7363 307.8941873  +6.5528241     484.3918     1167.975     1213.047     91.66109     184.1309     368.3718      2.397     4.69     1221.799     64.97029     81.98975         5     1.242     0.503 -72.23   0
       314    353.6330    277.4572 307.7814118  +6.5645237     781.2574     2302.081     2610.136     92.24867     184.4241     368.5551      2.857     8.85     1202.551     64.97029     104.1636        12     1.760     1.241  47.07   2
       315   1002.0593    273.3747 307.5118187  +6.5878444     3960.346     7935.271     8280.468     91.95535     184.3509     368.4085      2.088     4.59     1183.696     64.97029     483.7013        39     1.698     1.351  58.27   0
       316    480.6357    274.9370 307.7286683  +6.5698134     800.2563     1976.006     2448.976     92.24867     184.3509     368.5551      2.480     6.26     1192.432     64.97029      116.515         9     1.340     0.821  -5.67   0
       317    241.5070    270.5063 307.8282854  +6.5636391     2210.413     4286.262     5854.467     92.39498     184.9361     368.5551      2.399     7.92     1209.694     64.97029     244.4387        26     1.972     1.027  76.95   3
       318    244.7598    268.9707 307.8269841  +6.5643825     2336.379     4587.828     6842.879     91.95535     184.0575     368.4452      2.473     7.09     1209.462     64.97029     271.1705        27     1.988     1.059  71.43   3
       319    379.0611    259.4677 307.7714403  +6.5728056     854.3539      1528.57     1906.518     92.54106     184.2776     368.5918      1.980     5.90     1198.694     64.97029     116.1431         9     1.413     0.692 -76.01   0
       320    963.7345    258.8425 307.5282477  +6.5925727     785.3952     1471.501      1756.62     92.39498     184.2776     368.6284      2.037     4.88     1184.983     64.97029     95.47803         7     0.971     0.693  75.69   0
       321    147.2765    256.5646 307.8679508  +6.5662383     911.0204     2473.301     2817.994     92.24867     184.4241     368.6284      2.657     9.78      1216.52     64.97029      145.589        18     1.936     1.378 -65.32   0
       322    556.2010    251.2484 307.6980314  +6.5821238     1080.466      2932.47     3371.894     91.66109     183.9107     368.0784      2.623     9.15     1189.838     64.97029     127.9873        23     1.927     1.213  64.82   0
       323    300.8925    254.3833 307.8041268  +6.5722886     543.6615      954.027     1295.859     92.10213     184.1309     368.4085      1.975     4.37     1205.033     64.97029     88.24841         5     1.143     0.475  -5.65   0
       324    720.1663    248.9483 307.6299017  +6.5885469     2843.729     6776.971     7272.604     92.24867     184.3509     368.4818      2.366     5.67     1193.739     64.97029      291.824        39     1.631     1.570  80.35   0
       325    660.6903    248.9717 307.6546422  +6.5865531      1163.62     2767.371     2778.178     92.54106     184.0575     368.4452      2.323     9.17     1191.562     64.97029     131.3831        26     1.753     1.339  58.53   0
       326    900.3936    250.4417 307.5548785  +6.5939351     1036.638     2362.331     2798.796     91.66109     183.9841     368.2618      2.409     7.21      1188.23     64.97029     151.4777        14     1.383     1.052 -28.89   0
       327    220.3264    234.8709 307.8382968  +6.5776488     1219.123     2727.401     2674.446     92.68691     184.4973     368.6284      2.170     7.92     1211.184     64.97029     144.4806        20     1.410     1.244 -27.10   0
       328    752.5086    233.2591 307.6169738  +6.5961062     968.5795     2144.155     2038.729     92.24867     184.2776     368.7383      2.217     6.29     1192.147     64.97029     182.4803        13     1.523     1.188  -0.55   0
       329    862.1103    233.7850 307.5713621  +6.5995410     963.0261     2017.131     2996.599     92.10213     184.1309     368.4452      2.416     6.30     1189.494     64.97029     127.7655        12     1.297     0.861  24.86   0
       330    452.5958    225.2208 307.7420041  +6.5894120     9210.816     19926.37     25738.14     91.95535     184.0575     368.3718      2.499     8.28     1189.438     64.97029     905.4385        66     2.831     1.640  88.95   3
       331    455.3172    223.6593 307.7409245  +6.5901481     8175.812     13907.22     16542.99     92.54106     184.4241     368.6284      1.845     4.99     1189.158     64.97029     931.2247        26     1.637     0.979  71.61   3
       332    779.4481    223.1132 307.6061072  +6.6011953     7164.359     17561.51     21010.46     92.39498     184.2043     368.6284      2.514     5.62     1190.815     64.97029     699.7418        64     1.929     1.767  67.90   0
       333    142.0201    217.8652 307.8714428  +6.5820470     1176.975     3158.124     3524.995     91.95535     184.3508     368.4085      2.532     8.82     1215.604     64.97029     157.5641        25     1.599     1.358  26.07   0
       334    914.9243    213.7704 307.5500616  +6.6095669     714.7345     1391.344     2425.539     92.24867     184.4241     368.5918      2.675     6.02     1184.753     64.97029      116.531         7     1.560     0.654  57.80   0
       335    576.2379    210.8152 307.6910548  +6.5994949     1910.699     3750.549     5161.406     92.10213     184.1309     368.2985      2.599     8.81     1185.926     64.97029     232.1074        26     2.271     0.954  76.85   2
       336    579.4951    210.0002 307.6897272  +6.5999404     1723.018     2921.594     3833.939     91.80834     183.9107     368.1151      1.996     6.65     1185.889     64.97029     191.4436        16     1.483     0.918  75.82   3
       337    539.7521    210.0850 307.7062571  +6.5985777     849.6357     2288.629     1879.881     92.39498     184.3509     368.5918      2.385     7.84     1185.663     64.97029     124.9144        15     1.570     1.096 -89.29   0
       338    938.2709    206.6391 307.5405878  +6.6132897     1700.559      3717.87     4137.314     92.24867     184.3509     368.6651      2.288     5.54     1183.226     64.97029     199.7283        27     1.546     1.289  58.31   0
       339    884.5936    206.1776 307.5629337  +6.6116937     6773.511        15174     17251.53     91.80834     184.1309     368.4085      2.291     4.98     1185.683     64.97029     804.1714        57     1.862     1.611  72.83   0
       340    971.1454    203.9887 307.5270003  +6.6154783     6453.546     13348.82     14709.72     91.66109     184.2776     368.2251      2.162     4.69     1181.707     64.97029     718.4041        51     1.768     1.490  68.15   0
       341     10.9107    203.1681 307.9264753  +6.5837161     12405.42     34325.37     41504.93     92.54106     184.1309     368.5918      2.638     6.35     1224.061     64.97029     1430.044        90     2.187     1.914  81.38  16
       342    682.0438    206.2245 307.6471940  +6.6049233     1063.296     2163.741     3506.214     91.80834     184.2776     368.4452      2.744     4.59     1187.046     64.97029      136.745         8     0.852     0.736  57.14   3
       343    684.5122    203.9978 307.6462418  +6.6059255      987.454     2302.668     3773.456     91.66109     183.9107     368.2985      3.061     9.08     1187.022     64.97029     140.7195        13     2.217     1.038  48.87   2
       344    490.7801    200.1006 307.7269647  +6.6010651     879.6863     2064.036     2463.262     92.39498     184.2043     368.3352      2.463     6.80     1185.238     64.97029      107.777        11     1.633     0.795  73.52   2
       345    493.5271    197.9873 307.7258930  +6.6020299     838.5644     1548.462     2439.821     91.80834     183.9841     368.3718      2.310     6.70     1185.117     64.97029     138.6257         8     1.557     0.808  59.92   2
       346    875.5057    195.0867 307.5670858  +6.6159725     1257.399     2509.975      2839.52     92.39498      184.863     368.6651      2.396     8.23     1185.082     64.97029     156.7882        19     1.629     1.222 -35.46   0
       347    823.0928    195.6380 307.5888718  +6.6139990     1261.997     2810.119     3108.658     92.54106     184.2776     368.6651      2.291     6.41     1186.615     64.97029     148.8245        19     1.452     1.295  37.85   0
       348    503.1232    195.3994 307.7219881  +6.6034197     1042.048     2855.727     3497.171     91.51361     183.6167     368.2985      2.759     9.79      1184.91     64.97029     136.6659        23     1.971     1.355  18.91   0
       349    337.9929    191.8539 307.7907999  +6.5993597     3285.736     9607.827     13294.94     91.80834     184.0575     368.2618      3.026     7.79     1198.604     64.97029     312.4292        70     2.473     1.814 -84.49   0
       350    734.7009    192.1643 307.6257601  +6.6124877      20647.1     51988.56      60991.5     92.39498     184.2043     368.8116      2.491     5.65     1187.468     64.97029     2181.812        92     2.085     1.848  70.88   0
       351    968.6592    190.9685 307.5284703  +6.6207739     1809.695     3770.594     4193.001     92.10213     184.4241     368.5551      2.207     5.64     1181.062     64.97029     200.8085        26     1.531     1.232  83.55   0
       352   1006.6184    189.5591 307.5127257  +6.6226186     1115.882     1951.298     2026.516     91.95535     184.1309     368.3352      2.035     6.69     1179.459     64.97029     197.7616        15     1.662     0.885  71.21   0
       353    902.6013    189.2000 307.5560108  +6.6193062     4619.029     10141.35     10903.91     91.66109     183.8372     368.2251      2.215     4.99     1183.529     64.97029     555.2009        43     1.698     1.491  61.98   0
       354    446.4099    188.7111 307.7458054  +6.6042861      2146.56     6344.667      6922.99     91.95535     183.9841     368.3352      2.638     7.41     1187.078     64.97029     219.0919        49     1.984     1.714 -53.28   0
       355    102.5013    181.9961 307.8890918  +6.5955368     1567.883     2812.548     3970.439     92.10213     183.9841     368.2251      2.078     7.85      1217.45     64.97029     217.4008        21     2.136     0.853  59.95   3
       356    272.5058    178.0005 307.8185083  +6.6028885     12047.76     21901.13     25427.54     91.80834     183.9107     368.1151      2.007     7.44     1207.648     64.97029     1346.426        43     2.214     1.014  66.22   3
       357    275.5860    176.3074 307.8172840  +6.6036911     14199.89     28645.82     33396.64     92.10213     184.0575     368.3352      2.219     7.12     1207.531     64.97029     1543.873        53     2.261     1.266  65.26   3
       358    249.3737    177.7918 307.8281379  +6.6021996     3100.759     8608.185     10485.86     91.95535     184.1309     368.4085      2.664     6.97     1208.732     64.97029     353.2739        50     1.883     1.784  60.24   0
       359    396.6840    173.3457 307.7670081  +6.6089694     18475.85     33258.07     37426.58     92.39498     184.3509      368.775      1.984     7.00     1189.766     64.97029      2066.09        43     2.091     1.058  65.19   3
       360    399.7605    171.9869 307.7657740  +6.6096337     19665.61     38561.33     46963.59     91.80834     184.1309     368.3352      2.223     8.06     1189.294     64.97029     2249.806        61     2.422     1.328  66.45   3
       361    154.6865    173.8200 307.8676599  +6.6006652     1757.206     4626.931     5924.401     92.10213     184.0575     368.4818      2.699     7.23     1213.767     64.97029     240.7649        30     1.968     1.214 -55.33   2
       362    302.6046    169.8648 307.8062616  +6.6072574     7980.657     23045.51     30576.84     91.66109     183.9841     368.3352      2.920     6.94     1204.464     64.97029     830.3043       105     2.768     2.124   4.56   0
       363    737.1590    168.0746 307.6255455  +6.6225205     17326.12     43291.46     49962.41     92.24867     184.3509     368.6284      2.457     5.66     1184.936     64.97029     1811.501        93     2.077     1.860  63.20   0
       364     54.2191    165.7356 307.9097248  +6.6006323     4362.353     11778.15     13175.59     91.95535     184.3509     368.4085      2.526     6.20     1220.863     64.97029     508.2988        62     2.082     1.747  74.94   0
       365    786.8265    168.7262 307.6048612  +6.6239071     632.8197     1217.208     1612.584     91.95535     184.2776     368.5551      1.893     4.54     1183.808     64.97029     101.0533         5     1.256     0.467 -30.01   0
       366    105.3922    179.6734 307.8879676  +6.5965933      2162.74      4239.47     5451.467     91.95535     183.8372     368.4452      2.291     7.55     1217.248     64.97029     247.3489        28     2.074     1.180  56.93   3
       367    996.7587    149.0282 307.5181836  +6.6390332      1648.06     3524.501     4180.747     91.95535     184.2776     368.4085      2.294     6.51     1177.011     64.97029      196.395        25     1.776     1.153  61.34   0
       368    271.5218    144.0327 307.8200623  +6.6168863     11332.16     21676.32     26698.76     92.24867     184.3509     368.5918      2.188     7.92     1207.786     64.97029     1210.665        47     2.278     1.184  66.35   3
       369    274.4498    142.7317 307.8188881  +6.6175218     12812.41     25811.75     30079.57     92.24867     184.2776     368.5918      2.190     6.93     1207.719     64.97029     1373.487        53     2.254     1.310  70.79   3
       370    589.6226    144.3515 307.6877194  +6.6273962     831.1041     1844.648     2417.754     91.95535     184.3509     368.4818      1.922     4.98     1182.363     64.97029     124.8363         8     1.387     0.507 -83.32   2
       371    586.6216    144.9448 307.6889479  +6.6270509     847.3444      1481.26     2742.028     91.80834     184.3509     368.3718      2.079     4.35     1182.379     64.97029      124.584         7     1.065     0.617  52.66   3
       372     18.1539    141.8115 307.9255351  +6.6093028     2139.988     5699.621     6948.369     91.80834     184.1309     368.2618      2.563     7.47     1224.018     64.97029     225.5616        40     1.813     1.588 -88.37   0
       373    704.3124    139.2188 307.6401785  +6.6333445     4131.572     10640.34     12861.32     92.10213     184.0575     368.4452      2.560     6.03     1182.405     64.97029     424.0583        56     1.888     1.746  84.89   0
       374    115.4434    136.8439 307.8852321  +6.6146216     2309.554      6290.41     7216.984     92.39498     184.3509     368.4452      2.566     6.97      1214.73     64.97029     288.9604        45     1.913     1.637  72.45   0
       375    386.1432    132.6787 307.7727619  +6.6254147     1702.642      5143.43      6799.39     92.39498     184.3509     368.5551      2.866     9.02     1189.932     64.97029     169.0811        43     1.957     1.712  58.90   0
       376    350.7595    131.9672 307.7875057  +6.6245242     1351.572     3814.704     4722.579     92.10213     184.2043     368.4085      2.680     9.26     1195.159     64.97029     153.5703        32     1.759     1.471 -46.86   2
       377    105.2310    131.2190 307.8896702  +6.6166022     866.1438     2148.573     2694.494     91.95535     184.1309     368.4452      2.418     8.21     1214.883     64.97029     132.8016        13     1.486     1.269 -37.60   0
       378    996.8766    124.7236 307.5189477  +6.6490768     1079.995     2177.569     2130.198     92.68691     184.6437     368.7017      2.064     6.55     1174.516     64.97029     141.8611        15     1.287     1.239 -47.25   0
       379    202.2926    120.3399 307.8496602  +6.6243522     2317.647     6975.107     8904.276     92.24867     184.2776     368.6651      2.796     7.56     1210.159     64.97029     237.5796        52     1.962     1.863  73.64   0
       380    663.9062    119.0089 307.6576668  +6.6403445     3091.433     7912.828     9524.218     91.95535     183.9107     368.3718      2.573     6.07     1181.231     64.97029     399.8442        53     2.062     1.643  71.00   0
       381     83.3932    120.7022 307.8991095  +6.6202131      881.735     1527.728     1981.233     92.10213     183.9107     368.3352      2.402     6.53     1216.328     64.97029     93.42896        12     1.616     0.742 -61.05   2
       382     86.8400    120.7339 307.8976746  +6.6203157     986.1351     1677.731     2035.988     92.39498     184.2776     368.7017      1.864     4.67     1215.846     64.97029     124.4634         9     0.950     0.665 -70.90   3
       383    616.1074    116.1840 307.6776473  +6.6399158      4491.78     12543.77     14469.57     92.10213     184.1309     368.4085      2.608     6.67     1181.115     64.97029     459.6407        56     2.007     1.747  78.96   3
       384    619.6700    107.8814 307.6764440  +6.6434643     26020.57      69033.8     82320.98     92.68691     184.6437     368.6284      2.599     6.11     1180.672     64.97029     2795.145        98     2.135     1.932  71.26   3
       385    343.5690    112.2859 307.7911598  +6.6324130     1782.766     4972.431     6226.286     92.39498     184.1309     368.5185      2.764     7.67     1196.522     64.97029     199.4396        40     1.852     1.685  89.79   0
       386    525.0337    110.6496 307.7157223  +6.6391595     824.2295      2160.67     2001.069     92.24867     184.3509     368.5185      2.521     7.64     1180.782     64.97029     101.5204        11     1.436     1.136  25.51   0
       387    299.0893    102.0430 307.8100089  +6.6351542      1636.75     4538.545     6029.252     92.39498     184.2043     368.6284      2.935     8.47     1205.282     64.97029     199.1565        37     1.925     1.508 -34.57   0
       388    668.3968     95.7764 307.6565785  +6.6500910     679.1807     1532.285     1959.406     91.95535     183.9841     368.4085      2.497     3.42     1179.625     64.97029     81.62109         5     0.768     0.441 -70.34   0
       389    684.3771     91.9888 307.6500572  +6.6521888     1725.108     4177.008      4857.38     91.95535     184.1309     368.4818      2.428     7.76     1179.004     64.97029     174.8705        33     1.777     1.509  81.05   0
       390      2.3162     84.6762 307.9340539  +6.6323704     20138.07     41261.23     55791.04     91.66109     163.0431     295.6712      2.748     6.96     1224.219     64.97029     4067.498       148     3.634     1.816 -89.60  24
       391    425.8615     82.7949 307.7579173  +6.6473490     1890.592     5298.436     5987.483     91.66109     184.1309     368.3352      2.570     7.87     1184.456     64.97029     196.7107        40     1.792     1.647  65.77   0
       392    898.1382     77.9753 307.5615926  +6.6651020     2493.104     5250.012     5871.667     91.95535     184.2776     368.4818      2.204     5.71     1173.244     64.97029     299.8756        34     1.730     1.342  60.55   0
       393    880.5494     78.9831 307.5688767  +6.6641001     1382.631     2943.179     2512.624     91.80834     184.4241     368.2618      2.084     7.85     1173.624     64.97029       173.83        20     1.547     1.114  47.59   0
       394    590.2889     77.0413 307.6897035  +6.6552221     908.7056      2240.71     2168.577     92.39498     184.2776     368.6284      2.263     8.63     1179.239     64.97029     141.3722        16     1.573     1.479 -57.00   0
       395    389.9623     74.8111 307.7731211  +6.6494455     913.4835     2288.718     2972.687     91.80834     184.1309     368.2251      2.557     8.62     1189.381     64.97029     116.8158        16     1.895     1.094 -28.69   0
       396    137.3650     72.0072 307.8783009  +6.6421383     1505.862     3955.127      4144.42     91.80834     184.1309     368.3352      2.491     8.12     1210.914     64.97029     166.8408        34     1.780     1.697 -26.45   0
       397     19.2219     69.6961 307.9275273  +6.6391260     6338.202     16946.54     21094.76     92.24867     184.1309     368.3718      2.695     6.08     1219.658     64.97029     634.6377        68     2.054     1.845  82.47   0
       398    820.6720     63.9356 307.5942931  +6.6683213     3669.493     8029.364     9236.523     92.39498     184.3509     368.6284      2.311     5.21     1173.423     64.97029        413.5        38     1.618     1.469  59.65   0
       399    765.6937     64.2912 307.6171552  +6.6663420     1820.266     4230.637     4659.077     92.39498     184.9361     368.5918      2.333     6.52     1174.937     64.97029     214.1833        33     1.711     1.392  41.53   0
       400     59.8053     61.7199 307.9109138  +6.6437837     1654.126     4428.715     4913.895     91.95535     183.8372     368.3352      2.580     7.13     1215.093     64.97029     178.6848        35     1.730     1.527 -74.66   0
       401      2.5499     57.0345 307.9348908  +6.6437956     1258.587     2405.103     3037.362     92.24867      165.836     299.5744      2.126     7.38     1218.586     64.97029      140.342        19     1.480     1.090 -85.21  24
       402    760.3387     51.9496 307.6197970  +6.6712614      1101.33     2522.539     2924.497     92.39498     184.2776     368.6651      2.271     6.78     1174.047     64.97029     132.2085        16     1.226     1.146 -21.61   0
       403     87.2716     45.9276 307.9000208  +6.6512291     4830.483     12621.64     14418.75     92.68691     184.4973     368.5918      2.509     6.05     1212.242     64.97029     494.2319        56     1.863     1.783 -82.60   0
       404    415.0237     46.0000 307.7636645  +6.6621850     1075.637     2747.061     3494.255     91.80834     183.9107     368.3352      2.538     6.61     1186.546     64.97029     137.6597        13     1.193     1.029  67.32   2
       405    629.7784     37.5743 307.6745998  +6.6728434     9219.602     23908.26     28263.71     91.80834     184.1309     368.5185      2.544     5.92     1176.346     64.97029     960.5928        75     2.067     1.806  75.07   0
       406    529.5908     33.7149 307.7164127  +6.6710908     2573.892     6649.144     7869.405     91.95535     183.9841     368.4085      2.548     6.46     1178.114     64.97029     260.6935        45     1.839     1.636  50.50   0
       407    249.0965     35.2514 307.8330581  +6.6610678     839.7806     2016.302     4283.881     92.24867     184.2776     368.8482      3.371     6.11     1206.775     64.97029     124.8724         8     1.672     0.627 -77.06   1
       408    426.7739   1018.6024 307.7260705  +6.2608243     2814.717     5486.216     6185.861     91.80834     183.9841     353.8204      2.126     4.93     1251.455     64.97029     301.3687        31     1.519     1.360  52.44  16
       409    711.8080   1018.1946 307.6075886  +6.2705077     5811.351     10725.15     12011.39     91.66109     184.1309     357.9197      2.006     4.01     1244.044     64.97029     658.4974        39     1.609     1.276  68.14  16
       410     21.3856     30.1926 307.9279619  +6.6555155     1057.315     2755.289      3583.34     91.95535     184.0575     368.4085      2.661     9.03     1212.893     64.97029     149.0664        21     1.668     1.365 -52.11   0
       411    912.8821     29.2642 307.5570897  +6.6857141     1218.998     2548.613     3086.605     92.54106     184.4973     368.5918      2.391     8.05     1168.881     64.97029     145.6436        22     1.572     1.230  74.90   0
       412    615.0140     28.4509 307.6810491  +6.6761190     1527.626     4135.003     5886.442     91.66109     184.3509     368.2985      3.220     8.89     1176.496     64.97029     197.3894        29     2.099     1.405 -88.99   2
       413    567.9520   1017.1659 307.6674281  +6.2661338      3073.49     6348.762     7930.675     92.10213     184.3509     365.9437      2.360     5.00     1246.701     64.97029     357.1393        36     1.677     1.346  77.15  16
       414    684.8040     19.6918 307.6523064  +6.6820667      955.339     2141.198       2769.7     91.95535     183.9841     368.3352      2.137     5.80     1172.744     64.97029     128.2592        10     1.528     0.619  -0.37   0
       415    703.7821   1017.7330 307.6109407  +6.2704308     920.2749     1709.071     2369.261     91.80834     184.2776     361.8979      1.887     5.41      1244.23     64.97029     158.1533        10     1.357     0.822  52.36  16
       416    744.1508   1013.5380 307.5942987  +6.2735092     1122.339      1843.88     2439.538     92.39498     184.2776     368.6651      1.820     6.00     1242.966     64.97029     155.9329        11     1.211     0.836 -84.98   0
       417    951.2960   1007.5980 307.5083789  +6.2828589     6083.499     10525.13     11263.82     91.80834     183.9841     368.2251      1.859     3.84     1236.112     64.97029     704.0795        37     1.528     1.223  70.38   0
       418    236.1006   1007.8395 307.8056976  +6.2588902     1073.806     1945.365     2139.169     92.39498     184.2043     368.8482      1.949     6.59     1253.409     64.97029     129.1598        13     1.749     0.697  57.98   0
       419    704.8682   1008.6331 307.6107941  +6.2742260     797.3606     1226.546     2239.528     92.24867     184.3509     368.6284      1.632     3.48     1243.519     64.97029      122.615         5     0.796     0.440  17.20   0
       420    711.3305   1005.7667 307.6082035  +6.2756255     2116.027     3828.874     4736.713     92.24867     184.3509     368.6284      2.145     5.13     1243.164     64.97029     222.6605        21     1.411     1.067  53.76   0
       421    727.1502   1005.3368 307.6016411  +6.2763304     854.2134     1230.023     1003.709     92.39498     184.2776     368.6651      1.531     4.77     1242.755     64.97029     103.1649         9     0.935     0.690 -70.68   0
       422    358.1579   1003.9103 307.7550891  +6.2645987     1208.769     2424.946     2652.551     92.39498     184.3509     368.6284      2.105     6.34     1251.538     64.97029     185.9824        19     1.425     1.108  40.96   0
       423    968.1477   1000.6307 307.5016057  +6.2862974     654.3187     1009.755     884.6163     92.24867     184.4973     368.5185      1.391     3.54     1235.577     64.97029     107.7299         5     0.817     0.443 -16.25   0
