#   1 NUMBER                 Running object number                                     
#   2 X_IMAGE                Object position along x                                    [pixel]
#   3 Y_IMAGE                Object position along y                                    [pixel]
#   4 ALPHA_J2000            Right ascension of barycenter (J2000)                      [deg]
#   5 DELTA_J2000            Declination of barycenter (J2000)                          [deg]
#   6 FLUX_APER              Flux vector within fixed circular aperture(s)              [count]
#   9 FLUXERR_APER           RMS error vector for aperture flux(es)                     [count]
#  12 FLUX_RADIUS            Fraction-of-light radii                                    [pixel]
#  13 FWHM_IMAGE             FWHM assuming a gaussian core                              [pixel]
#  14 BACKGROUND             Background at centroid position                            [count]
#  15 THRESHOLD              Detection threshold above background                       [count]
#  16 FLUX_MAX               Peak flux above background                                 [count]
#  17 ISOAREA_IMAGE          Isophotal area above Analysis threshold                    [pixel**2]
#  18 A_IMAGE                Profile RMS along major axis                               [pixel]
#  19 B_IMAGE                Profile RMS along minor axis                               [pixel]
#  20 THETA_IMAGE            Position angle (CCW/x)                                     [deg]
#  21 FLAGS                  Extraction flags                                          
         1    274.3517     23.6435 307.8196590  +6.6177592     9713.825     30617.38     47703.42     92.33065     184.1493     368.2619      3.354     8.76     1208.399     64.92506     986.3448       119     3.089     2.086 -16.42   0
         2     19.6788     22.7651 307.9256649  +6.6096903     1586.631      4768.07      6761.67     92.18445     184.2957     368.3351      3.058    11.87     1214.165     64.92506     190.9447        49     2.738     1.435 -32.90   0
         3    705.9490     20.0675 307.6401711  +6.6334777     2753.227     8070.029     11962.46     92.18444      184.076     368.2619      3.206     8.94     1180.269     64.92506      262.722        75     2.699     1.923  -8.16   0
         4    117.0353     17.7666 307.8853219  +6.6149842     1529.467     4782.624      7913.14     91.89133     183.9294     368.0421      3.481    11.71     1211.266     64.92506     177.7128        50     2.500     1.829 -28.82   0
         5    387.9034     13.1618 307.7727595  +6.6258478     1283.137     3988.873     6096.141     92.33065      184.076     368.5182      3.395    10.99     1194.478     64.92506     149.6925        38     1.956     1.720 -16.44   0
         6    352.3746     13.2572 307.7875414  +6.6246347      1124.08     3124.234     4245.755     91.89133     184.2225     368.1886      3.084     9.68     1197.468     64.92506     134.4015        26     2.223     1.176 -28.88  18
         7    350.4892     10.0000 307.7884360  +6.6259199      632.082     1172.877     2171.198     91.44989     183.6358     367.9321      2.312     3.80     1197.817     64.92506     102.4894         5     1.083     0.382  -4.35   3
         8    203.8233      2.5107 307.8497227  +6.6241684     1717.034     3872.627     4790.707     92.33065     165.0681      298.644      2.600     9.09     1208.122     64.92506     220.0845        35     2.496     1.076  -7.96  24
         9    665.0498      1.5961 307.6578134  +6.6397726     1494.514     2907.454     3514.119      83.5896     150.8051     281.9153      2.216     7.31     1180.174     64.92506     221.2523        20     2.353     0.636  -6.57  24
        10    470.7694    994.2937 307.7052145  +6.2226982     1471.682      3374.11     4155.396     92.47663     184.0027     368.2985      2.545     9.30     1243.562     64.92506     202.5323        24     1.984     1.297 -17.21   0
        11    670.1588   1023.0315 307.6213376  +6.2173774     993.0081     1538.643     1806.657     88.14519     156.9415     288.9566      1.720     6.26     1241.881     64.92506     166.3625        14     1.567     0.702 -17.50  24
        12    542.4163   1019.9037 307.6745604  +6.2144652     2782.667     6517.658     8700.628     92.18444     184.0027     338.3287      2.659     7.66     1244.509     64.92506     312.2262        44     2.468     1.215 -13.04  24
        13    203.8291    996.6531 307.8161321  +6.2129090     4749.622     11975.55     16757.57       92.038     184.3689     368.2253      2.864     7.56     1243.687     64.92506     520.5645        70     2.561     1.608 -14.82   0
        14    220.5579    989.3914 307.8094213  +6.2164660     27141.09      68672.8     92072.94     91.59727     184.0027     368.0421      2.780     7.47     1243.618     64.92506     2800.335       118     2.835     1.667 -14.50   0
        15    778.3207    990.9979 307.5774367  +6.2341870     1286.063     2765.694     2971.326     91.59727     183.6358     368.0787      2.402     8.56     1240.529     64.92506     168.9222        22     1.964     1.047 -15.82   0
        16     15.9247    990.3388 307.8944760  +6.2093035     2578.891     6674.265      9108.31     92.62238     184.2225     368.3351      2.939     8.29     1240.787     64.92506     266.3624        55     2.488     1.495 -16.74  16
        17    106.9486    983.2621 307.8568676  +6.2152443     1445.442     3609.785     4813.707     92.33065     184.1493     368.3351      2.870     7.86     1243.125     64.92506      190.968        29     1.899     1.405   7.78   0
        18    627.0991    981.3944 307.6406424  +6.2331851     750.6569     1556.515     1686.641       92.038     183.7827     367.9321      1.913     4.45     1241.872     64.92506     121.3402         8     1.454     0.387  13.12   2
        19    630.8463    980.0689 307.6391287  +6.2338568     650.3887     1219.939     1458.161     92.33065     184.1493     368.3351      1.800     3.20     1241.752     64.92506     127.4984         5     0.782     0.509  34.92   2
        20   1004.3066    973.2415 307.4840575  +6.2489530     2010.203     4173.797     5169.844     92.47663     184.1493      368.445      2.299     7.74     1234.927     64.92506     261.4524        33     2.332     0.950 -19.96   0
        21    147.4116    971.7932 307.8404304  +6.2213274      2234.19      5428.41     7551.885     91.89133     184.0027     368.2253      2.813     8.84     1243.055     64.92506     230.2476        39     2.208     1.262 -13.89   0
        22    665.2497    973.2674 307.6250512  +6.2378030     631.8129     1332.426     2737.148     92.18445      184.076     368.3718      3.931     5.48     1240.892     64.92506     78.07324         7     1.023     0.828  14.54   2
        23    668.6234    970.9424 307.6237264  +6.2388758     519.5036     1303.703     1756.864     91.89133     184.2225     368.1154      2.612     5.29     1240.778     64.92506      106.991         5     1.661     0.476 -84.89   2
        24    213.6305    970.5903 307.8129364  +6.2240147     1137.061     2914.819     3695.268     91.74442     184.0027     368.1154      3.002     8.30     1243.462     64.92506     159.0452        21     1.716     1.494  61.21   2
        25     14.5235    970.3662 307.8957341  +6.2175192     767.1749     1601.093     1752.645     92.18445     184.2225     368.2985      2.460     6.07     1240.894     64.92506     108.7054        10     1.187     0.874  33.45   0
        26    936.5591    968.5159 307.5123885  +6.2486852     812.0024     1384.702     1540.907     92.33066     184.1493     368.2619      2.430     4.95      1236.67     64.92506     109.6964         7     1.054     0.657  15.30   0
        27    883.3887    969.0189 307.5344825  +6.2467316     949.5579     1941.907     2189.563     91.89133      183.856     368.2253      2.413     6.37     1237.278     64.92506     122.3192        12     1.645     0.693 -19.65   0
        28    964.5278    963.2084 307.5009356  +6.2517988     2058.817     4615.423     5620.688     91.74442     183.7092     368.2253      2.678     9.24     1235.505     64.92506     284.3444        39     2.754     1.048 -17.52   0
        29    280.6891    956.9198 307.7855135  +6.2318859     955.0973     2533.592     3470.704       92.038     184.5152      368.445      2.875     9.77     1243.459     64.92506     132.9417        19     1.973     1.349 -12.72   0
        30    598.0220    950.3576 307.6537773  +6.2450674     968.0457     2050.482     2608.566     91.89133      184.076      368.152      2.891     7.63     1240.959     64.92506     134.2466        15     2.207     0.738  -9.88   0
        31    153.8736    948.1915 307.8385406  +6.2313047     7374.314     19549.31      26763.8     91.89133     183.7092      368.152      2.862     7.57     1242.521     64.92506     728.2639        88     2.727     1.688 -13.48   0
        32    468.2845    946.5486 307.7078554  +6.2423679     1892.686     4571.015     5802.184     92.33065     184.1493      368.445      2.601     8.17     1242.269     64.92506     231.1758        38     2.312     1.308 -14.50   0
        33    827.0121    945.7693 307.5587065  +6.2544980      1498.69     3657.591     4787.331     91.74442     183.9294     368.2253      2.713     9.65     1237.318     64.92506     180.7754        32     2.429     1.070 -19.78   0
        34    747.8647    944.3638 307.5916672  +6.2524780     856.0621     1879.405     2064.302     92.18444     184.2225     368.4084      2.617     5.14     1239.236     64.92506     130.8853         8     0.981     0.762  29.05   0
        35    811.0233    943.6556 307.5654264  +6.2548471     577.1592     1356.258     1632.313     91.89133     184.2225     368.1154      2.703     3.47     1237.765     64.92506      125.123         5     0.843     0.412 -18.78   0
        36    571.0112    941.2114 307.6653171  +6.2479615     1383.679     3382.462       4473.5       92.038     184.0027     368.3351      2.747     9.06     1240.905     64.92506     161.4382        27     2.116     1.101 -30.54   2
        37    700.2957    929.3128 307.6119544  +6.2571399     2109.024     4942.535     6139.842     92.33065     184.6613     368.4084      2.586     9.74     1239.545     64.92506     237.1097        38     2.432     1.183 -19.13   0
        38      3.0763    928.6643 307.9019046  +6.2343910     5357.195     11164.34     12236.54     92.62238     172.6567     308.4644      2.173     5.72     1241.172     64.92506      597.193        43     1.695     1.558 -19.14  24
        39    609.5867    927.3001 307.6497435  +6.2549870     750.7461     1755.498     1636.247       92.038     183.9294     368.0421      2.381     6.45     1239.814     64.92506     116.5281        10     1.975     0.592 -15.28   0
        40     66.3115    919.2056 307.8759302  +6.2403980     3612.944      9273.41     12775.18     91.74442      183.856     368.0421      2.816     7.68     1240.797     64.92506     360.3773        65     2.629     1.520 -13.28   0
        41    795.2397    918.3345 307.5728399  +6.2648037     7300.944     17075.89     21999.77     92.33065     184.1493     368.4816      2.640     7.64     1236.872     64.92506     792.1881        70     2.703     1.350 -16.25   0
        42    212.9051    912.3534 307.8152040  +6.2480823     1778.558         4327      5962.31     92.18444     184.1493     368.4816      2.811    10.86     1242.679     64.92506      210.306        36     2.445     1.363 -22.64   0
        43    578.8409    909.2552 307.6631361  +6.2614394     71291.48     183080.6       250574     92.18444     184.2225     368.3718      2.880     7.42     1239.767     64.92506     7469.061       145     2.936     1.755 -16.93   3
        44    580.6161    901.8966 307.6626454  +6.2645421     33018.34     84715.76     112748.9     92.18444     184.0027      368.152      2.828     7.68     1239.571     64.92506     3214.518       142     3.501     1.829   3.77   3
        45    789.6962    906.1206 307.5755552  +6.2696743     3474.521     8016.324     10672.38       92.038     184.5152     368.4084      2.642     7.76     1236.272     64.92506     422.9669        49     2.498     1.222 -18.20   0
        46    887.8080    902.4438 307.5348771  +6.2744187     879.6652     1672.098     1739.037     91.74442     184.0027     368.0421      2.157     6.86     1233.853     64.92506     109.3905        13     1.547     0.853  -1.22   0
        47    210.1618    901.5279 307.8167103  +6.2524699     1046.918     2488.534     2982.892     92.18445     184.1493     368.4084      2.555     7.55     1242.393     64.92506     148.1459        15     1.706     0.934  -7.06   0
        48    712.9256    898.5189 307.6077366  +6.2702947     3645.205     8677.448      12523.9     92.62238     184.5152     368.4084      2.957     8.01     1237.294     64.92506     408.4075        66     2.760     1.524  -7.57   0
        49    428.4534    898.6730 307.7260314  +6.2608598     1638.947     4511.624     6048.228     92.18445     184.1493     368.2985      2.825     9.68     1241.191     64.92506     204.7485        40     2.202     1.447 -21.73   0
        50    746.3893    893.4215 307.5939914  +6.2735041     599.4677     1260.447     1851.317     91.89133     183.9294      368.152      1.654     3.40     1236.216     64.92506     93.53882         5     1.094     0.306 -68.83   0
        51    952.7626    888.0408 307.5083471  +6.2825096     3555.716     7848.292     9874.874       92.038     184.2225     368.1886      2.554     7.48     1232.121     64.92506     449.9019        44     2.421     1.097 -17.44   0
        52    712.4796    886.4142 307.6083287  +6.2752877     1358.599     3552.082     4879.432     91.89133     183.9294     368.0787      3.169    10.57     1236.406     64.92506     165.4274        35     2.662     1.169 -24.15   0
        53    361.2110    882.8256 307.7545283  +6.2651967     824.7842     1724.025     2464.836     91.89133     184.0027     368.1886      2.012     3.98     1241.624     64.92506        132.9         6     0.808     0.561 -61.97   3
        54    358.0198    883.6846 307.7558264  +6.2647360     682.3362     1511.647     2118.028     91.89133      183.856     368.2619      2.890     4.68      1241.68     64.92506     98.42041         5     0.851     0.782 -76.65   2
        55    746.2310    873.0836 307.5947403  +6.2819126     3785.113     9005.548     12085.73     92.33065     184.0027     368.1886      2.674     8.07     1234.741     64.92506     401.5319        63     2.798     1.393 -15.24   0
        56    541.8369    873.7158 307.6797203  +6.2749227     1890.167     4706.533     6990.369     92.33065     184.2225     368.2985      2.908     8.38     1239.073     64.92506     200.4703        39     2.317     1.267 -16.12   3
        57    539.0781    866.1617 307.6811218  +6.2779569     3463.529     9414.979     13136.91     92.18444     184.2957     368.3351      3.001     8.19     1238.834     64.92506     347.5205        71     2.708     1.662 -13.18   3
        58    292.0849    872.9248 307.7836084  +6.2670098     6166.279     16958.83     24485.71     92.47663     184.5882     368.4084      3.041     8.14     1241.795     64.92506     589.6216        92     2.931     1.720 -17.55   0
        59    907.4898    866.5278 307.5278962  +6.2899235     4786.088     10969.25     14460.23     92.33066     184.5152     368.3351      2.676     7.41     1232.568     64.92506     582.1353        62     2.600     1.336 -16.19   0
        60    881.1578    862.7922 307.5389725  +6.2906042     6480.306     15323.59     20227.39     91.74442     184.0027     368.0054      2.706     7.41     1232.336     64.92506     716.7007        74     2.786     1.412 -15.21   0
        61   1002.8828    862.0415 307.4883741  +6.2949099     2716.128     6337.188     7716.892     92.33065     184.2225     368.2619      2.538     7.68      1228.16     64.92506     312.4402        41     2.512     1.064 -15.44   0
        62    525.6165    861.7249 307.6868694  +6.2793487     1816.057     4924.796     7159.502     91.74442     183.9294     368.2253      3.062     8.08     1238.639     64.92506     247.8324        46     2.340     1.441  -5.40   0
        63    479.0157    858.2518 307.7063660  +6.2792493     993.7609     2580.261     3761.015     91.59727     184.2957     368.0054      3.060     9.81     1238.552     64.92506     112.7507        21     2.325     1.154 -18.22   0
        64    912.8938    850.2946 307.5261931  +6.2968166     23339.11     54191.18      70393.2     92.33065     184.8803     368.2985      2.638     7.25     1231.085     64.92506     2725.469        91     2.745     1.436 -16.17   0
        65    810.1951    844.0721 307.5691129  +6.2960174     1039.739     2754.718     3623.896     91.89133     183.7092     368.2253      2.911     9.27     1232.141     64.92506      139.135        21     2.339     1.026  -7.02   0
        66    758.9193    842.0964 307.5905041  +6.2951492     3043.694      8015.51     11019.89       92.038     184.5882     368.4084      2.840     7.86     1232.478     64.92506      322.858        66     2.672     1.564 -17.03   0
        67    228.1644    841.5343 307.8112494  +6.2778833     615.9111     1492.567     2651.415     92.18445     184.2225     368.4084      2.859     5.82     1240.559     64.92506     88.89258         7     1.205     0.790  23.72   0
        68     53.7258    839.9229 307.8838446  +6.2727787     1239.694     3129.216     4614.375     92.62238     184.5152     368.3718      3.156     8.55     1237.689     64.92506     142.3516        27     1.953     1.294  -4.81   2
        69    947.2589    836.9592 307.5123480  +6.3034614     3639.143     8319.367     10823.26     92.33065     184.2225     368.4084      2.598     7.84     1229.189     64.92506     392.4688        48     2.522     1.195 -16.27   0
        70    920.4590    829.0343 307.5237596  +6.3058603     1067.662     2268.092     3113.764     92.18444     184.2225     368.2619      2.468     8.17     1229.104     64.92506     138.4196        16     1.698     1.098   0.58   0
        71    252.4474    825.3184 307.8016984  +6.2853942     1451.738     3248.079     4640.819     92.33065     184.2225     368.3718      3.003     8.49     1239.799     64.92506     205.2203        21     1.916     1.051  51.10   3
        72    256.1715    824.5477 307.8001757  +6.2858361     1620.287     3393.552     4545.552       92.038     184.3689     368.2253      2.448     6.22     1239.799     64.92506     199.5563        18     1.431     1.146  40.17   3
        73    641.6778    824.6498 307.6398493  +6.2985094      2029.34     5213.654     7285.119     92.33065     184.2957     368.2985      3.010     8.59     1233.447     64.92506     238.9418        49     2.514     1.436 -19.67   0
        74    781.1506    825.4020 307.5818189  +6.3027865      631.882     1170.052     2024.182     91.59727     183.7827     367.8588      2.885     5.19     1231.252     64.92506     98.89221         7     1.262     0.604 -34.24   0
        75     22.3810    823.5488 307.8974331  +6.2785143     818.1068     2130.151     3030.095     91.74442     184.2957     368.0787      2.878     7.83     1237.068     64.92506     110.8451        14     1.832     0.935 -22.32   0
        76    286.4819    811.1896 307.7880213  +6.2923637     686.1852     1666.414     2487.575     91.89133      183.856      368.152      2.318     3.72     1239.172     64.92506     96.61572         5     1.043     0.380  -5.58   0
        77    889.7430    804.0400 307.5373725  +6.3151920     3341.284      8339.58     11271.41     92.33065     184.2957     368.3718      2.775     7.80     1226.806     64.92506     394.5358        57     2.552     1.408 -17.91   0
        78    425.8060    801.9005 307.7303928  +6.3008063      915.647     2074.249      3109.48       92.038     183.7827     368.0054      2.919     7.00     1236.012     64.92506     101.2654        15     1.721     0.798 -46.09   0
        79    327.7511    800.0731 307.7712335  +6.2983256     3656.685     10375.65     14376.38     92.33065     184.2957     368.3718      2.933     8.39     1237.942     64.92506     388.3611        74     2.725     1.698 -13.69   0
        80    249.7543    798.2628 307.8037316  +6.2964977     2374.954     5157.458     6298.097     92.18445     184.1493     368.4084      2.425     6.64     1238.629     64.92506       271.58        29     1.909     1.229 -50.56   3
        81    246.4741    798.5043 307.8050876  +6.2962894     2621.134     6120.497     8213.888       92.038      184.442     368.3351      2.724     6.58     1238.658     64.92506     282.0938        36     1.975     1.458 -58.20   3
        82    741.1076    781.5206 307.5999463  +6.3196235     755.6087     1709.344     2240.807       92.038     184.5152     368.4084      2.674     5.81     1228.717     64.92506     93.29895         8     1.147     0.830 -14.52   0
        83    660.9180    775.6641 307.6334943  +6.3194079     1097.834     2927.159     4194.683     92.47663     184.2957     368.3351      2.930     9.51     1229.677     64.92506     125.5209        20     2.035     1.239 -27.14   0
        84     57.4737    772.2925 307.8845731  +6.3008800     1150.016     3046.616     4649.636     92.18445     184.3689     368.3718      3.327    10.15     1236.023     64.92506     128.3408        26     1.941     1.480 -30.22   0
        85    202.4736    770.2664 307.8243398  +6.3065163     798.3406     1881.298     2506.819     92.47663     184.2957     368.2985      2.682     6.09     1237.295     64.92506     124.4207         8     1.180     0.883  28.65   0
        86     73.9702    771.3133 307.8777458  +6.3018314     652.1371     1738.438     3120.427     92.47663     183.9294     368.2253      3.501     5.86         1236     64.92506     98.31982         6     1.258     0.769   8.12   0
        87    654.3644    764.6558 307.6365901  +6.3237463     2774.276     7253.746     9722.805     92.18445     184.2225     368.3718      2.899     6.84     1229.586     64.92506     293.6438        42     1.968     1.784 -24.89   2
        88    657.3073    763.6600 307.6353996  +6.3242551     2352.239     4680.333     5432.324     92.18445     184.1493      368.445      2.155     5.92     1229.492     64.92506     282.2795        20     1.580     0.971  19.50   3
        89    893.2953    759.7616 307.5373801  +6.3336266     1183.978     2891.955     4186.601     92.47663      184.076     368.4816      3.113     7.92      1224.68     64.92506     124.7466        19     1.890     0.928   7.34   2
        90    338.7045    758.2094 307.7680901  +6.3160058     5969.421     17535.21     25552.81       92.038     183.7827     368.0787      3.133     8.39     1235.806     64.92506     560.4663        92     2.835     1.817 -14.69   0
        91     72.6058    759.8335 307.8787014  +6.3065351     611.8342     1334.514     1944.934     91.59727     184.0027     368.0787      2.609     5.80     1235.936     64.92506     101.1348         6     1.538     0.616 -13.04   0
        92    101.2264    748.5812 307.8671792  +6.3121375     675.5248       1420.6     2007.515     91.89133     184.0027     368.2253      2.646     3.45     1235.868     64.92506     103.2471         5     0.726     0.475 -14.11   0
        93     84.8033    742.8655 307.8742026  +6.3139583     863.6194      2417.03     3696.998     91.44989     183.9294     368.0787      3.127     8.65     1235.813     64.92506     118.3335        16     2.222     0.940 -19.64   0
        94    883.5657    742.1097 307.5420189  +6.3406097     813.2672     2134.812     2455.109     92.47663      184.076     368.3351      2.675     8.07     1224.284     64.92506     118.9357        13     2.119     0.859  -6.94   0
        95    853.3541    741.9218 307.5545909  +6.3396951     905.3521      2073.51      2642.11     92.18444     184.2957     368.3351      2.495     7.34     1225.198     64.92506     134.6133        13     1.836     0.821 -26.80   0
        96    817.5700    741.4916 307.5694887  +6.3386972     1532.184      3290.09     4485.849     92.47663     183.9294     368.2985      2.507     8.94     1225.271     64.92506     170.3364        27     2.051     1.088 -11.79   0
        97    553.3580    733.2786 307.6796551  +6.3334002     125186.5     355011.8     507802.9     92.18445     184.2225     368.3351      3.063     8.13     1230.878     64.92506     11806.48       205     3.033     1.970 -16.16   0
        98    397.6982    735.9976 307.7443037  +6.3271421     2943.674     8099.748      11584.2     91.74442     183.9294     367.9688      3.063     8.87     1233.948     64.92506     296.3521        71     2.780     1.746 -19.45   0
        99    340.8944    734.4537 307.7679805  +6.3259056     4673.259     13350.15      18950.3     92.18444     184.1493     368.5914      3.093     8.03     1234.656     64.92506     449.2662        83     2.746     1.802 -18.67   0
       100    659.0494    730.1544 307.6358015  +6.3381736     1355.002     3846.359     4568.018     92.33065      184.076     368.3718      2.927    10.32     1228.253     64.92506     147.2588        35     2.145     1.384  -9.78   0
       101    891.4297    729.0602 307.5391858  +6.3462666     2438.532     6262.614     8360.013       92.038     184.2225     368.2985      2.922     8.28     1223.236     64.92506       287.09        55     2.657     1.409  -8.51   0
       102    633.1762    724.5062 307.6467525  +6.3396585     1234.767     3680.875     6921.728     92.47663     183.9294      368.152      4.768     8.16     1227.962     64.92506     158.2625        21     1.949     0.954  29.24   2
       103    822.9916    722.8096 307.5678608  +6.3466042     697.5503     1777.139     2112.434     91.74442     184.0027     368.1886      2.741     9.55     1223.925     64.92506     107.4095        12     2.364     1.076  -2.19   0
       104   1022.6381    723.6958 307.4847920  +6.3527918     1936.394     3254.007      3063.75     91.74442     163.2604     296.1494      1.808     5.98     1218.136     64.92506      268.037        20     1.504     1.005 -43.96  24
       105    910.6379    716.7696 307.5316088  +6.3519819     1438.918     3605.614     4510.306     91.89133     183.9294     368.1886      2.714     9.04     1221.758     64.92506     147.2617        28     2.035     1.121 -19.20   0
       106    369.7180    712.0757 307.7567473  +6.3361148     928.0394     2144.722     3023.106     92.62238     184.5152      368.445      3.138     7.22     1233.366     64.92506     131.8013        11     1.531     0.953  -1.08   0
       107    503.5887    702.8743 307.7013785  +6.3443379     1108.633     3173.876     4340.981     91.74442     183.7827      368.152      2.937     9.44     1229.877     64.92506      134.632        22     1.720     1.447 -66.05   2
       108    552.5213    699.0568 307.6811549  +6.3475301     2296.543     6599.168     9708.983     92.33065     184.2225     368.2985      3.295     9.73     1228.309     64.92506     242.3389        60     2.645     1.705 -15.89   0
       109    522.4656    693.0118 307.6938592  +6.3490402     6898.297     20270.18     29302.46     91.74442     184.0027     368.1886      3.106     8.59     1228.735     64.92506     685.2076        97     2.923     1.840 -17.26   0
       110    934.9821    690.9577 307.5223487  +6.3634596     1720.813     4095.737     5769.417     91.74442     184.0027     368.1154      2.978     5.95     1219.875     64.92506     179.5131        24     1.480     1.249 -39.40   2
       111    313.9465    681.7957 307.7809647  +6.3467995     1138.158     3234.868     4853.743     91.59727     183.9294     367.9321      3.082     7.43       1233.9     64.92506     166.1069        15     1.729     1.051  75.73   2
       112    780.5128    677.3358 307.5870560  +6.3640204     22871.49     60774.95     83830.26     92.33065      184.442     368.3718      2.932     7.70     1220.694     64.92506     2278.235       121     2.923     1.762 -16.60   0
       113     15.4685    680.3077 307.9051542  +6.3375408     795.1614      1952.91     2565.731     92.33065     184.3689     368.3351      2.272     5.17     1233.467     64.92506     128.4478         8     1.793     0.421 -16.05   0
       114    237.2238    675.3434 307.8130927  +6.3469334     1961.261         5902     10221.85     91.89133     184.2225     368.1154      3.939     9.69     1234.128     64.92506     189.8674        55     2.276     1.858  -2.94   2
       115    905.7879    672.5041 307.5351106  +6.3701354     3749.281     9371.179     13413.25       92.038     183.9294     368.0787      2.831     8.06     1219.584     64.92506      400.361        64     2.651     1.460 -18.12   0
       116    703.7672    669.1732 307.6192519  +6.3648731     29707.91     92671.85     156610.9     91.74442     183.9294     368.1154      3.679     9.60     1222.183     64.92506     3231.113       207     3.878     2.298  12.25   0
       117    347.4719    669.6920 307.7674292  +6.3529139     6922.699     21195.51     31260.88     92.18445      184.442     368.3351      3.180     8.44     1232.548     64.92506     615.1581       102     2.955     1.927 -15.49   0
       118    409.4007    667.4788 307.7417460  +6.3558739     7501.499     22777.64     33382.33      91.4499     183.4888     368.0787      3.190     8.31     1230.729     64.92506     706.9674       102     2.921     1.899 -16.23   0
       119    237.5466    654.1961 307.8136725  +6.3556924     757492.3      2371094      3575846     91.59727     183.9294     367.8954      3.254    10.34     1232.366     64.92506     64079.24       570     3.225     2.319 -15.63   4
       120    946.5055    665.9222 307.5183949  +6.3741951     939.9872     2615.847     2949.563       92.038      184.442     368.4084      2.556     8.95     1218.294     64.92506     136.0261        20     2.066     1.082 -17.62   0
       121    902.6114    663.9630 307.5367184  +6.3735645     2847.242     7108.901     9633.793     91.74442     184.0027     367.9688      2.679     8.44     1219.143     64.92506        289.2        51     2.558     1.321 -22.17   0
       122    643.3069    663.2341 307.6445994  +6.3653400     2366.227     6706.561      9792.83     92.47663      184.076     368.4084      3.160     9.98     1223.265     64.92506     245.6687        60     2.664     1.657 -25.39   0
       123    678.3811    652.8672 307.6303591  +6.3707834     960.9766      2344.86     2684.113     91.89133     184.1493     368.2253      2.698     7.29     1222.004     64.92506     127.6318        15     1.454     1.023  -4.30   2
       124    412.3140    650.1429 307.7411187  +6.3631417      18220.6      54888.3     81446.18     92.33065     184.2225     368.5182      3.201     8.33     1228.945     64.92506     1671.466       127     3.002     2.009 -15.87   0
       125    530.0911    649.0887 307.6921664  +6.3674623      2475.34     7278.885     10463.29     92.33065     184.8073      368.445      3.151     9.89     1225.146     64.92506     228.0167        65     2.640     1.714 -12.80   0
       126    445.5034    647.0000 307.7274200  +6.3655370     1199.079     3847.972     6968.863     91.74442     183.7827     367.8588      3.885     9.00     1227.666     64.92506     192.0721        20     2.228     1.016  -7.99   2
       127    777.2396    644.7574 307.5895116  +6.3773904     3692.638     8527.856     9462.975       92.038     184.2225     368.1886      2.427     5.94     1218.767     64.92506     392.7549        32     1.799     1.420 -58.74   3
       128    774.2399    644.7944 307.5907581  +6.3772765     4417.074      10122.1     13185.62      91.4499      183.856     368.0054      2.537     7.17     1218.801     64.92506     512.0688        43     2.408     1.355 -43.22   3
       129    132.8263    637.2922 307.8577989  +6.3592215     4038.295     12132.91     20906.76     92.47663     183.9294      368.152      4.127    13.96     1230.601     64.92506      364.248       145     4.610     2.443  15.38   0
       130    444.3013    641.0923 307.7281190  +6.3679413     907.6356     2529.319       4545.4     92.33065     184.8073     368.2619      4.837     8.20     1227.208     64.92506      108.162        18     1.504     1.248  14.80   0
       131    920.6807    633.7828 307.5302146  +6.3866435     2773.325     7429.347     10063.99     91.89133      183.856     368.2253      2.828     8.39     1217.538     64.92506     281.0459        58     2.598     1.477 -20.10   0
       132    675.4899    632.7512 307.6322380  +6.3790102     701.1264     1781.257     2866.909     92.33065     184.0027     368.5182      2.865     4.86     1220.502     64.92506     96.54797         6     1.353     0.494 -86.59   0
       133    563.3920    632.8006 307.6788634  +6.3752981     712.7979     1654.241     2894.003     91.59727      183.856     368.1154      3.595     5.23     1222.972     64.92506     120.6471         6     1.161     0.664  49.17   2
       134    943.4097    625.4785 307.5210387  +6.3908251     1233.496     3395.075     4178.041     91.89133     183.7092      368.152      2.764    10.06     1216.804     64.92506     142.3284        33     2.373     1.190 -25.61   0
       135    914.8427    625.8126 307.5329103  +6.3897491     1311.346     3216.684     4208.672     91.59727     184.0027     368.0421      2.533     8.64     1217.162     64.92506     152.6119        25     1.910     1.091 -12.36   0
       136    241.1913    623.3500 307.8131981  +6.3685735     612.7313     1402.383     3630.085     91.74442      184.076     367.9688      2.887     3.79      1229.56     64.92506     98.87427         5     1.064     0.387 -86.08   1
       137    238.8441    620.5532 307.8142688  +6.3696529     784.3038     2152.245     3917.896     92.33065     184.1493     368.2985      4.156     6.35     1229.417     64.92506     112.8964        10     1.851     0.613  86.84   0
       138    959.4661    613.1169 307.5147742  +6.3964661     1206.755     2436.067     3697.242     92.62238     184.5152     368.4084      2.767     7.34     1216.169     64.92506      149.205        20     1.656     1.201 -21.60   0
       139   1000.0700    606.6561 307.4981007  +6.4004713     832.5176     1938.297     1510.768     92.47663     184.1493     368.2619      2.386     5.45     1215.574     64.92506     121.5861         8     1.049     0.915 -38.20   0
       140     45.2039    593.3274 307.8957300  +6.3745078     921.1265     2789.445      3914.04     91.74442     183.7092      368.152      3.072    10.86     1228.296     64.92506      141.109        22     2.375     1.384 -16.39   0
       141    847.6482    593.6877 307.5619389  +6.4008322     646.7215     1235.416     1368.344     92.33065      184.076     368.4084      1.583     4.25     1215.338     64.92506     81.87061         6     1.099     0.469 -84.75   0
       142    656.9852    581.4814 307.6416592  +6.3996112     2169.178     6602.907     9298.312     91.89133     183.9294      368.152      3.056    10.18     1217.483     64.92506     227.7203        59     2.653     1.634 -22.17   0
       143    120.7398    577.6949 307.8648408  +6.3834758     1300.482      3665.69     5354.765     92.18445     184.2225      368.445      3.044    10.53     1227.371     64.92506     165.6011        34     2.313     1.362 -29.74   0
       144    994.3665    576.3583 307.5014886  +6.4128185     1223.479     2821.369     3079.608       92.038     184.2225      368.152      2.524     7.22     1212.296     64.92506     148.7062        20     1.680     1.037   4.14   2
       145    774.1390    573.5478 307.5931931  +6.4067479     7770.574     21293.17     29951.48     92.33065     184.1493     368.3351      2.990     7.99     1214.708     64.92506      796.254        95     2.864     1.782 -15.18   0
       146    904.1156    572.8848 307.5391479  +6.4112932     1593.557     4052.379      5668.33       92.038     184.3689      368.445      2.829     9.92     1213.399     64.92506     164.5652        37     2.288     1.248 -14.21   0
       147    250.4681    567.9967 307.8112086  +6.3917791     1503.396     3335.189      4407.82     91.59727     183.7827     368.0787      2.446     6.50     1224.711     64.92506     216.4938        20     1.858     0.967 -50.45   3
       148    247.9927    566.7579 307.8122801  +6.3922097      2067.82     5779.886      8477.76     91.74442     183.9294     368.0054      3.199     9.92     1224.692     64.92506     231.8131        42     2.447     1.571 -36.29   3
       149    654.6068    566.5212 307.6431517  +6.4057219      2310.52     7015.628     9923.198     91.89133     183.6358     368.0787      3.092     9.50     1216.657     64.92506     260.8649        63     2.579     1.807 -13.19   0
       150    726.2964    554.6561 307.6137293  +6.4129898     1390.792     3910.599     5566.125     92.18445     184.1493     368.5548      3.028    10.00     1214.486     64.92506     163.2772        38     2.189     1.460 -15.65   0
       151    992.5354    551.2016 307.5030935  +6.4231659       4008.9     10056.23     14130.06     91.59727     183.9294     368.0787      2.885     7.98     1209.648     64.92506     400.1226        69     2.777     1.486 -14.96   0
       152    932.2987    551.9791 307.5281253  +6.4208673     877.0795     2639.966     3524.261     92.18444     184.0027     368.0787      3.040     7.79     1211.574     64.92506     117.6608        10     1.725     0.984  88.70   2
       153     11.2394    551.9197 307.9112583  +6.3905120     815.5728     1887.718     3209.648     92.33065     184.2957     368.2619      3.579     5.37      1226.05     64.92506     100.4213         7     1.109     0.735  28.20   0
       154     70.2746    546.7663 307.8868774  +6.3945995       8693.6     26353.99     40248.91     92.18445     184.2225     368.2985      3.284     8.40     1225.776     64.92506      764.515       115     2.984     2.062 -13.90   0
       155    531.3469    546.6506 307.6950932  +6.4098817     682.6944     1697.957     2852.996     92.47663      184.076     368.3718      3.142     4.41     1218.851     64.92506     96.73657         6     1.082     0.511 -58.88   0
       156    716.3077    538.3850 307.6184313  +6.4193925     1130.579     3590.697     5118.454       92.038     184.0027     368.1154      3.068    10.26     1213.694     64.92506     138.0009        28     2.112     1.388 -54.86   0
       157    737.7335    536.8324 307.6095706  +6.4207397     1522.884     4075.466     5691.296     92.18444     184.2957     368.2619      3.028    10.36     1213.216     64.92506     175.1848        35     2.124     1.410 -16.35   0
       158    569.4407    534.6256 307.6796520  +6.4161119     1176.396     3224.184     5102.698     91.89133     184.0027     368.0787      3.335     9.72      1216.67     64.92506     166.1682        26     1.899     1.387  -8.58   0
       159   1010.7719    532.3688 307.4961384  +6.4315553     2270.048     5679.544     7555.039     91.74442     183.9294     368.0787      2.838     8.94     1207.391     64.92506     237.8671        48     2.657     1.241 -17.09  16
       160    978.3054    531.0547 307.5096885  +6.4310338     2651.709     5359.736     6536.867     92.18444     184.2225     368.5914      2.313     4.93     1208.342     64.92506     357.6567        25     1.601     1.313 -40.63   3
       161    975.6203    531.1729 307.5108015  +6.4308968     3591.994     7687.368     10066.14     91.74442     183.9294     368.1886      2.546     7.06     1208.404     64.92506     403.7445        36     2.179     1.262 -37.23   3
       162    135.0236    525.6548 307.8606589  +6.4054767      7908.12     24547.06     36956.74     91.89133     184.2225     368.1154      3.252     8.41     1224.392     64.92506     714.9532       114     2.999     2.070 -15.06   0
       163    421.0330    527.2447 307.7416348  +6.4142714      897.047     2316.764     3993.384     91.89133     184.2225     368.1886      3.601     8.25     1217.677     64.92506     107.5404        15     1.636     1.162  67.17   2
       164    424.5438    525.3037 307.7402399  +6.4151902     692.2665      1772.94     3498.705     92.18445     184.1493     368.5548      2.827     3.36     1217.487     64.92506      137.366         5     0.795     0.450  15.73   3
       165    970.9919    514.7231 307.5132784  +6.4375503     2989.032     8082.323     11385.12     91.89133     183.6358     368.1154      3.025     9.05     1207.226     64.92506     323.4293        68     2.814     1.604 -10.88   0
       166   1022.9129    510.3054 307.4918271  +6.4410813      21255.3     34980.71     36432.67     89.96281     159.4145     291.4665      1.795     6.24     1205.306     64.92506     2779.742        42     1.753     1.062 -83.86  24
       167    564.8531    510.2084 307.6823822  +6.4260620     15583.53     48238.48     72313.16     91.74442      184.076     368.0054      3.252     8.47     1214.449     64.92506     1407.777       129     3.071     2.020 -13.89   0
       168    172.7715    507.5042 307.8455707  +6.4142344     864.2842     2444.306     3338.116     92.47663     183.9294     368.2985      2.815     8.62     1222.592     64.92506      107.179        15     1.771     1.172 -23.62   0
       169    462.0721    494.0340 307.7256827  +6.4293644     19814.87      62509.4      95596.8     92.18444     184.1493     368.2985      3.302     8.57     1214.382     64.92506      1830.67       137     3.080     2.097 -15.37   0
       170    306.6059    482.5190 307.7907428  +6.4289954     743.5432     2228.514     3588.266     91.89133     183.7092     368.0421      3.015     5.93     1215.065     64.92506     110.9814         9     1.570     0.630 -40.99   2
       171    733.7517    477.3148 307.6132273  +6.4452311     1783.375     5351.532     7381.292     92.33065     184.1493     368.3351      3.012     9.56     1209.267     64.92506     177.1738        54     2.299     1.803 -24.88   0
       172    787.5688    472.5637 307.5909985  +6.4489666     5045.478     14625.15      20801.2     91.89133     183.9294     368.0421      3.047     8.08     1208.255     64.92506      482.543        87     2.850     1.783 -19.50   0
       173    611.5640    472.5939 307.6642167  +6.4431619     1076.523     2307.852     4158.172     91.30228     183.9294     368.0787      3.433     6.15     1210.375     64.92506     122.1372        11     1.551     0.686 -42.04   2
       174    610.9716    470.0284 307.6645495  +6.4442037     867.8969     2271.052     3863.793     91.74442     184.0027     368.0421      3.466     5.78     1210.141     64.92506     115.9563         9     1.490     0.631 -40.19   3
       175    863.4453    454.6751 307.5600334  +6.4588609     908.2169     2623.337     4170.721     92.18445     184.2957     368.3718      3.388     8.98     1205.485     64.92506     133.4823        18     2.064     1.089 -12.23   2
       176    822.5504    452.4114 307.5771225  +6.4584536     819.8613     2341.991     2678.557     91.59727      184.076     367.9688      2.434     6.74     1206.469     64.92506      111.754         9     1.682     0.758 -70.57   2
       177    250.8477    448.7570 307.8150774  +6.4411194      2476.53     7825.085     12042.43     92.33065     184.1493     368.2619      3.329     9.85     1214.803     64.92506     234.0444        74     2.751     1.919 -10.25   0
       178    802.8740    444.4921 307.5855742  +6.4610830     56100.32     164688.4     238342.4     92.33065     184.3689     368.3718      3.133     8.22     1206.697     64.92506     5173.634       183     3.180     1.972 -17.09   0
       179    184.7960    443.3016 307.8427386  +6.4411918     18262.46      57978.1     89716.63       92.038      183.856     367.9688      3.346     8.88      1218.02     64.92506     1594.676       138     3.079     2.145 -16.41   0
       180    108.5835    439.8204 307.8745597  +6.4401095     1994.908     6163.017     8832.689       92.038     184.0027     368.2253      3.103     9.49     1220.418     64.92506     198.8007        55     2.313     1.770 -22.85   2
       181    975.1594    437.2245 307.5141431  +6.4697484     612.9131     1297.064     1679.946     91.89133      184.076     368.0787      2.243     4.83      1200.45     64.92506     97.50732         5     1.134     0.584 -15.43   2
       182    841.6698    432.0140 307.5698533  +6.4675203     1362.491     2836.735     4001.482     91.74442      184.076     368.2253      2.211     7.27     1204.691     64.92506     174.2382        18     1.825     0.811 -51.26   3
       183    838.6815    431.9597 307.5710983  +6.4674446     1461.226     3700.804     4801.615     92.33065     184.2957     368.2619      2.739     8.57     1204.803     64.92506     159.5665        24     1.784     1.151 -52.05   3
       184    358.0991    430.3067 307.7710839  +6.4522960     5321.162     17007.09     25596.01     92.33065     184.8073     368.2619      3.255     8.78     1210.427     64.92506     464.4563       100     2.909     2.033 -13.35   0
       185    793.6465    425.0034 307.5900677  +6.4688421     2126.718     6004.278     8630.934     91.59727     183.9294     367.9321      3.004     9.27     1205.922     64.92506     226.3044        57     2.489     1.746 -13.57   0
       186    524.3007    425.0121 307.7021210  +6.4599706     1937.913     6336.881     10037.29       92.038     183.9294     368.0787      3.422    11.10     1207.621     64.92506      202.866        72     2.805     1.902 -23.14   0
       187    383.9858    422.5846 307.7605754  +6.4563454     498.1614      1200.01     2390.265       92.038      183.856     368.2619      3.240     3.93     1209.209     64.92506      72.4928         5     0.898     0.493   0.96   0
       188    171.8287    418.4995 307.8489711  +6.4510229     2033.544     6520.725     10686.23     92.33065     183.9294     368.2985      3.632    10.44     1216.927     64.92506      214.941        64     2.622     1.877 -23.84   0
       189     43.2735    417.3685 307.9024873  +6.4472343     1713.346      4978.59     7098.758     92.18445     184.2225     368.3718      3.130     9.86      1220.14     64.92506     178.6425        48     2.319     1.698 -30.76   0
       190    567.9202    418.2993 307.6842006  +6.4641854      748.334     2297.609     3811.775     92.18444     184.6613     368.3718      3.325     7.18      1206.59     64.92506      147.818        12     2.056     0.702 -66.90   0
       191    266.7628    414.9119 307.8095998  +6.4556468     26602.14     85312.81     132953.7     92.33065      184.076     368.3351      3.359     8.64     1211.449     64.92506     2323.201       155     3.131     2.194 -16.60   0
       192    570.9782    419.4441 307.6828898  +6.4638126     654.3273     1566.648      2708.82     91.74442      184.076     368.1154      2.868     4.29     1206.619     64.92506     89.00403         5     0.798     0.657 -86.59   1
       193    789.7109    406.9005 307.5923132  +6.4762019     5721.094     16440.54     22942.59     92.33065     184.7343     368.2985      2.980     8.12     1204.621     64.92506     557.6923        91     2.832     1.843 -17.13   0
       194    493.4591    405.4816 307.7156096  +6.4670332      13702.6     42734.61     67313.87     92.47663     184.2957     368.3351      3.412     8.71     1205.923     64.92506     1147.554       135     3.111     2.169 -14.07   0
       195    205.7557    404.1591 307.8353422  +6.4580777     649.1644      1623.37     2786.886       92.038     184.2225      368.152      2.289     3.51     1214.742     64.92506     85.58203         5     1.024     0.347  44.94   0
       196    653.5433    400.3056 307.6491848  +6.4744498     932.3985     2662.454     4280.994     92.18445     184.2225     368.5548      3.608     9.28     1204.319     64.92506     108.3403        20     1.857     1.293 -28.42   0
       197    322.6737    394.9132 307.7870155  +6.4657677     1410.606      3930.73     5891.445     92.47663     184.5882     368.3351      3.234    11.45     1208.044     64.92506     152.2684        39     2.317     1.576 -31.30   0
       198    137.9137    393.3561 307.8639298  +6.4603019     8060.221     25295.28     39216.24     92.33065      184.076     368.3351      3.350     8.82     1217.216     64.92506     723.8995       120     3.042     2.127 -14.79   0
       199    103.6431    391.8312 307.8782380  +6.4597982     775.7108     2355.332     3530.481     91.89133     184.1493      368.152      3.088     9.29     1218.383     64.92506     138.3359        15     1.737     1.387  56.86   0
       200    963.0615    387.2894 307.5208507  +6.4900097     2110.452     5259.271     7524.658     92.33065     184.3689     368.4084      2.877     7.99     1197.619     64.92506     235.8898        45     2.353     1.389 -25.69   0
       201      3.7097    377.6254 307.9202910  +6.4623641     8162.196     22493.49     27679.89     92.47663     179.0237     318.4056      2.748     8.35     1220.078     64.92506     754.5729        72     2.189     1.947 -37.93  24
       202    434.7415    374.2399 307.7410904  +6.4780205     12809.47     40655.88     63283.08     92.33065     184.2957     368.4084      3.344     8.63     1204.424     64.92506     1188.933       131     3.104     2.129 -16.09   0
       203    642.7731    373.8164 307.6545568  +6.4850536     3849.868     11802.28     17484.62     91.89133     184.0027     368.2253      3.240     8.66     1202.381     64.92506     372.0764        88     2.885     1.897 -16.32   0
       204    200.0187    372.0602 307.8388135  +6.4711668     5788.193     19126.66     30145.97     91.89133     184.1493     368.1154      3.391     8.86     1212.924     64.92506     552.3287       109     3.023     2.097 -11.02   0
       205    563.6807    372.3888 307.6875101  +6.4830386     699.6615     1460.169     2946.894     91.89133     183.9294      368.152      3.135     6.68     1202.005     64.92506     128.7391         7     2.249     0.557 -80.84   3
       206    566.8889    371.5501 307.6862036  +6.4834913     749.2555     1635.629     2979.561     92.33065     184.0027     368.4816      3.699    10.70     1202.031     64.92506     132.1388         9     1.994     1.599 -52.96   2
       207    938.0189    367.5189 307.5319328  +6.4973668     1915.912     4918.311     6566.535     91.89133      183.856     368.2619      2.830     8.68     1197.762     64.92506      231.578        46     2.418     1.451 -25.35   0
       208    612.9897    367.5045 307.6671602  +6.4866839     1646.359     3440.395     5527.731       92.038     183.7827     368.0787      2.757     7.85     1202.073     64.92506     191.4692        19     2.186     0.789 -22.66   3
       209    612.0689    364.7252 307.6676369  +6.4878034     1873.562     4444.373     7257.158     92.47663     184.3689     368.3351      3.108    12.82     1201.851     64.92506     196.0259        45     3.205     1.428 -28.62   3
       210    961.2297    359.5731 307.5225424  +6.5014159     1451.979     3547.597     4873.067     91.74442     184.0027      368.152      2.810     8.80     1196.318     64.92506     163.2765        28     1.804     1.387  -8.17   2
       211    524.1226    357.5062 307.7044690  +6.4878914     2385.549     7136.599      10877.3       92.038      184.442     368.4084      3.301     9.68     1200.813     64.92506     264.0704        69     2.752     1.876 -18.15   0
       212    369.8198    358.8983 307.7686171  +6.4822240      752.923       1855.6     2577.743     92.18444      184.076     368.0421      2.772     6.94     1204.858     64.92506     99.70422         8     1.276     1.057  -8.26   2
       213    886.6301    348.7962 307.5539416  +6.5034248     1000.704     2534.323     4543.938     91.74442      184.076      368.152      4.449     6.26     1197.824     64.92506     144.5287        11     1.886     0.584 -30.87   3
       214    878.0851    352.0913 307.5573861  +6.5017809     941.6659      2678.05     4807.936       92.038     184.7343      368.445      3.922     7.59      1198.21     64.92506     126.5736        13     1.535     1.050  17.13   2
       215    881.5124    351.4867 307.5559805  +6.5021436     915.7273     2328.182     5470.144       92.038     184.5152      368.445      3.704     5.15     1198.067     64.92506     125.4991         8     1.128     0.665 -87.07   3
       216    710.5048    344.8062 307.6273531  +6.4992848     836.7285      1923.77     2928.989       92.038      183.856     368.1154      3.010     4.93     1199.886     64.92506     94.12415         6     1.029     0.669  12.83   1
       217    383.2789    341.4312 307.7636070  +6.4898943     1021.263      3262.89     5303.197     92.18445     184.2225     368.2985      3.634    10.21     1203.404     64.92506     132.3369        26     2.094     1.387  19.61   2
       218    713.5507    342.5318 307.6261624  +6.5003259     779.4362     1665.082     2650.828     92.18445     184.1493     368.3351      1.994     3.96       1199.7     64.92506     97.79309         5     1.075     0.418  74.23   0
       219    610.3570    338.4651 307.6692329  +6.4986107     3095.572     9934.116     15189.62     92.33065     184.1493     368.3351      3.256     9.35     1199.156     64.92506     306.1254        85     2.918     1.895 -21.11   0
       220    772.8818    334.8038 307.6017372  +6.5054748     5460.521     16605.67     24981.33     91.74442     183.7827     368.0054      3.229     8.71     1198.436     64.92506     511.6284        96     2.962     1.896 -18.71   0
       221    294.0073    337.0000 307.8008965  +6.4887784     937.1196      2247.35     4091.609      91.4499     183.7827     368.0787      3.566     8.40     1204.848     64.92506     118.0507        12     2.278     0.865   2.63   2
       222    959.0168    329.4290 307.5244741  +6.5138139     656.2043     1870.437      2590.89     91.89133     183.9294     368.2619      2.809     5.59     1193.885     64.92506     88.57068         7     1.123     0.784  32.11   0
       223    110.8486    327.1629 307.8774279  +6.4867888     1399.474     4134.834     6262.502     92.18444     184.2225     368.2253      3.225    10.94     1216.104     64.92506     162.4062        46     2.388     1.773  -7.25   0
       224   1011.8311    324.2810 307.5026725  +6.5176767      1755.36     4733.682     6440.709     92.18444      184.076     368.2985      2.936     9.18     1191.544     64.92506      205.799        49     2.546     1.473  -5.11  16
       225    749.2838    324.4232 307.6119042  +6.5089931     846.7164     1966.505      2777.93     92.18445     183.9294     368.2619      2.789     7.73     1197.763     64.92506     121.4087        12     1.677     0.997  23.64   0
       226    345.2144    320.5269 307.7801486  +6.4972851     828.4242     2272.958     3902.562     91.74442     183.9294     368.2253      3.552     5.89     1203.632     64.92506     108.2361         9     1.057     0.922   0.41   2
       227    711.3122    306.5396 307.6283040  +6.5151421     5068.012     14885.19     22583.67     92.33065      184.442      368.445      3.247     8.46     1196.406     64.92506     479.5469        93     2.834     1.925 -20.06   0
       228    631.4417    302.9846 307.6616547  +6.5139833     841.3946     2847.338     4597.042     91.74442     183.9294     368.0787      3.450    11.28     1195.386     64.92506     131.9148        21     2.025     1.749 -45.67   0
       229    604.6978    297.8117 307.6729559  +6.5152423     5209.998     16390.88     28400.88       92.038     183.9294     368.0787      3.631     9.13       1194.4     64.92506     528.5319       126     3.170     2.321   1.55   0
       230    936.6248    296.3220 307.5349014  +6.5267753     1552.332     4119.852     5548.078     91.89133      184.076     368.2985      2.863     9.69     1191.449     64.92506       162.33        32     1.987     1.319 -17.01   2
       231    375.8919    292.7134 307.7683239  +6.5098044     8711.753     28488.09     44194.02     92.18444     184.7343      368.445      3.343     8.80     1200.888     64.92506     818.6532       120     3.048     2.122 -16.36   0
       232    121.8742    291.0436 307.8740627  +6.5020957     672.0728     1533.016     2439.494     92.18444     184.2957     368.3718      2.474     4.35     1213.775     64.92506     114.5316         5     1.108     0.487  49.91   0
       233    907.0007    287.2824 307.5475306  +6.5295422     1673.658     3855.458      5831.25     91.44989     183.6358     367.9688      3.463    12.86     1191.935     64.92506     209.8369        36     2.725     1.732  -3.31   2
       234    904.3182    286.0304 307.5486888  +6.5299720     1437.004     3016.051     4405.027     92.18444     184.0027     368.3351      2.278     7.86      1192.02     64.92506     191.5382        20     2.464     0.702 -59.20   3
       235    233.5257    283.3856 307.8278701  +6.5089583       4106.4     13487.86     21120.89     91.74442     183.9294     368.1886      3.359     9.03     1204.722     64.92506     394.5094       100     2.965     2.056 -17.84   0
       236    133.4522    272.0787 307.8698872  +6.5103244     1495.778     4713.794     7132.228     92.33065     184.2225     368.3351      3.234    11.76     1212.908     64.92506     170.3192        42     2.280     1.688 -26.62   0
       237    159.1714    267.7483 307.8593334  +6.5129672     629.7455      2066.94     3389.352     91.89133     184.3689     368.2253      3.474    14.36     1211.162     64.92506     110.2468        21     3.123     1.836  22.18   2
       238     29.5626    258.0172 307.9135855  +6.5127001     1230.816     3296.712     4979.888     91.89133      184.076     368.0421      2.984     9.36     1218.787     64.92506     126.1898        27     1.983     1.232 -36.80   0
       239    432.8240    256.1796 307.7458691  +6.5267976     2066.282     6944.733     10724.17       92.038     184.0027     368.2619      3.358    10.75     1194.956     64.92506     219.9712        66     2.526     1.897 -28.48   0
       240    772.9471    253.2497 307.6044507  +6.5392157     4320.166     13268.77     20593.37     92.47663      184.076     368.3718      3.420     9.86     1192.144     64.92506     389.3638       102     3.303     1.863 -14.46   0
       241   1017.0708    248.3268 307.5030387  +6.5492711      1637.21     4083.102      5455.83     92.62238     184.3689     366.2418      2.793     9.08     1185.986     64.92506     181.0387        34     2.132     1.270 -22.70  16
       242    452.7197    242.3268 307.7380582  +6.5331850     815.6882     1731.723     2780.797     92.62238     184.5152     368.3718      3.163     5.83     1192.217     64.92506     110.4963         8     1.033     0.926  49.63   0
       243    479.9905    239.2709 307.7268146  +6.5353489     957.3174     2911.747     4061.721     91.74442     183.7827      368.152      3.149     8.80     1189.459     64.92506     113.9669        17     1.594     1.356  61.90   2
       244    838.8018    236.0354 307.5776277  +6.5485024     11884.85     34963.98     51232.99     91.30228     184.0027     368.1154      3.130     7.79      1190.41     64.92506     1049.158       115     2.926     1.955 -16.32   0
       245    610.5826    228.1329 307.6728530  +6.5442619     896.4722     2584.717      4347.11     91.74442     184.1493     368.2253      3.334     9.12     1188.661     64.92506     137.9736        18     1.794     1.293  37.53   0
       246    695.3275    222.0772 307.6377954  +6.5495578     26457.25     79770.43     118790.2     92.62238     184.5152     368.3351      3.206     8.31     1189.218     64.92506     2389.277       141     3.055     2.041 -15.68   0
       247    559.3832    218.9060 307.6944670  +6.5463918     840.8003     2141.801     3208.392       92.038     184.0027      368.152      2.975     7.84     1187.629     64.92506     100.8398        12     1.471     1.167  77.74   0
       248     95.5308    218.2230 307.8874864  +6.5313477      2084.47     6197.766     9429.778     91.89133     184.1493     368.2985      3.268    10.75     1215.034     64.92506     218.4773        60     2.485     1.841 -39.00   0
       249    541.2316    215.1265 307.7021470  +6.5473570     2299.638     7042.818     10504.06     92.18444     184.2225     368.3351      3.211     9.70     1187.369     64.92506     218.0811        69     2.606     1.927 -15.86   0
       250    404.0998    210.4324 307.7593635  +6.5447745     7635.393     25092.02     39617.49     92.33065      184.076     368.5182      3.383     9.20     1194.023     64.92506     786.9132       115     3.045     2.136 -15.95   0
       251    270.8999    212.8251 307.8147040  +6.5393839     781.3704     2189.738     3309.659     92.33065     183.9294     368.2253      2.934     6.55     1204.449     64.92506     101.2671        13     2.395     0.503 -21.74   0
       252    493.1583    200.8909 307.7226293  +6.5516608     2597.675     8286.915     12993.43     92.33065     184.2225     368.4084      3.414     9.93     1187.265     64.92506     281.6539        80     2.895     1.916 -19.35   0
       253    762.1337    199.2113 307.6107664  +6.5612156     977.4235     3071.529     4326.086     91.74442     184.0027     368.1886      3.119    10.80     1188.615     64.92506     115.0541        30     2.306     1.409 -26.36   0
       254    382.8584    185.1985 307.7690531  +6.5545121     2278.545     7112.975     10976.76     91.59727      183.856     368.0054      3.322    10.03     1194.437     64.92506     228.6344        75     2.857     1.889 -21.27   0
       255    750.7342    180.5987 307.6161356  +6.5685406      18505.2     54861.55     80797.95     91.59727     183.7827     368.0787      3.151     8.18     1187.516     64.92506     1758.019       126     2.991     1.990 -15.68   0
       256    422.0054    180.7413 307.7529148  +6.5576485      827.356     2076.725     3041.838     91.74442      184.076     368.0787      2.801     7.58     1189.749     64.92506     90.02539        15     1.583     1.015  55.07   0
       257    926.2890    177.4125 307.5431922  +6.5756288     1012.198      2617.92     3085.497       92.038     183.9294     368.2253      2.692     8.33     1184.671     64.92506     125.1754        19     1.733     1.118  18.28   0
       258    986.0072    176.6274 307.5183687  +6.5779140     700.6415     1535.836     2143.571     91.74442     184.0027     368.1154      2.654     4.43     1182.404     64.92506     91.89673         6     0.852     0.655  33.79   0
       259     50.5007    169.1481 307.9078829  +6.5501570     1951.475     1883.308     1020.916     92.33065     184.2225     368.5914      0.706    -4.49     1216.459     64.92506     1173.087         5     0.731     0.275 -19.33   0
       260    748.9150    165.1902 307.6174106  +6.5748552     2103.348     6289.383     9644.032     91.89133      183.856      368.152      3.225     8.74     1186.531     64.92506     230.3879        61     2.499     1.759 -14.91   2
       261    187.2624    168.0284 307.8510174  +6.5551491     664.5703     1664.308     2667.418     91.89133     184.2225     368.2985      3.243     3.42     1210.032     64.92506     124.6355         5     0.889     0.533 -25.25   3
       262    184.6519    167.0492 307.8521367  +6.5554678     745.5934     1893.054     2973.006     92.47663      184.076     368.2985      3.172     4.90     1210.134     64.92506     118.6819         6     1.066     0.786  77.27   2
       263    765.5980    163.2270 307.6105345  +6.5762162     769.7862     2650.461     3564.266     91.74442     183.9294     368.1154      3.411     9.92      1186.35     64.92506     107.3016        17     2.658     1.032 -26.18   0
       264    355.4969    158.0222 307.7813551  +6.5648508     707.9879     1913.442     2286.445     92.33065     183.9294     368.1154      2.686     6.34     1197.646     64.92506     106.4594         8     1.349     0.836 -86.91   0
       265   1003.8610    153.8163 307.5117045  +6.5879368     2471.208     6496.661     9012.273     91.74442     184.1493     368.1154      2.894     7.80     1180.449     64.92506     278.2689        53     2.426     1.467 -14.97   0
       266    481.0098    155.7014 307.7292076  +6.5699545     621.7215     1431.335     1516.995       92.038     183.7827     368.1154      2.215     5.09     1186.368     64.92506     82.41821         7     1.578     0.465 -39.38   0
       267    244.8063    149.8366 307.8276891  +6.5645784     1737.155     5832.687     8880.654     91.30228     183.9294     368.0787      3.359    10.83     1207.782     64.92506     199.4598        59     2.598     1.781 -24.93   0
       268    379.4922    138.7174 307.7720222  +6.5736296     587.8344     1126.262     1966.388       92.038     184.5882      368.445      2.620     5.36     1193.754     64.92506     101.3262         7     1.206     0.672  14.15   0
       269    722.0768    129.4156 307.6297814  +6.5887719     1727.223     5199.065     7283.833     91.74442     183.9294     368.1886      3.090    10.39     1184.745     64.92506     180.6935        56     2.423     1.891 -31.35   0
       270    901.3381    130.0224 307.5551655  +6.5944146     589.6623     1341.712     2151.453     91.89133     184.2225     368.2253      2.510     3.82     1181.453     64.92506     93.24817         5     0.887     0.473  89.79   0
       271    664.2363    129.7386 307.6538393  +6.5867342     664.0697     1439.191     2129.273     92.33065     184.2225     368.2985      3.041     4.39     1185.041     64.92506     111.7502         5     0.767     0.715 -29.12   0
       272    222.7580    116.1880 307.8380005  +6.5777689     569.4002     1397.885     2181.782     91.59727     184.0027     368.0054      3.031     3.84     1208.922     64.92506     90.05322         5     0.928     0.456 -43.65   1
       273    754.8061    113.9428 307.6166822  +6.5962498     721.8574     1597.623     2237.206     91.74442      184.076     368.0054      2.935     4.06     1183.826     64.92506      116.025         6     0.908     0.773 -15.91   0
       274    864.3813    113.0750 307.5711135  +6.6002115     721.9009      1856.09     2795.268     91.74442     183.9294     368.2619      2.815     5.81     1180.156     64.92506      116.389         9     1.585     0.600  31.27   0
       275    455.2069    104.6400 307.7416661  +6.5902266     6789.949     22610.61     36035.65     91.59727      183.856     367.9688      3.428     9.16     1186.577     64.92506      664.583       119     3.160     2.101 -17.37   0
       276    780.9345    103.6834 307.6061542  +6.6013535     4750.147     14048.46     20252.36     92.47663     184.5152     368.4084      3.111     8.18     1183.298     64.92506     453.2062        87     2.843     1.830 -15.27   0
       277    144.3015     99.0791 307.8712249  +6.5822500     823.0851     2113.146     3185.338     92.18444     184.5882     368.3718      3.132     7.04     1211.491     64.92506     111.2424        12     1.482     0.938 -26.06   0
       278    916.0869     94.7869 307.5502108  +6.6094759     661.3428     1499.731     1593.266     91.89133     184.0027     368.2253      1.863     5.03     1178.215     64.92506     115.2913         6     1.524     0.470  74.10   0
       279    541.2440     92.3488 307.7062784  +6.5981494     655.0539     1697.045     2764.024     92.47663     184.1493     368.3718      3.337     8.05      1184.05     64.92506     91.73193         9     1.551     1.167 -37.42   0
       280    579.7615     91.6877 307.6902724  +6.5996927     1668.172     3564.181     5601.938     92.33065     184.1493     368.3351      3.323    11.44     1183.556     64.92506      172.512        29     2.228     1.637 -17.19   2
       281    578.2475     88.7596 307.6910011  +6.6008541     1324.568     2584.403     3974.496     92.18445     184.2225     368.1154      2.517     5.75     1183.572     64.92506     167.5397        12     1.311     0.804 -51.76   3
       282    886.0654     86.7662 307.5629734  +6.6118079     4498.818     12353.31     16994.58     92.18444     184.2225     368.2985      2.933     8.31     1177.827     64.92506     405.0775        78     2.786     1.706 -14.29   0
       283    941.6129     87.7417 307.5398248  +6.6132287     847.1581     2283.415     3170.299     91.59727     184.1493     368.0054      2.898     6.66     1177.697     64.92506     107.7891         9     1.368     0.911  67.88   2
       284     12.5138     84.0203 307.9265714  +6.5841131     8525.155     26357.92     40356.17       92.038     183.9294     368.2253      3.273     8.47     1215.978     64.92506     858.0078       115     3.002     2.075 -16.51  16
       285    972.6876     84.5125 307.5270015  +6.6155847     4140.472     10719.15     14191.46       92.038     184.8073      368.445      2.833     7.63     1177.217     64.92506     431.6433        68     2.640     1.553 -14.94   0
       286    683.6542     85.6535 307.6472424  +6.6056113     947.5972     2619.239     4037.658     92.62238     184.1493     368.3351      2.992     8.12     1183.259     64.92506     131.9961        14     1.890     0.976 -26.07   2
       287    492.8147     80.4161 307.7268334  +6.6014886     667.5081     1750.964     2792.733       92.038      183.856     368.2619      3.628     5.65     1185.254     64.92506      95.5094         7     1.790     0.503 -23.70   0
       288    504.1521     77.3679 307.7222183  +6.6031236     726.7832     1770.532     3643.602       92.038     184.2225     368.2619      3.019     5.93     1184.978     64.92506     113.5364         6     1.724     0.573 -78.89   0
       289    824.7792     76.5595 307.5888202  +6.6140163     717.9595     1770.952     2755.792     91.89133     184.0027     368.1154      2.784     5.50     1179.739     64.92506     125.9506         8     1.561     0.908 -57.36   0
       290    878.6085     75.1672 307.5664661  +6.6163614     828.6229     1997.043     3127.678     91.74442     184.0027      368.152      3.088     5.98      1177.17     64.92506     104.3822         8     1.189     0.845 -39.73   2
       291    339.5086     72.5677 307.7908928  +6.5996738     2573.524      7430.26     13092.39     92.47663     184.0027     368.3718      3.697     9.63     1199.474     64.92506     250.2223        81     2.814     2.059 -36.05   0
       292    736.3065     72.7593 307.6257654  +6.6126786     14133.83     41243.76     59907.67     92.47663     184.1493      368.445      3.137     8.28     1182.036     64.92506     1368.381       113     2.938     1.944 -15.56   0
       293    970.3833     71.3800 307.5284010  +6.6209420      1199.63     3060.592     3968.426       92.038     184.0027     368.2253      2.675     8.61     1176.008     64.92506     165.4359        22     1.623     1.284 -35.67   0
       294    904.1600     69.8236 307.5560122  +6.6194114     2928.978     8017.847     11340.12     91.89133     184.0027     368.0787      2.972     8.52     1176.818     64.92506      308.024        64     2.685     1.582 -15.12   0
       295    447.9470     69.2725 307.7458799  +6.6046181     1514.234     4915.465     8066.197     92.18444     184.2225     368.3351      3.446    11.87     1187.497     64.92506     157.9679        55     2.516     1.908 -22.96   0
       296   1010.2180     71.2693 307.5118274  +6.6222950     588.2418     1194.172     1936.485     91.74442      184.076     368.2619      2.184     4.47     1175.232     64.92506     77.90637         5     1.067     0.533 -35.75   2
       297   1007.2240     70.3861 307.5131030  +6.6225622     639.5362     1385.809     2126.985       92.038     184.0027     368.2619      1.920     3.38     1175.174     64.92506     99.28528         5     1.226     0.269 -55.39   2
       298    105.6151     61.0022 307.8886109  +6.5967204     1545.037     4784.479     6970.759     91.89133     183.7827      368.152      3.235    11.08     1212.317     64.92506     167.1099        58     2.586     1.872 -19.88   0
       299    250.9628     58.5818 307.8282111  +6.6025324      2265.77     6688.738      10905.9     91.89133      184.076     368.0787      3.560     9.46     1208.434     64.92506      209.891        70     2.649     1.941 -29.39   0
       300    275.4854     57.3482 307.8180484  +6.6038537     10788.37     34667.16     53730.75     92.33065     184.1493     368.4816      3.365     8.73     1208.245     64.92506     1028.761       125     3.088     2.125 -17.33   0
       301    399.5223     52.8103 307.7665863  +6.6098296     15692.65     49925.04     77651.57     91.89133     183.7827      368.152      3.352     8.66     1192.031     64.92506     1537.657       137     3.085     2.151 -16.33   0
       302    156.0692     55.1083 307.8678157  +6.6008293     1192.459     3537.652     5189.538     92.33065     184.3689     368.3351      3.227    10.84     1209.673     64.92506     137.6759        32     2.470     1.325 -31.78   2
       303    304.0371     50.5034 307.8063985  +6.6076292     6057.379     19334.44     31375.92     92.33065      184.076     368.5182      3.537     9.06     1205.624     64.92506     604.1957       122     3.275     2.115 -15.96   0
       304    738.6385     48.7433 307.6256026  +6.6226906     11818.44     34450.93        50139     92.33065     184.2957     368.3351      3.139     7.99     1181.027     64.92506     1107.335       115     2.945     1.939 -14.10   0
       305     55.8681     46.5520 307.9098004  +6.6010499     3130.823     9463.455     13644.04     92.33065     184.1493     368.3351      3.092     9.37     1213.829     64.92506      344.663        78     2.745     1.941 -18.81   0
       306    999.0518     28.3240 307.5179148  +6.6396951     1064.299     2102.147     3476.332     92.33065     184.2957     368.3351      2.548     7.16      1170.72     64.92506     140.8748        14     1.506     0.953   9.60   0
       307    471.0166   1019.7151 307.7042558  +6.2121899     1266.966     3100.335     3869.015     91.89133     183.9294     340.7125      2.717     8.64     1244.296     64.92506     159.8054        24     2.103     0.991 -21.02  16
       308    773.6803   1016.0025 307.5785270  +6.2236901     2420.415     6072.878     8143.088     91.59727     183.6358     368.0421      2.827    10.74     1241.515     64.92506     282.8008        46     2.873     1.119 -12.32  16
       309    399.3974   1013.3865 307.7342490  +6.2124457     2235.379     5373.418     6882.304     91.89133      183.856      368.152      2.643     8.34     1244.578     64.92506     273.0547        45     2.549     1.262 -14.75  16
       310   1011.2390   1001.6081 307.4802247  +6.2374451     1306.266     3003.158     3780.251     91.59727     183.9294     367.9688      2.616     9.05     1236.358     64.92506       174.05        25     2.341     0.976 -20.21  16
       311    778.2697   1002.2272 307.5770810  +6.2295398     876.7781     1867.105     2262.032     91.89133      184.076     368.2619      2.470     6.63     1240.981     64.92506     119.4938        13     1.660     0.744 -15.50   0
       312    976.0961    998.1904 307.4949530  +6.2377063     11940.25     25669.28     32014.73       92.038     183.7827     368.0787      2.477     7.30     1237.175     64.92506     1512.251        67     2.596     1.200 -14.82   0
       313    493.9868    998.3133 307.6954249  +6.2218008     663.1815     1128.859      1235.91     91.89133     184.0027     368.2253      1.674     4.23     1243.558     64.92506     96.35339         6     0.898     0.568  89.51   0
       314    305.5638    995.8140 307.7738583  +6.2166177      15555.8     39795.65     53625.69     91.74442     184.0027     368.0787      2.808     7.50     1243.645     64.92506     1553.093        95     2.801     1.614 -16.44   0
