#   1 NUMBER                 Running object number                                     
#   2 X_IMAGE                Object position along x                                    [pixel]
#   3 Y_IMAGE                Object position along y                                    [pixel]
#   4 ALPHA_J2000            Right ascension of barycenter (J2000)                      [deg]
#   5 DELTA_J2000            Declination of barycenter (J2000)                          [deg]
#   6 FLUX_APER              Flux vector within fixed circular aperture(s)              [count]
#   9 FLUXERR_APER           RMS error vector for aperture flux(es)                     [count]
#  12 FLUX_RADIUS            Fraction-of-light radii                                    [pixel]
#  13 FWHM_IMAGE             FWHM assuming a gaussian core                              [pixel]
#  14 BACKGROUND             Background at centroid position                            [count]
#  15 THRESHOLD              Detection threshold above background                       [count]
#  16 FLUX_MAX               Peak flux above background                                 [count]
#  17 ISOAREA_IMAGE          Isophotal area above Analysis threshold                    [pixel**2]
#  18 A_IMAGE                Profile RMS along major axis                               [pixel]
#  19 B_IMAGE                Profile RMS along minor axis                               [pixel]
#  20 THETA_IMAGE            Position angle (CCW/x)                                     [deg]
#  21 FLAGS                  Extraction flags                                          
         1    266.9910     29.9910 307.8201069  +6.6167475      10905.6      21901.1     26454.57     92.14298     185.0989     370.3822      2.218     8.89     1218.525     65.31186     1098.659        49     2.281     1.165  61.74   3
         2    270.1357     28.0066 307.8188609  +6.6176750     11504.21     23182.03     28382.56       92.291     185.0252     370.2716      2.280     9.97     1218.495     65.31186     1272.322        48     2.516     1.165  54.90   3
         3     13.5650     26.9167 307.9258983  +6.6094539     1881.825     5856.758     6826.832     92.88072       185.32     370.4927      2.691     7.88      1225.85     65.31186     282.0564        45     1.986     1.722  78.85   0
         4    699.6299     24.4756 307.6398477  +6.6336025     3532.413     10292.52     12294.26     92.73365     185.3937     370.5296      2.642     7.04     1191.598     65.31186     398.1038        53     1.998     1.751  79.17   0
         5    112.0598     21.3537 307.8850060  +6.6150883     2041.334     4533.691     5466.823     92.73364       185.32     370.6401      2.348     9.75     1221.813     65.31186     241.7974        31     2.207     1.201  43.21   3
         6    347.6955     16.8777 307.7868808  +6.6248983      1204.45         2187     2777.258     92.58633     185.6144     370.6032      1.988     6.44      1210.97     65.31186     156.1522        13     1.457     0.800  87.66   3
         7    345.0000     14.9755 307.7880677  +6.6255948     845.4973     1649.393     2573.973       92.291     184.8776     370.2716      2.182     4.89     1211.362     65.31186      137.026         8     1.289     0.526  80.57   3
         8    382.8048     17.8515 307.7722058  +6.6256793     1806.258     4265.268     5440.183     92.14298     185.0989     370.0872      2.605     9.94      1206.96     65.31186     190.1367        34     2.357     1.207  44.40   2
         9    992.1770     10.5612 307.5182841  +6.6491787     939.5515     1883.378     1671.386     92.43879     185.0252     370.3085      2.102     6.93     1181.217     65.31186     136.5649        14     1.456     0.925  66.47   0
        10    196.9978      7.7882 307.8500307  +6.6235736     1895.072     4082.604     4635.334     92.43878     184.9514     367.3106      2.286     9.32     1219.492     65.31186     211.9031        29     2.417     1.003  60.48  19
        11    199.6320      5.7779 307.8489985  +6.6244947     2031.935     3944.674     5067.075       92.291     185.0989     348.8216      2.112     8.54     1219.266     65.31186     258.8815        26     2.327     0.950  53.51  19
        12     79.7016      6.0786 307.8990057  +6.6203163     913.1039     2587.555     3142.213     92.43878     185.6144     352.5195      2.690     9.15     1222.409     65.31186     113.3531        17     1.674     1.395 -59.53  16
        13    659.1801      4.2905 307.6573819  +6.6405977     2464.851     7623.033     8688.834     92.73365       184.36     329.0888      2.642     8.38     1192.242     65.31186     266.0676        47     1.948     1.697  61.84  24
        14    610.4082      3.1224 307.6777625  +6.6394410      3858.45      6664.12     6950.469     92.43878     173.6853     310.9613      1.844     5.49     1192.174     65.31186     403.1974        24     1.591     0.978  50.61  19
        15    613.4911      1.9745 307.6765144  +6.6400199     3010.493     4023.542     4501.056     89.13095     158.1357     290.6781      1.406     3.58     1192.143     65.31186     385.2947        11     1.009     0.759  60.00  27
        16    338.7614      1.2894 307.7911208  +6.6310490      655.352      887.377     560.1874     80.09695     146.5782     278.0537      1.110     2.10     1212.191     65.31186     170.0757         5     0.695     0.441 -11.21  24
        17    622.9431    986.0869 307.6402500  +6.2329993     1404.571     2799.454     2385.465     92.88073       185.32     370.6769      1.972     7.15     1253.325     65.31186       149.15        17     1.412     1.014 -13.08   0
        18    789.4056   1023.3195 307.5696558  +6.2231778     877.9921     1043.923     518.2224     85.37637     153.1365     285.0352      1.237     3.48     1253.988     65.31186     130.9069         9     0.967     0.664   5.89  24
        19    767.9434   1020.6506 307.5786875  +6.2235624     3550.375     6483.767     7936.588     92.88072     184.8776     330.0414      2.122     4.12     1254.449     65.31186     415.9628        33     1.420     1.394  -6.60  18
        20    535.8179   1023.3629 307.6753350  +6.2146414     2882.189      3937.09     3857.159     85.05601     152.6007      284.316      1.418     4.37     1254.843     65.31186      425.493        14     1.307     0.715  -0.95  24
        21    464.5709   1023.3025 307.7050280  +6.2122693     1474.676     1956.866      1651.58     86.01352     153.4926     285.7049      1.496     4.53     1255.835     65.31186     207.7289        13     1.292     0.748   0.88  24
        22    495.4236    986.6807 307.6933741  +6.2284655     850.4985     1514.781     1134.387     92.43879     184.9514     370.4927      1.871     5.26     1254.954     65.31186      134.222         9     1.060     0.737 -40.18   0
        23    660.0193    979.1465 307.6250260  +6.2371178     903.5473     2345.452     3625.115       92.291       185.32     370.3085      3.146     5.69     1252.949     65.31186     142.8752        10     1.411     0.784  24.48   0
        24    208.6065    975.7914 307.8132598  +6.2233084      1769.48     3832.267     4574.569     91.99472     185.0989     370.3453      2.344     8.53     1255.931     65.31186     221.2192        30     2.021     1.305 -84.12   0
        25    140.8187    976.5799 307.8414828  +6.2206940     3073.289     6797.829     6838.249     92.58633     185.2464     370.4559      2.215     5.57     1255.912     65.31186     378.0667        40     1.843     1.410  72.50   0
        26    998.1525    977.6308 307.4841531  +6.2490856     3227.881     4995.749     4899.008     92.43878       185.32      370.419      1.661     3.61     1248.649     65.31186     399.4683        23     1.233     1.114  77.54   0
        27    878.2310    973.7437 307.5342603  +6.2466768     1417.197     2510.913     3162.408     92.73365     185.3937      370.419      1.839     6.38     1250.631     65.31186     214.0938        15     1.354     0.932  88.83   0
        28    468.3208    979.3426 307.7049102  +6.2305907     1265.651     2484.894     2832.967     92.88073       185.32     370.4927      2.080     5.89     1255.028     65.31186     136.5199        13     1.128     0.866  38.51   0
        29      8.0098    974.8883 307.8968825  +6.2169073      888.567     1570.939     1583.298     92.43878     184.9514       368.72      1.944     5.25     1252.836     65.31186     132.7148         9     1.040     0.750  30.49   0
        30    929.9442    973.1619 307.5127267  +6.2486508     1087.481     1851.283     1809.941     92.88073     185.3937     370.5664      1.837     5.19     1249.499     65.31186     143.2393        10     0.996     0.765 -61.72   0
        31    958.0696    967.7119 307.5011830  +6.2518489     3361.543     5434.119     5397.307     92.88073     185.6144     370.5296      1.723     4.12      1248.55     65.31186     422.3687        26     1.425     1.083 -85.21   0
        32    180.6892    966.4484 307.8252017  +6.2262333     867.6166     1429.069     672.4611     92.88073     185.1727     370.7137      1.575     3.78     1255.704     65.31186     170.6515         7     0.967     0.529  62.88   0
        33    816.0969    965.8556 307.5604142  +6.2478583     820.5143     1373.852     1941.439     92.73364       185.32     370.7505      1.776     3.66     1250.809     65.31186     130.3787         7     0.923     0.594  15.14   0
        34    273.8257    961.9257 307.7865376  +6.2312473     1441.201     3371.398     3606.507     92.43878     185.1727     370.4927      2.249     7.18     1255.516     65.31186     161.5146        26     1.639     1.268  78.62   0
        35    638.0566    958.7667 307.6348478  +6.2448152     919.1267     1705.405     1841.639     92.73364       185.32     370.5296      1.929     6.40     1252.211     65.31186      105.804        11     1.436     0.802  55.97   0
        36    591.2394    955.7661 307.6544580  +6.2444837     1453.801     2945.218     3173.937     92.58633     185.1727     370.3085      2.027     7.79      1252.76     65.31186     174.5354        23     1.411     1.310  44.22   0
        37    147.4604    952.8165 307.8394987  +6.2307538     11091.65     24370.68     26856.03       92.291     185.2464     370.2347      2.213     5.13     1255.213     65.31186     1271.358        60     1.836     1.585  77.85   0
        38    890.9685    952.2540 307.5296549  +6.2559988     741.7469     1437.596     1708.353     92.73364     185.3937     370.4559      2.591     3.73      1248.72     65.31186     112.2045         5     1.036     0.594  71.99   2
        39    461.6898    951.4440 307.7085908  +6.2419148      2510.57     5485.357      5370.86     92.88073     185.1727     370.6032      2.166     5.73     1254.568     65.31186     250.6448        34     1.574     1.489  65.77   0
        40    820.8854    950.5665 307.5589192  +6.2543473     2440.142     4468.603     4380.801     92.88073     185.1727     370.4927      1.934     4.95     1250.008     65.31186     277.9038        27     1.477     1.227 -79.20   0
        41    804.0013    948.5836 307.5660210  +6.2546017     954.4886     1805.422     1588.468     92.43878     184.8037     370.2347      2.036     4.46     1250.078     65.31186     158.3352         8     1.171     0.625 -88.05   0
        42    741.6134    948.9045 307.5920122  +6.2523753     1250.984     2320.811     2131.772     92.58633     185.0252     370.3085      1.917     6.23     1250.453     65.31186     136.3734        14     1.190     0.916  10.95   0
        43    565.1173    946.0687 307.6656631  +6.2476193     1779.711     4339.843     4479.016     93.17419     185.6144     370.5664      2.324     7.50     1253.193     65.31186     201.0018        32     1.740     1.352  73.16   0
        44    270.2045    936.3771 307.7888883  +6.2416997     904.3716     2117.861       2002.4     92.43879     185.0252     370.3453      2.300     8.82     1254.863     65.31186     113.5493        17     1.654     1.315 -35.36   0
        45    693.8669    934.0369 307.6123991  +6.2569260     3012.788     6481.355      6865.52     92.73365     185.2464     370.5664      2.154     5.23     1250.325     65.31186     309.6138        33     1.545     1.389  61.58   0
        46    604.4517    931.8679 307.6497361  +6.2548195     1170.757     2335.143      2256.29     92.73364     185.1727     370.4927      2.122     6.00     1251.678     65.31186     156.4938        11     1.078     0.939 -85.30   2
        47    224.0874    931.3884 307.8082717  +6.2422090     896.7034     1747.764     2099.129     92.43878     185.0252     370.3822      2.328     6.78     1253.863     65.31186     144.7997        10     1.280     1.076  28.34   0
        48     59.8471    923.8351 307.8769664  +6.2397897     5259.822     11287.74     12136.68     92.43878     185.2464     370.3822      2.162     4.96     1252.397     65.31186     634.2706        45     1.730     1.489  78.58   0
        49    788.9836    922.9447 307.5731200  +6.2647102     10115.81     20365.33     21465.32     92.14298     185.2464     370.2347      2.051     4.65       1248.8     65.31186     1109.936        49     1.622     1.469  85.24   0
        50    572.4529    913.8741 307.6636630  +6.2611916     100684.7     227489.7       250764     92.88073     185.3937     370.5296      2.285     5.25     1251.991     65.31186     9703.856       104     1.862     1.745  87.50   3
        51    574.0906    906.6344 307.6632182  +6.2642432     46215.87     106212.6     117164.1     93.02757     185.1727     370.5296      2.279     5.65     1251.628     65.31186     4477.041        87     1.836     1.757  32.73   3
        52    206.7256    916.9470 307.8159832  +6.2476004     2493.223     5356.733     5731.896     92.88073       185.32     370.5296      2.184     5.38     1253.826     65.31186     277.6979        31     1.557     1.355  45.46   0
        53    953.9980    912.4555 307.5046872  +6.2745841     839.0988      1399.64     1347.898     92.14298     184.9514      370.161      1.862     5.66     1244.223     65.31186     119.2983         9     1.177     0.767  21.13   0
        54    783.2743    910.6748 307.5759016  +6.2695973     4974.148     9720.893     9817.178     93.17419     185.6144     370.6401      2.025     4.58     1248.126     65.31186     556.0045        39     1.576     1.405  89.32   0
        55    881.0159    907.4622 307.5352691  +6.2742053     1342.297     2287.209     2344.968       92.291     185.2464     370.3085      1.835     5.87     1246.206     65.31186     161.8087        17     1.257     1.149 -71.65   0
        56    204.1844    906.2702 307.8173942  +6.2519338     1189.337     3043.673     3154.489       92.291     185.2464      370.419      2.338     6.45     1253.656     65.31186     159.0118        21     1.539     1.413  83.83   0
        57    421.9704    903.6418 307.7267162  +6.2603632     2295.279     5537.365     6706.524     92.43878     185.1727     370.3822      2.393     6.00     1253.827     65.31186     287.7365        36     1.662     1.508  84.64   0
        58    969.4944    906.2003 307.4984330  +6.2776924     667.6069     1195.957     2056.853       92.291     184.8776     370.0504      1.911     3.75     1243.828     65.31186     93.22656         5     1.047     0.386   6.17   0
        59    707.1282    903.2438 307.6078819  +6.2701170     4881.408      10814.5     12154.04     92.73365       185.32     370.5664      2.253     5.16     1248.703     65.31186     549.8888        45     1.689     1.533  76.77   0
        60    563.4305    902.3582 307.6678015  +6.2656547     2644.957     5800.654     6998.045       92.291     185.2464     370.3453      2.328     5.82     1251.731     65.31186     273.3579        34     1.637     1.397  89.50   0
        61    739.1724    897.9887 307.5946986  +6.2733681     976.3729     1717.861     1485.481     92.43878     185.0989     370.3822      1.736     6.48      1247.69     65.31186     135.0582        12     1.346     0.875 -20.00   0
        62    946.6014    892.5135 307.5084224  +6.2825907     5799.789     10192.68     10424.26     91.99472     184.8037     370.1979      1.859     4.02     1243.363     65.31186     653.6898        34     1.490     1.258  88.34   0
        63    231.2031    893.2474 307.8065632  +6.2582355     863.5046     1871.206       1484.9     92.14298     185.0252     370.0872      1.991     6.62     1253.426     65.31186     111.4133         9     1.319     0.934 -18.33   0
        64    706.5647    890.4766 307.6085354  +6.2753826     1771.645     3996.617     5225.983     92.73365     185.3937     370.5664      2.455     6.79     1248.165     65.31186     183.9425        29     1.679     1.281  71.39   0
        65    721.1899    889.3106 307.6024780  +6.2763564     716.8325     1098.783      790.767     92.58633     184.9514     370.3085      1.723     5.74     1247.732     65.31186     96.11401         8     1.006     0.922 -68.09   0
        66    353.1652    887.9782 307.7559074  +6.2645286     1111.404     2616.527     1923.067       92.291     185.0989     370.2347      2.292     6.95     1254.135     65.31186     159.2615        17     1.479     1.263   3.44   0
        67    535.4061    878.1585 307.6802765  +6.2747287     2505.465     6337.012     7109.029     91.99472     184.9514     370.1979      2.511     7.46      1251.31     65.31186     240.7615        37     1.821     1.497 -83.58   3
        68    532.6218    870.6289 307.6816843  +6.2777516     4641.832     11859.47     13823.28     92.14298     185.0252     370.3453      2.480     6.18     1251.041     65.31186     478.7765        51     1.904     1.603  78.82   3
        69    506.8334    879.3840 307.6921449  +6.2732602     688.5028     1540.312     1682.875     92.43878     185.0252     370.3822      2.137     5.97     1251.899     65.31186     115.9847         9     1.429     0.703  51.32   0
        70    285.8928    877.3912 307.7842930  +6.2666430     8548.501     20869.76     24903.91     92.43878     184.9514     370.3085      2.480     5.91     1253.882     65.31186     1024.578        69     1.976     1.827 -64.34   0
        71    739.9066    877.8666 307.5950522  +6.2817216     5274.999     11650.19     12724.28     92.73364     185.5409     370.5296      2.235     5.10     1246.737     65.31186     524.5122        45     1.643     1.586 -79.82   0
        72    801.7218    877.1240 307.5693121  +6.2841035     939.5836     1643.532     1618.725     93.17419     185.6144     370.6401      1.799     6.15     1245.967     65.31186     118.1433        11     1.146     0.929 -51.31   0
        73    410.7964    877.2993 307.7322397  +6.2708902      678.512     981.1463       654.88     92.58633     185.0252     370.1241      1.704     5.76     1252.795     65.31186     84.88074         6     1.193     0.784  37.16   0
        74    256.0406    876.8270 307.7967530  +6.2658697     509.5241     1065.526     747.8977     92.43878     185.0989     370.3453      1.567     4.39     1253.523     65.31186      87.5708         5     1.452     0.378   0.20   0
        75    901.2666    871.1789 307.5280162  +6.2899024     7189.341      13446.4     14192.63     92.43878       185.32     370.4927      1.942     4.34      1243.48     65.31186     801.3291        40     1.549     1.340  80.42   0
        76    874.8172    867.3224 307.5391667  +6.2906120     9577.019     19073.11     20365.86       92.291     185.0252     370.4559      2.076     4.67     1244.023     65.31186     1002.941        50     1.612     1.504  71.90   0
        77    996.5168    866.6354 307.4884637  +6.2949741     4484.723     7599.288     7798.535     92.88073       185.32     370.4559      1.838     3.95     1241.236     65.31186     571.0668        30     1.426     1.203  89.67   0
        78    587.7113    867.8950 307.6588134  +6.2807359     729.4678     1657.268     1397.405     92.88073     185.7614     370.6032      2.339     4.71     1249.614     65.31186     98.53625         6     1.419     0.444  86.21   0
        79    519.2003    866.6982 307.6874074  +6.2789270      2256.59     5952.663     7211.921       92.291     184.8776     370.0872      2.525     6.76     1251.186     65.31186     236.3816        40     1.788     1.598  79.12   0
        80    629.1050    864.8797 307.6416598  +6.2833753     916.5832     1639.751     1648.939     92.58633     185.6144     370.6032      1.900     5.97     1248.758     65.31186     105.8503        12     1.313     0.764  11.00   0
        81    472.6230    862.9570 307.7069431  +6.2789082     1311.845     2873.083     3061.762       92.291     185.1727     370.3085      2.187     8.19     1251.837     65.31186     157.4622        21     1.520     1.233  68.15   0
        82     54.5518    865.0153 307.8811151  +6.2639558     637.0651     1218.625     1133.597     92.14298     185.2464     370.2347      1.900     4.54     1251.196     65.31186     96.40125         5     1.048     0.558  14.95   0
        83    906.6005    854.8484 307.5263275  +6.2968407     34474.88     66117.48     70716.38     91.99472     184.8776     370.0135      1.988     4.45     1242.324     65.31186     3821.363        76     1.676     1.520  89.49   0
        84    214.3065    853.9334 307.8149009  +6.2739374     992.9456      2318.95     2093.643     92.73364     185.5409     370.5296      2.144     7.20       1252.6     65.31186     128.7069        14     1.407     1.031 -52.05   0
        85    804.3973    848.7877 307.5691253  +6.2959221     1478.565     3233.017     3398.194     92.43879     184.9514     370.3453      2.182     7.86     1244.162     65.31186     151.9323        25     1.573     1.266  80.09   0
        86    752.7032    846.7227 307.5907396  +6.2950421     4251.241     9936.331     11149.96     92.43879     185.5409     370.6032      2.315     5.62     1244.796     65.31186     453.8821        45     1.786     1.516 -72.40   0
        87     47.5319    844.5043 307.8847179  +6.2722078     1694.411     3891.719     4317.317     92.73365     185.4673     370.5664      2.329     5.66     1250.125     65.31186     237.0776        28     1.627     1.402 -64.24   0
        88    940.9860    841.5804 307.5124292  +6.3034848     5499.187     10057.29     10716.84     92.58633     185.0252      370.419      1.950     4.35     1240.715     65.31186     581.9866        34     1.492     1.284 -84.21   0
        89    223.2187    844.5221 307.8114967  +6.2781335     757.5388     1570.201     1852.243       92.291     184.9514     370.4927      2.400     3.36     1252.409     65.31186      114.687         5     0.777     0.707 -59.90   0
        90    914.8488    833.2094 307.5235976  +6.3060739     1587.963     3075.192     3365.674       92.291     185.0989      370.161      1.960     5.57     1240.648     65.31186     202.1691        20     1.367     1.163  50.72   0
        91    773.6707    830.3740 307.5825360  +6.3025128     812.0873     1805.342     1664.669     92.43879     185.1727     370.4559      2.168     6.61     1243.401     65.31186      116.708        10     1.417     0.864 -50.53   0
        92    635.4579    829.5180 307.6401725  +6.2982255     2637.997     6240.826     6640.924     93.02757       185.32     370.6032      2.338     6.12     1245.795     65.31186     308.9092        36     1.603     1.552 -47.77   0
        93    247.9002    829.8302 307.8016943  +6.2850471      2254.66     5998.426     7134.259     92.88072     185.0252     370.6032      2.578     6.76     1252.304     65.31186     286.1907        39     1.738     1.599  42.16   0
        94     16.6356    827.2618 307.8981637  +6.2782999     1257.839     3131.055     3870.027     92.88073       185.32     370.4927      2.565     9.31     1248.639     65.31186     147.9111        23     1.902     1.272  54.85   0
        95    560.4473    820.7273 307.6717261  +6.2993423      934.492     1984.888     2059.854     92.88073     185.3937     370.5296      2.025     6.23     1246.866     65.31186     109.4397         9     1.658     0.657  24.46   2
        96    282.0246    816.5528 307.7879092  +6.2916936     556.6844     1283.092     2495.361     92.43878       185.32     370.3822      3.667     4.92     1252.459     65.31186     97.49023         6     1.230     0.558  24.86   0
        97    883.6478    808.5607 307.5374097  +6.3152307     5370.604     10730.36     11426.08     92.73365       185.32     370.3085      2.035     4.81      1239.68     65.31186     568.0819        41     1.584     1.481 -80.82   0
        98    419.6734    806.1168 307.7308814  +6.3006520     1067.658     3103.796       3937.3     93.02757      185.688     370.5664      2.670     9.26     1247.577     65.31186     184.4688        21     1.883     1.270  38.30   0
        99    321.3646    804.6904 307.7719033  +6.2979299      4785.36      13008.2     14220.94     93.02757     185.2464     370.5296      2.505     6.55      1251.33     65.31186      557.743        53     1.909     1.714  76.98   0
       100    241.6016    803.7946 307.8051774  +6.2956108     3296.179     9168.045     10609.66     92.14298     184.9514     370.2716      2.583     6.70     1251.512     65.31186     417.8768        51     1.967     1.677 -83.86   0
       101    855.1313    791.8947 307.5498419  +6.3211729     696.7153     1191.303     1430.125     92.73364     185.4673     370.5664      1.928     5.28     1239.121     65.31186     109.6665         8     1.081     0.728 -73.42   0
       102    737.4056    786.7664 307.5990815  +6.3193454     868.8278     2130.236     2583.019     92.14298     185.0989     370.2716      2.618     7.26     1240.801     65.31186     128.1021        10     1.498     0.985  71.11   2
       103    966.5177    781.9691 307.5037370  +6.3290145     908.5833     1742.659     2106.266     92.73364     185.0989     370.4927      2.266     4.90     1236.296     65.31186     135.7693         9     1.249     0.634  86.22   0
       104    654.6306    780.2903 307.6337967  +6.3192457      1423.29     3472.962     4374.319     93.02757     185.0989     370.4927      2.469     8.98     1241.398     65.31186     164.0946        26     1.616     1.393   8.38   0
       105    520.6835    781.8168 307.6895785  +6.3141102     718.4457     1219.088     1501.783     92.43878     184.9514     370.4559      1.631     4.90     1244.665     65.31186     89.59229         5     1.079     0.630  28.20   0
       106     69.6767    775.9261 307.8777529  +6.3013403     1040.273     2200.353     2876.689     93.17419     185.6144     370.5664      2.355     7.84      1247.63     65.31186     121.9984        16     1.740     0.989  89.32   0
       107     51.1435    776.8349 307.8854472  +6.3003378     1771.165     4183.958     4623.975     92.73364       185.32     370.5664      2.375     5.70     1247.245     65.31186     246.1029        33     1.540     1.535  19.96   0
       108    195.7259    775.2106 307.8252403  +6.3058936      1166.25     2652.387     2425.218       92.291     184.8776     370.3822      2.354     6.20     1250.146     65.31186     158.3888        14     1.444     0.748  43.02   2
       109    230.2355    772.0038 307.8109626  +6.3083855     685.3918     1621.894     2789.444     91.84622     185.1727     370.2716      3.487     5.47      1250.58     65.31186      100.752         7     1.171     0.720 -80.83   0
       110    647.7680    769.5197 307.6370107  +6.3234733      3384.57      7177.57     8156.972     92.73365     185.2464     370.4927      2.230     6.54       1240.9     65.31186     336.3135        34     1.810     1.298  83.88   2
       111    651.0000    768.9926 307.6356808  +6.3238001     2093.287     3294.297     4218.717     91.99472     184.8776     370.2716      1.659     5.78     1240.775     65.31186     336.2156        13     1.805     0.603  89.49   3
       112    886.6135    765.4838 307.5375838  +6.3331605     2062.844     4476.745     4600.235     92.43879     185.0989     370.3453      2.199     5.64     1236.838     65.31186     241.2354        30     1.551     1.357  89.13   0
       113    332.1465    762.8718 307.7687864  +6.3156023     7680.312     22016.92     25917.98     92.73364     185.2464     370.4559      2.627     6.66      1249.03     65.31186     880.5801        64     2.044     1.777  71.59   0
       114     67.4256    762.7729 307.8791254  +6.3067083     764.4667      1347.55     1827.692       92.291     185.0989     370.3453      1.753     4.05     1247.184     65.31186     111.3176         6     1.049     0.447  30.43   0
       115     95.7445    753.9179 307.8676146  +6.3113302     976.0952     2238.797       2401.1     92.88073       185.32     370.5664      2.634     6.17     1247.361     65.31186     146.5089        15     1.649     1.005  -8.12   0
       116    847.5912    746.6685 307.5544661  +6.3396401     1356.682     2931.701     3314.619       92.291     185.0252      370.419      2.129     8.16     1236.124     65.31186     167.8635        21     1.421     1.309  84.55   0
       117    810.9622    746.0863 307.5697538  +6.3386523      1845.66     4434.141      5341.42     92.88073     185.2464     370.5296      2.367     7.31     1236.363     65.31186     204.8341        32     1.657     1.486  56.00   0
       118    876.9081    746.9476 307.5422364  +6.3405076     1309.079     2682.477     2624.531     92.73365     185.1727     370.7505      2.111     7.46     1235.842     65.31186     173.3027        18     1.490     1.046 -66.33   0
       119     79.7541    746.5916 307.8745212  +6.3138222     1368.003      3197.01     3734.591       92.291     185.1727     370.1241      2.433     6.83     1246.885     65.31186     172.3333        17     1.591     0.878  54.94   2
       120    547.0878    737.8908 307.6800159  +6.3331799     159196.7     448207.1     511803.8     92.73365     185.8349     370.6769      2.541     6.52     1240.477     65.31186     17047.07       173     2.120     1.969  82.32   0
       121    391.4189    740.6481 307.7448123  +6.3267982     3380.314     10186.49     12208.99       92.291       185.32     370.2716      2.711     7.23      1246.31     65.31186     436.1345        56     2.033     1.779  76.15   0
       122    334.6398    738.9949 307.7685334  +6.3255691     5732.755     16752.44      19377.7     91.99472     185.0252     370.1979      2.615     6.74     1247.761     65.31186     662.3462        61     2.000     1.789  66.62   0
       123    633.4816    740.4250 307.6439207  +6.3350358     597.4366      1232.12     1095.093     92.58633     185.0252     370.4927      1.726     3.95     1238.999     65.31186     99.93945         5     1.122     0.397  16.28   0
       124    652.8748    735.1423 307.6360103  +6.3378742     1638.752     4553.731     4785.331     92.88072       185.32     370.5296      2.445     7.35     1238.563     65.31186     214.2233        35     1.768     1.620  57.19   0
       125    885.3007    733.7827 307.5391690  +6.3462382     3596.011     7803.309     8979.194     92.88073     185.0989     370.2716      2.258     5.46     1234.947     65.31186     385.5343        36     1.608     1.454  74.22   0
       126    627.8195    729.3468 307.6466446  +6.3394310     1747.141     4718.564     5678.103       92.291       185.32     370.3085      2.601     7.76     1238.434     65.31186     190.8055        37     1.839     1.485 -62.86   0
       127   1018.6597    727.8130 307.4837727  +6.3531772     3751.334      7475.34     7979.112     92.14298     185.2464     354.9121      2.043     4.73     1229.287     65.31186     451.4067        35     1.652     1.288  86.06  16
       128    816.0759    728.3990 307.5682018  +6.3461450     864.2162     2140.428     2209.019     91.99472     184.6559     370.3453      2.291     4.66     1235.236     65.31186     119.1096         7     1.145     0.539 -27.21   2
       129    619.7604    725.7537 307.6501219  +6.3406473     1005.462     2632.103      4733.17     92.73365       185.32     370.3453      3.966     9.03     1238.366     65.31186     144.1102        16     1.802     1.263 -46.90   3
       130    621.1918    722.7876 307.6496226  +6.3419232     1118.978      2369.33     3476.585     92.43878     185.0989     370.4559      2.400     7.51     1238.224     65.31186     136.2688        20     1.618     0.975  18.23   3
       131    904.1340    721.5018 307.5317203  +6.3519529     2202.548     4317.021     4443.169     92.88072     185.3937     370.5664      2.036     5.66     1233.925     65.31186     232.4674        27     1.520     1.234  64.38   0
       132    362.6040    717.6989 307.7575784  +6.3353261     1178.624     3434.323     4392.616     92.58633     184.9514     370.1241      2.864     9.38     1245.603     65.31186     148.5728        28     1.981     1.575 -61.33   0
       133    498.6038    707.3943 307.7012281  +6.3441714      1442.43     4093.792     5155.348     92.14298     184.9514     370.3453      2.612     9.21     1240.856     65.31186     172.4563        34     1.770     1.567  44.84   0
       134    843.4089    706.5026 307.5575252  +6.3561252     690.7294     1402.819       2188.2     92.58633     184.8776     370.2716      1.892     5.27     1233.979     65.31186     140.6962         7     1.530     0.512 -19.33   0
       135    546.0070    703.6015 307.6815931  +6.3473363     2648.687     7808.822     10764.88     92.14298     184.9514     370.3085      3.062     8.75     1239.022     65.31186     303.6309        54     2.322     1.757  -9.63   0
       136    880.0555    701.6304 307.5424082  +6.3593709     1014.726     1940.126     1815.836     92.73364     185.3937     370.4927      1.936     7.06     1233.057     65.31186     121.8809        15     1.791     0.779  88.58   0
       137    106.6801    701.8763 307.8647744  +6.3332395      605.662     1111.789     1521.527     93.17419     185.6144     370.6769      1.881     5.77     1245.459     65.31186     83.07129         6     1.407     0.666 -72.32   0
       138    516.1791    697.5961 307.6942241  +6.3488185     8774.217     26119.83     30326.71     92.43878     184.9514     370.2716      2.622     7.18     1239.651     65.31186     1026.085        68     1.999     1.861  75.84   0
       139    929.4476    695.5252 307.5220182  +6.3635536     2590.759     5500.621     5279.244     92.73365     185.3937     370.5296      2.162     5.13     1231.591     65.31186     276.1335        33     1.559     1.391 -79.41   0
       140    306.7266    687.1614 307.7818755  +6.3460821     1043.067     1979.564     2259.165     92.73364       185.32     370.6032      1.769     6.32     1244.709     65.31186     151.3143        12     2.042     0.549  57.25   3
       141    310.1103    685.6125 307.7805161  +6.3468373     1579.491     3442.191     3466.852     92.58633     185.0252     370.3453      2.151     7.71     1244.586     65.31186     201.3302        26     1.914     1.160  54.33   2
       142     28.5487    688.4124 307.8977852  +6.3361715     818.4729      1566.47     2290.562     92.14298     185.2464     370.1979      2.940     7.51     1244.132     65.31186     97.39624         9     1.697     0.930  17.65   2
       143      9.0240    684.9777 307.9060368  +6.3369329     1040.925     2805.514     3101.435     92.43878     185.0989     370.4927      2.284     9.75     1243.864     65.31186     139.9846        26     1.921     1.380  50.51  16
       144    774.2498    681.9304 307.5871603  +6.3639757     30101.76     74794.96      83163.5     92.88073     185.2464     370.5664      2.395     6.05     1233.777     65.31186      2939.15        89     1.952     1.773  89.22   0
       145    231.1201    658.8693 307.8143233  +6.3552419     781509.5      2628622      3223799     93.17419      185.688     370.4927      2.909     6.22      1243.45     65.31186     64225.51       553     2.749     2.246  81.80   4
       146    896.3890    668.4940 307.5366843  +6.3736344     4367.194      9781.97        10898     92.58633     184.9514     370.2716      2.256     5.33     1230.448     65.31186     493.1628        47     1.807     1.531  74.66   3
       147    697.4733    673.7682 307.6194333  +6.3647763     38041.76       112145     160231.2     92.73365       185.32     370.5296      3.184    10.01     1234.263     65.31186     4247.654       162     3.433     1.984  30.55   0
       148    339.9934    675.8299 307.7683818  +6.3518939     6664.828     12420.02     14045.57       92.291     185.0252     370.2716      2.003     5.97     1243.573     65.31186     718.6411        31     1.880     0.964  41.11   3
       149    342.1598    673.3807 307.7675595  +6.3529806      9080.64     19921.41     22946.84     92.43878     185.0989     370.1979      2.245     7.05     1243.375     65.31186      1112.16        45     2.152     1.167  41.00   3
       150    401.9509    673.8040 307.7426220  +6.3548203     6775.353     11951.26     12841.76     92.14298     185.0989     370.1241      1.853     5.54     1242.275     65.31186     829.7151        29     1.817     0.940  42.02   3
       151    404.2092    671.3809 307.7417604  +6.3558993     9741.452     21373.14     24289.84     92.58633     184.9514     370.3453      2.262     7.28     1241.968     65.31186     1100.861        50     2.240     1.253  37.71   3
       152    939.9539    670.8268 307.5184467  +6.3741289     1446.494     3066.055      3285.42     92.43878     185.3937      370.419      2.151     5.90     1229.539     65.31186     185.4583        21     1.346     1.259 -80.47   0
       153    637.1370    667.7647 307.6447823  +6.3652339     3028.773     8580.219     9768.623     92.73364       185.32     370.4927      2.538     6.89     1235.267     65.31186     382.9755        49     1.872     1.714  86.07   0
       154    426.3995    664.3270 307.7327425  +6.3595664     705.5491     1413.547     1954.443     91.99472     184.6559     370.3453      2.487     5.17     1240.572     65.31186     88.92493         7     1.088     0.694   2.82   0
       155   1019.1893    660.5950 307.4857498  +6.3810181     628.3226      1071.21     1099.931     92.43879     185.0252     349.3299      2.086     4.91     1227.594     65.31186     123.4824         7     1.230     0.656 -31.36  16
       156    671.2729    657.6583 307.6308840  +6.3705642     1068.127     2864.402     2794.695     93.02757       185.32     370.4927      2.354     7.33     1233.807     65.31186     126.1631        18     1.624     0.926 -80.22   2
       157    406.0406    654.7439 307.7415445  +6.3628472     21887.39     68445.27     81873.36     92.73364     185.3937     370.5664      2.745     7.35      1240.31     65.31186     2662.743       100     2.176     2.019  70.09   0
       158    523.0134    655.6672 307.6927533  +6.3664033      1619.04     2658.415     2780.946       92.291     185.0989      370.419      1.327     4.89     1236.941     65.31186     267.8694         8     1.502     0.451 -28.65   3
       159    524.1421    652.6647 307.6923815  +6.3676840     3077.612     7535.792     8780.471     93.02757     185.2464     370.5664      2.481     8.18     1236.746     65.31186     344.4105        42     2.028     1.740  63.50   2
       160    440.7070    652.0273 307.7271831  +6.3651393     1956.651     5971.497     9548.622     93.02757     185.0252     370.3822      3.811     9.78     1238.898     65.31186     248.7733        49     2.316     1.703  61.63   2
       161    768.7980    650.0642 307.5904776  +6.3769827     6136.896     15999.33     17690.43     92.14298     185.0252     370.2716      2.414     6.09     1231.484     65.31186     598.7415        55     1.855     1.678  86.83   0
       162    135.2043    642.5036 307.8548444  +6.3587774     1381.084     3773.557     4691.531     92.58633     184.9514      370.161      2.818    10.12     1242.623     65.31186     183.4828        34     1.872     1.690  74.82   3
       163    126.9218    642.5783 307.8582944  +6.3584666     5102.469     15179.26     18943.71     92.43878     185.0252     370.5296      2.871     8.47     1242.605     65.31186     655.9991        72     2.707     2.139  34.99   3
       164    120.0960    639.4770 307.8612420  +6.3595197     1477.541     4414.154     7000.841     92.58633     185.4673     370.6032      3.583    12.94     1242.384     65.31186     181.0461        41     2.842     1.639  67.44   3
       165    790.8044    644.9975 307.5814698  +6.3798186     544.1039     1105.777     1501.313     92.14298     184.8037     370.2716      2.020     4.66     1230.721     65.31186     73.49036         5     1.223     0.504 -20.36   0
       166    914.2218    638.4922 307.5302323  +6.3866505     4137.884     9369.615     10737.87     92.88073     185.0989     370.3453      2.321     5.60     1227.686     65.31186     410.6344        42     1.687     1.514  89.72   0
       167    963.0859    637.8794 307.5098816  +6.3885416      1009.57     2009.612       2910.5     92.73365      185.688     370.6401      2.811     6.88     1226.671     65.31186      138.941        12     1.366     0.973 -51.74   0
       168    671.0396    635.5370 307.6317073  +6.3797128     800.6611     1965.977     2644.682     92.88072     185.2464     370.5664      2.727     6.08     1232.505     65.31186     104.6637         8     1.297     0.802 -57.62   2
       169    286.3534    639.7572 307.7919296  +6.3650159     2974.734     2988.497     3318.473     92.88073       185.32     370.4559      0.723     0.82     1241.072     65.31186     1447.522         5     0.533     0.429   2.49   0
       170    554.7931    636.4577 307.6801368  +6.3754236     861.3103     1547.432     1991.369     92.14298     185.1727     370.1979      1.790     6.88     1235.095     65.31186     124.1667        10     1.710     0.776  56.05   2
       171    557.8118    634.5615 307.6789408  +6.3763100     935.6614     2200.342     2720.535       92.291     185.0989     370.1979      2.425     7.41     1234.956     65.31186     125.3871        11     1.751     0.877  58.95   2
       172    908.4413    630.3439 307.5329089  +6.3898295     1969.834     4525.613     5020.857     92.73365     185.2464     370.5664      2.380     7.33     1227.264     65.31186     231.2803        31     1.701     1.422 -82.35   0
       173    968.7662    629.6882 307.5077815  +6.3921225      1392.38     2566.107     3120.729     93.02757     185.2464     370.5296      2.102     5.01     1225.948     65.31186     196.5952        17     1.284     1.048 -82.15   0
       174    937.8549    630.2823 307.5206488  +6.3908408     1922.435     4484.821     5035.165     92.88073       185.32     370.5664      2.323     6.40       1226.5     65.31186     235.1222        30     1.625     1.417  64.88   0
       175    661.2686    629.0959 307.6359920  +6.3820505     741.8264     1566.661     1857.355     92.73364     185.4673     370.5664      2.337     5.02     1232.286     65.31186     114.7286         8     1.323     0.538  13.46   0
       176    899.4545    677.0126 307.5351274  +6.3702111     5569.754     12073.65     13491.49     92.14298     185.2464     370.1979      2.202     5.04     1230.999     65.31186     589.8103        46     1.724     1.491  76.63   3
       177    243.9695    623.6628 307.8101278  +6.3702476     3042.724     4427.898     6332.446     92.58633     185.3937     370.4927      1.086     4.24     1241.088     65.31186     1185.845         9     1.304     0.394  64.55   0
       178    901.0229    618.0966 307.5364026  +6.3946503     684.2825     1485.072     2223.767     92.88073     185.0252     370.3085      2.466     5.25      1226.57     65.31186     103.5775         6     1.436     0.541  70.06   2
       179    952.8680    617.6759 307.5148025  +6.3965620     1600.435     3484.272      4126.99     93.02757     185.4673     370.5296      2.333     7.86     1225.319     65.31186     196.7081        25     1.633     1.309 -74.68   0
       180    926.3056    620.4303 307.5257860  +6.3945318     759.4783     1565.747     1359.794     93.02757     185.0252     370.4927      1.910     4.52     1226.005     65.31186     109.5228         7     1.177     0.493  -2.59   0
       181    993.9602    610.3694 307.4979103  +6.4009629     1018.852     2053.393     1617.649       92.291     185.0989     370.3453      1.946     6.00     1223.911     65.31186     154.7902        13     1.260     0.867  -3.70   2
       182    882.2485    606.9500 307.5445946  +6.3986347      859.778     1736.821     2104.024     92.88072     185.1727     370.4559      2.208     5.44     1226.296     65.31186     147.0455        11     1.245     1.200  42.60   0
       183    837.9554    600.2845 307.5632785  +6.3999082     893.9838     1628.765     1649.936     92.88072     185.2464     370.5296      2.052     4.69     1226.372     65.31186      129.839         8     0.950     0.708 -79.41   1
       184     39.2447    597.8471 307.8963187  +6.3740176     1203.213     2888.614     3339.704     92.88073     185.2464     370.4927      2.554     7.48      1240.92     65.31186     168.4801        23     1.615     1.492 -69.75   0
       185    650.9771    586.1816 307.6416910  +6.3994676      2573.93     7793.869     8693.045     92.58633     185.2464     370.4559      2.642     8.01     1229.378     65.31186     274.5219        48     1.946     1.709 -73.16   0
       186    598.5675    587.1686 307.6635076  +6.3972972     615.0437     1258.637      1781.52       92.291     185.0252     370.1979      2.373     4.89     1230.281     65.31186     90.29395         5     1.087     0.622 -23.24   0
       187    114.0635    582.3660 307.8656418  +6.3829540     1575.501     4753.027     5804.637     92.73364     185.3937     370.5296      2.740     9.85     1239.204     65.31186     206.1412        40     1.946     1.678  63.68   0
       188    624.0308    583.5037 307.6530126  +6.3996703     799.5228      1904.15     2022.394     93.02757     185.0252     370.6032      2.364     4.26      1229.56     65.31186      134.092         5     0.939     0.550  41.06   3
       189    987.7317    581.2006 307.5014612  +6.4128280     1628.602     3680.723     3694.812       92.291     184.7298     370.3085      2.131     6.43     1222.249     65.31186      217.788        26     1.508     1.336  68.84   0
       190    767.7996    578.0802 307.5932541  +6.4067448     9777.735     26965.49     30641.87     91.99472      184.582     370.1979      2.526     6.40     1226.141     65.31186     1025.061        69     2.014     1.779  77.06   0
       191    897.6572    577.8627 307.5391232  +6.4111912     2218.924     5318.336     6021.059     93.02757     185.2464     370.5664      2.387     6.49     1223.842     65.31186     246.5568        36     1.782     1.434 -86.04   0
       192    624.4504    580.2296 307.6529452  +6.4010396      734.863     1735.123     2706.554     92.43879     185.4673      370.419      2.323     5.83     1229.221     65.31186       117.03         7     1.506     0.634   9.52   0
       193    241.5365    572.3185 307.8128347  +6.3914170     2325.296     7988.915      9292.67     93.02757     185.3937     370.5296      2.756     7.49     1236.287     65.31186     323.7091        56     2.075     1.869  55.60   0
       194    646.6814    572.0102 307.6439471  +6.4051890     2346.124     4210.619     5530.256     92.43878     184.9514     370.3453      2.048     7.01     1228.291     65.31186     299.7775        24     1.923     1.026  54.37   3
       195    649.9998    570.5062 307.6426131  +6.4059231     2756.524     5665.446     7385.688       92.291     184.8776     370.1241      2.355     8.99     1228.177     65.31186     315.7839        29     2.108     1.071  40.37   3
       196    907.6183    562.4120 307.5354762  +6.4179205      854.321     1583.263     2264.629     92.58633     184.9514      370.419      2.180     5.43     1222.499     65.31186     102.9681         6     1.272     0.654  76.53   0
       197    718.3911    560.7025 307.6144225  +6.4122788     1255.968      2158.81     2761.919     92.58633     184.8776     370.2716      1.956     6.10     1225.952     65.31186      196.903        11     1.736     0.602  41.54   3
       198    721.2896    558.5249 307.6132856  +6.4132775     1609.405     2987.822     4300.532     92.88073      185.688     370.6032      2.356     5.98      1225.72     65.31186     206.5381        23     1.591     1.102  45.26   2
       199    986.3007    555.7756 307.5028896  +6.4233041     5806.248     12418.33     13101.63     93.02757     185.0252     370.3085      2.182     5.04     1220.761     65.31186     621.0774        43     1.663     1.504  88.42   0
       200    924.7371    556.4318 307.5285350  +6.4209697     1508.621     3484.773     4235.448     92.58633     185.3937     370.4927      2.379     7.95     1221.698     65.31186     217.5488        29     1.703     1.453  63.18   0
       201     63.9590    551.4062 307.8875506  +6.3940748     10548.45     33167.23     39886.02     91.99472     184.9514     370.1979      2.710     7.13     1238.788     65.31186      1388.62        80     2.174     1.913  76.44   0
       202    526.7040    551.1113 307.6946517  +6.4098045     713.9459     1853.286     2474.707     92.88073     185.7614     370.5664      2.444     6.27      1228.94     65.31186     120.8588         7     1.440     0.766  41.60   2
       203    491.8927    549.5130 307.7092169  +6.4092944     661.7975     1543.848     2392.018     92.88072     185.8349     370.6401      2.322     3.44     1229.323     65.31186     109.7483         5     1.205     0.284 -54.82   0
       204      7.7520    555.7126 307.9108386  +6.3903918     812.5308      1662.28      2484.11     92.88073     185.1727      367.422      2.695     5.75     1240.707     65.31186     119.7769         9     1.231     0.921  73.43  18
       205    709.9378    542.8269 307.6185332  +6.4193939     1561.335     4467.347     5260.279     92.43878     185.3937     370.4559      2.590     8.75     1224.829     65.31186     208.3949        35     1.836     1.605  56.84   0
       206    730.5572    541.3566 307.6099851  +6.4206950     1720.703     3821.934     4136.772     92.58633       185.32     370.3453      2.213     8.16     1224.186     65.31186     193.8003        28     2.010     1.061  86.55   2
       207    733.6246    541.7607 307.6086930  +6.4206307     1380.545     2369.963     2093.093     92.43879     185.0989     370.2716      1.688     4.94     1224.163     65.31186     185.5289        13     1.488     0.703 -88.07   3
       208    565.5616    539.2319 307.6788425  +6.4160289     1024.576     2179.371     3195.867     92.43879     185.0252     370.3085      2.637     6.49     1227.126     65.31186     132.5458        11     1.624     0.727  84.04   2
       209    561.7670    540.9465 307.6803681  +6.4151916     1212.814     2737.521     3863.481     92.73364     185.2464     370.4559      2.935     8.81     1227.391     65.31186     150.0288        18     2.113     1.024  64.71   2
       210   1004.6155    537.2337 307.4958603  +6.4315924     3402.376     6900.485     7105.287     92.43879     185.0252     370.3822      2.019     5.05     1219.067     65.31186      445.708        33     1.567     1.343 -83.39   0
       211    970.0018    536.0197 307.5103313  +6.4309356     4934.015     11498.49     12564.16     92.43878     184.8037     370.1979      2.305     5.57     1219.559     65.31186     585.0522        46     1.815     1.522 -84.84   0
       212    225.2969    537.9636 307.8207374  +6.4050886     880.0621      1638.93      1586.15     92.88072     185.1727     370.7137      2.153     5.64     1233.041     65.31186     130.1562         9     1.200     0.747  73.32   0
       213    400.5102    538.1504 307.7476874  +6.4109200     699.8852     1255.488     2025.563     92.88073     185.0989     370.6769      2.981     5.16     1230.023     65.31186     90.25354         6     1.095     0.687  42.47   0
       214    128.6838    530.2909 307.8612662  +6.4050018     9222.853     31026.61     37096.15     92.58633      185.688     370.6769      2.779     7.27      1235.85     65.31186     1182.412        80     2.187     1.959  75.28   0
       215    413.9928    532.5140 307.7422521  +6.4137072     910.1642     1891.217     3208.702     92.43878     184.9514     370.2716      2.310     5.01     1229.278     65.31186       122.88         7     1.075     0.661  40.60   3
       216    414.9714    529.2010 307.7419532  +6.4151114     903.4195     2461.242     3562.453       92.291     185.0989     370.3085      3.231     5.64     1228.866     65.31186     134.9622        10     1.781     0.504  47.27   2
       217    796.7089    529.6457 307.5827895  +6.4277632     786.4636     1425.314     1454.446     92.88073     185.2464     370.6769      1.691     5.02     1223.193     65.31186      111.806         5     1.178     0.605  55.65   0
       218    964.8524    519.1749 307.5130295  +6.4377355     4400.614     10082.64     12380.67     92.43878       185.32      370.419      2.622     5.52     1218.249     65.31186     1686.754        45     1.778     1.523  54.72   0
       219    558.5294    514.7144 307.6825800  +6.4259405     18314.02     60671.61     72634.77     93.02757     185.6144     370.5664      2.800     7.79     1225.452     65.31186     2111.948       104     2.227     2.068  75.97   0
       220     11.5984    518.8989 307.9104519  +6.4057589     617.2902     1207.873     1021.124       92.291     185.0252      370.161      1.533     3.86     1238.788     65.31186     99.03296         5     0.873     0.489  87.57   0
       221   1020.1479    514.2252 307.4901370  +6.4416364     62583.02     131391.5       140915     92.43878       185.32     337.0801      2.142     4.85     1216.516     65.31186     6650.877        88     1.850     1.572  83.69  24
       222    166.9895    511.7396 307.8459096  +6.4139741     1060.031     3330.782     4021.368     92.14298     185.1727     370.1979      2.803     9.77     1233.948     65.31186     161.6917        24     1.862     1.444 -27.90   0
       223    454.6310    500.3167 307.7263695  +6.4284028     20563.12     37241.34      40869.8     92.88073     185.0989     370.3822      1.918     5.75     1225.586     65.31186     2342.958        39     1.871     1.046  39.60   3
       224    456.4492    497.5343 307.7257030  +6.4296157      23814.7      57106.5     66333.59     92.73365     185.1727     370.4927      2.408     7.87       1225.4     65.31186     2764.256        64     2.317     1.321  35.63   3
       225    301.6502    487.5507 307.7905683  +6.4285309     929.1743     2419.315      3491.21     92.88073     185.1727     370.4559      3.126     8.60     1227.677     65.31186     117.4241        15     1.637     1.263   1.10   0
       226    727.8350    481.8915 307.6130709  +6.4452173     2355.186     6904.484     7769.251     93.02757     185.1727     370.5664      2.593     7.52     1221.071     65.31186     271.5276        47     1.897     1.704  62.38   0
       227    781.3165    477.1230 307.5909291  +6.4489868     6328.976     17665.11     19557.37     93.02757      185.688     370.6401      2.545     6.70     1220.217     65.31186     663.1766        60     1.970     1.770  89.57   0
       228   1021.0049    476.1338 307.4910256  +6.4574321     1351.543      2890.41     3166.908       92.291     182.5744     324.8305      2.210     7.35      1212.73     65.31186     183.1876        21     1.577     1.213 -68.84  24
       229    997.7674    478.0031 307.5006532  +6.4558802      673.128      1345.98     1719.126     91.99472     185.0989     370.1979      2.941     4.91     1213.731     65.31186     108.6798         8     1.230     0.556 -74.72   0
       230    604.2874    475.2136 307.6648006  +6.4438295     1120.149     3413.407     4264.847     92.43878     185.0989      370.419      2.846     8.35     1221.612     65.31186     137.6172        21     1.765     1.102  82.47   2
       231    921.2871    470.3107 307.5327930  +6.4565017     676.5049     1210.404     1293.617     92.58633     185.8349     370.6769      1.683     4.62     1215.875     65.31186     98.24243         6     1.090     0.555  57.19   0
       232    857.3232    460.4619 307.5597850  +6.4584335     1430.144     3876.348     3901.444     93.17419     185.3937     370.5296      2.561     8.40     1216.895     65.31186     161.0991        31     1.786     1.498  85.47   0
       233    815.9255    457.7025 307.5771360  +6.4581869     1259.164     3366.067     3939.353     92.43878     185.4673     370.5664      2.630     9.38     1218.081     65.31186     154.9106        28     1.772     1.384 -78.23   0
       234    242.9595    454.7362 307.8161184  +6.4401328     2353.344      4853.19     5061.673     92.88073     185.2464     370.6401      2.126     6.41     1226.865     65.31186     290.1422        21     1.656     0.903  52.37   3
       235    245.4381    452.4808 307.8151594  +6.4411500     3183.352     7055.956     8589.491     92.88073     185.3937     370.4559      2.436     7.81     1226.525     65.31186     350.5801        39     2.362     1.219  42.63   3
       236    795.4882    449.0496 307.5859409  +6.4610827     72212.87       150737     175592.4     92.88072     185.0989     370.6769      2.293     6.70     1217.871     65.31186     7652.473       119     2.400     1.801 -89.26   3
       237    798.6794    448.3468 307.5846333  +6.4614806     55195.57     88885.56     94004.11     92.88073       185.32     370.5664      1.734     4.95     1217.774     65.31186     6408.924        37     1.491     1.010  70.78   3
       238    178.4925    447.8274 307.8432230  +6.4408159     20862.54     73100.44     90413.63     93.02757     185.0252     370.3822      2.876     7.76     1229.784     65.31186     2648.207       106     2.307     2.070  76.33   0
       239    102.5318    444.1572 307.8750124  +6.4397687     2354.474     7630.721     9383.336     92.88073     185.2464     370.6032      2.814     7.83     1232.423     65.31186     299.7928        56     2.188     1.790  69.02   0
       240    967.2809    440.7114 307.5145848  +6.4702949     892.2862     1637.056     1946.587     92.58633     185.5409     370.6401      2.232     5.81     1212.124     65.31186     117.9335         8     1.314     0.752  10.62   0
       241    833.0477    436.0615 307.5707062  +6.4677191     2089.704     5540.082     6136.688     92.73365     185.2464     370.6032      2.509     8.03     1216.188     65.31186     273.1564        36     1.818     1.518  80.45   0
       242    350.5085    432.5307 307.7720114  +6.4529516     4931.815     8341.201     9526.808     92.88073     185.4673     370.5296      1.866     5.49     1222.063     65.31186     564.6931        20     1.351     1.029  81.48   3
       243    350.7344    436.9826 307.7717706  +6.4511165     4895.374     8948.221      10418.7       92.291     185.2464     370.3822      1.948     6.04     1222.444     65.31186     568.5173        26     1.796     0.934  38.41   3
       244    353.7850    434.3936 307.7705840  +6.4522910     6410.635     11589.66     12813.91     92.43879     185.0252     370.3453      1.930     5.70     1222.111     65.31186     784.9891        34     1.852     1.061  78.87   3
       245    787.1782    429.7542 307.5900383  +6.4687905     2730.429     7862.042     9177.562     92.43878       185.32     370.3453      2.653     6.85     1216.375     65.31186     347.5807        51     1.970     1.749  74.70   0
       246    516.9400    431.0371 307.7026703  +6.4591762     2299.167     4361.666     5643.262     92.88073     185.3937     370.4927      2.092     6.42     1218.929     65.31186     272.1943        24     1.711     1.005  48.63   3
       247    520.3166    429.5030 307.7013130  +6.4599249     1941.118     3190.613     4419.119     92.88073     185.7614     370.6032      1.844     6.14      1218.83     65.31186     271.4725        15     1.622     0.663  82.44   3
       248    517.4832    427.5615 307.7025581  +6.4606331      1995.73     2862.309     4127.977     92.88073     185.2464     370.4927      1.615     3.74     1218.662     65.31186     273.1194        12     1.051     0.782  25.37   3
       249    167.3907    422.6857 307.8486812  +6.4508472      2468.71     4810.874     6880.906     92.43879     184.9514     370.3453      2.722    10.24     1228.838     65.31186     308.7972        34     2.708     1.321 -55.85   3
       250    164.6930    421.3540 307.8498498  +6.4513072     2192.071      5395.59     6274.503     92.73365     185.2464     370.6769      2.492     9.23     1228.833     65.31186     270.4888        24     1.709     1.391 -49.79   3
       251    258.9712    421.1471 307.8105504  +6.4545758     25889.83     51662.97     56512.94     92.58633     185.4673      370.419      2.072     6.65     1223.154     65.31186     2642.329        42     1.953     1.022  46.85   3
       252    261.5855    418.4460 307.8095496  +6.4557821     33064.54     78786.59     94343.92     92.14298     185.0989     370.2716      2.496     8.03     1222.705     65.31186     3713.996        80     2.422     1.470  40.90   3
       253     36.0014    423.7049 307.9034247  +6.4459846     1611.354     2966.665     3534.987       92.291     184.9514     370.0872      1.928     6.53     1232.774     65.31186     189.7067        16     1.477     0.843  32.40   3
       254     37.8296    420.7627 307.9027597  +6.4472642     2103.472     4483.893     5153.037     92.43878     185.0252     370.3822      2.223     7.84     1232.584     65.31186     278.7668        31     2.049     1.198  35.45   3
       255    562.1803    423.5898 307.6840528  +6.4637811     1017.841     2814.023     4044.575     92.43878     184.9514     370.3822      3.031     6.92     1218.229     65.31186     117.9412        15     1.241     1.080  -3.03   2
       256    782.2620    411.5333 307.5926857  +6.4761675     7351.626     16070.51     18797.42     92.88073     185.2464     370.5296      2.313     6.79     1214.895     65.31186     763.2675        48     2.210     1.236  77.67   3
       257    785.2466    410.9793 307.5914594  +6.4764970     5797.371      10087.5     10996.68     92.43878       185.32     370.3453      1.841     4.84       1214.8     65.31186     627.2211        19     1.600     0.806  82.39   3
       258    958.6068    412.6783 307.5191192  +6.4816079        810.7     1500.189     1681.885     92.43879     184.7298     370.2716      1.917     4.75     1210.475     65.31186     127.5448         7     1.357     0.472 -84.34   0
       259    486.1699    411.7763 307.7161330  +6.4661127      13719.1     26428.09     29393.93       92.291     185.1727     370.3085      2.033     5.79     1217.249     65.31186      1464.85        42     2.000     1.115  37.97   3
       260    488.4541    409.2248 307.7152646  +6.4672457      15395.8     35792.09     42757.56     92.43879     185.3937     370.3085      2.442     8.45     1216.964     65.31186     1475.222        61     2.546     1.290  36.33   3
       261    645.5933    404.4131 307.6499041  +6.4745238     1281.308     3382.251     4992.371     92.43879     185.0989     370.3822      3.507     8.54     1215.344     65.31186     156.2539        23     1.706     1.194 -77.06   2
       262    658.1201    404.2364 307.6446868  +6.4750180     490.4875     1536.086     2006.423     92.73364     185.3937     370.5296      3.024     4.35     1214.993     65.31186     93.22986         7     2.114     0.255 -18.58   0
       263    315.1357    401.4323 307.7877838  +6.4646307      1035.44     1820.283     3014.295     92.58633     185.3937     370.4927      2.204     6.32     1219.757     65.31186     148.3464        15     1.822     0.615  49.14   3
       264    317.2315    398.4730 307.7870076  +6.4659262      1505.31     3975.926     5416.223     92.73365       185.32     370.5664      2.873     9.41      1219.55     65.31186     192.2643        30     2.073     1.193  38.68   2
       265    131.6223    397.8851 307.8644122  +6.4599038     9110.033     32061.77      39241.4     92.73364     184.9514     370.4559      2.863     7.75      1229.05     65.31186      1157.69        81     2.277     1.974  77.14   0
       266    385.9215    401.1682 307.7582795  +6.4671265     625.3635     1599.205     2322.626     92.73364       185.32     370.4927      3.006     4.88     1218.488     65.31186     91.15552         5     0.880     0.767 -11.40   0
       267    495.1199    397.5164 307.7128704  +6.4723164     743.1954     2113.385     2361.905     92.73364     185.6144     370.6401      3.127     7.73       1215.9     65.31186     108.6409         9     1.919     0.871 -74.39   0
       268    858.5802    397.4360 307.5613261  +6.4845636     754.7195     1836.766     1851.118       92.291     185.0989     370.2716      2.415     6.97     1212.772     65.31186     125.4098         7     1.441     0.945  13.52   0
       269     98.1512    396.0396 307.8784278  +6.4595365     1201.921     2928.054     4112.124     92.73365       185.32      370.419      2.837     9.34     1230.565     65.31186     136.1913        22     2.099     1.159  40.34   2
       270    956.8678    391.7661 307.5205289  +6.4902057     3001.158     7078.784     7443.613     92.73364     185.3937     370.6401      2.295     5.91     1208.939     65.31186     341.8593        39     1.712     1.530  78.46   0
       271    529.2858    386.9892 307.6989712  +6.4778238     634.7906      1148.44     2027.082     92.43878     185.0252     370.3453      3.159     4.90     1214.637     65.31186     91.58398         5     0.905     0.752 -89.68   0
       272    427.1164    380.4207 307.7417867  +6.4771023     13040.51     24992.56     27322.12     92.58633     184.9514      370.419      2.027     6.35     1216.232     65.31186     1432.935        39     1.996     1.028  47.45   3
       273    429.5933    377.8082 307.7408400  +6.4782670     15315.79     37492.96     44121.41     92.14298     185.0989     370.3453      2.459     8.40     1216.006     65.31186     1675.601        59     2.356     1.313  41.64   3
       274    635.1882    378.5622 307.6550916  +6.4848741     4675.072     10997.79     13418.71       92.291     185.0989      370.161      2.539     8.73     1213.545     65.31186     450.0345        51     2.335     1.508  69.65   3
       275    638.4857    377.4946 307.6537517  +6.4854269     3737.848     5764.327     6189.297     92.88073     185.7614     370.6032      1.719     4.41     1213.334     65.31186      411.293        18     1.345     0.903  76.05   3
       276    193.7429    376.6335 307.8392140  +6.4707982     7110.976     24719.12     31225.35     92.73365       185.32     370.5296      2.953     8.27     1224.243     65.31186       827.49        83     2.313     2.028  65.43   0
       277    159.1530    379.0831 307.8535547  +6.4686161     754.9422      2074.16     2583.724     92.88072       185.32     370.5296      2.710     5.19     1226.648     65.31186     105.1614         7     1.296     0.586  49.65   0
       278    560.6438    374.3745 307.6863111  +6.4841004     992.9775     1765.312     2586.356     92.43879     185.3937     370.3822      2.163     7.75     1213.246     65.31186     133.0911        13     1.989     0.845  44.13   2
       279    968.6905    376.0783 307.5161126  +6.4970954     544.6366     1242.167     1876.112     92.58633     185.6144     370.6032      2.627     5.57     1207.007     65.31186     116.2927         7     1.262     0.693 -85.28   0
       280    809.6504    376.5676 307.5824123  +6.4915598      681.037     1458.318     1944.377     92.73365     185.3937     370.4559      2.316     7.37     1211.368     65.31186     86.05713         8     1.460     1.042  48.75   0
       281    557.6296    377.2743 307.6874726  +6.4827987     980.8085     1978.012     2505.508     92.73365       185.32     370.5296      2.244     9.43     1213.543     65.31186     134.9587        15     2.092     1.185  63.94   2
       282    932.0801    372.0407 307.5315105  +6.4975398     2537.533     6459.557     6765.644     92.88073       185.32     370.4559      2.320     6.13     1208.797     65.31186     290.6199        41     1.777     1.556  84.61   0
       283    607.3580    370.9202 307.6669467  +6.4871015     2180.877     3877.375     4630.358     92.88072       185.32     370.4927      1.901     7.05     1213.127     65.31186     251.0492        25     1.926     0.880  81.97   3
       284    603.9032    370.9561 307.6683861  +6.4869704     2293.271     5631.394     6669.492     92.88073     185.2464     370.7137      2.398     8.86     1213.114     65.31186     278.1084        30     2.155     1.017  83.17   3
       285    953.4781    364.4246 307.5228374  +6.5014094     1740.836     2815.488     3326.227     92.43879     185.1727     370.4927      1.806     7.60     1206.978     65.31186      204.806        20     1.817     0.963  86.05   3
       286    956.4721    363.9477 307.5216045  +6.5017071     1340.235     2242.501     2275.353     92.73364       185.32     370.5664      1.846     5.39     1206.805     65.31186     178.6702        13     1.467     0.700  83.93   3
       287    515.8302    363.3681 307.7053584  +6.4871480     2430.906     4336.025     5305.276       92.291     185.0252     370.2347      1.925     5.57     1212.347     65.31186     287.0293        18     1.358     0.949  52.11   3
       288    518.7141    361.2350 307.7042261  +6.4881280     2649.703      6383.94     8759.958     92.88073     185.1727     370.5296      2.661     9.64     1212.116     65.31186     284.1321        39     2.351     1.488  40.30   3
       289    363.6473    362.6453 307.7688353  +6.4823207     858.5215     3231.547      4301.53     92.88073     185.1727     370.5664      3.028    10.69     1216.469     65.31186     150.5105        27     1.963     1.621 -26.14   0
       290    873.7853    357.4281 307.5562969  +6.5016337     1559.922     4198.545     5419.864     92.43879     185.0989      370.419      2.740     9.28     1208.597     65.31186     175.2677        31     1.776     1.354 -89.75   0
       291    880.3944    352.6264 307.5536984  +6.5038429     1137.054      2742.36     3948.602       92.291     185.0989     370.3085      3.249     8.88     1208.137     65.31186      131.113        19     2.096     1.049  77.10   0
       292    704.9608    348.2115 307.6269952  +6.4997817     1136.594     3316.512     3700.313       92.291     185.0989     370.2347      2.604     9.76     1210.891     65.31186     122.5831        28     1.780     1.492  69.49   0
       293     67.8720    346.6659 307.8926830  +6.4789485     896.2078     2438.894      2681.91     92.88073     185.3937     370.6032      2.747     7.22     1229.365     65.31186     125.0601         9     1.339     1.090 -35.37   2
       294    374.8445    348.3878 307.7646363  +6.4885994     1184.371     2299.192     2845.374       92.291     185.1727     370.1979      2.001     5.82     1215.339     65.31186      181.361        12     1.454     0.656  55.27   3
       295    377.1258    345.7575 307.7637717  +6.4897651       1365.9     3625.625     4340.042     92.73364     185.3937     370.5664      2.559     8.82     1215.178     65.31186     181.6077        23     2.003     1.084  33.70   3
       296    602.9123    343.6444 307.6696966  +6.4982418     3665.883     9032.207     11826.09     92.88072     185.1727     370.5664      2.694     9.09     1210.375     65.31186     357.5332        37     2.400     1.090  77.62   3
       297    606.1003    342.7276 307.6683975  +6.4987285     3310.798     6006.849     7104.707     92.58633     185.5409     370.5296      1.918     5.97     1210.284     65.31186     410.6882        24     1.789     0.906  80.93   3
       298    765.5266    339.7999 307.6020166  +6.5052976     6916.388     15009.44     19078.25     91.99472      184.582     370.2716      2.460     7.38     1209.573     65.31186     794.5958        55     2.423     1.656  88.73   3
       299    768.3790    338.6978 307.6008634  +6.5058495     5368.622     9107.716     11489.51     92.73365     185.0989     370.2347      1.915     4.87      1209.46     65.31186     675.0568        21     1.421     1.027  74.30   3
       300    287.6619    339.3311 307.8012857  +6.4894080     1077.612     2951.301     3882.746     92.88073       185.32     370.5664      2.978     8.55     1217.118     65.31186     128.7036        19     2.064     0.990  33.41   2
       301    794.5711    335.9722 307.5900311  +6.5078570     525.4077     1315.472      1710.83       92.291     185.0989     370.3085      1.620     4.35     1208.609     65.31186     88.93958         5     1.567     0.343  62.56   0
       302    950.7349    334.1777 307.5249715  +6.5138374     964.2682     2194.182      2757.39     92.43878       185.32     370.3822      2.343     5.61     1204.806     65.31186     139.4802        12     1.511     0.586  78.10   2
       303    105.1248    331.8290 307.8776411  +6.4863489     1860.432     5499.622     7081.917     92.73364     185.3937     370.5296      2.885     8.90     1227.864     65.31186     252.7631        39     2.176     1.568  61.36   2
       304    740.9255    330.3949 307.6125834  +6.5083644     1038.351     2195.062     2457.093     92.43878     184.7298      370.419      2.158     6.39     1209.517     65.31186     132.9226        15     1.533     0.749 -88.93   0
       305   1005.6902    328.9010 307.5022281  +6.5178627     2453.453     6082.221     6934.478     92.88073     185.8349     370.4927      2.461     6.26     1202.108     65.31186     268.2614        40     1.803     1.521  26.88   0
       306    339.2267    328.7068 307.7801356  +6.4955447     1017.025     2283.688     2880.486     93.02757     185.0252     370.3453      2.216     8.13     1215.138     65.31186     155.2032        13     1.973     0.937  17.17   2
       307    341.4926    325.5206 307.7792959  +6.4969399     1206.188     2712.904     3378.152     92.58633     185.6144     370.6032      2.249     8.06     1214.931     65.31186      167.655        17     2.011     0.903  32.46   2
       308    695.2292    323.4125 307.6318672  +6.5097195      681.012     1658.921     2220.982       92.291     185.0252      370.419      2.423     3.49      1208.51     65.31186     99.26404         5     0.756     0.466  15.54   0
       309    807.1349    313.1566 307.5855403  +6.5177225     1007.725     2496.907     3123.333     92.88072     185.2464     370.5296      2.639     8.50     1207.347     65.31186     122.7711        16     1.734     1.164  81.36   0
       310    703.9238    311.8324 307.6286218  +6.5148048     5859.805     13455.06     16157.88     92.73364       185.32     370.4559      2.428     7.95     1207.638     65.31186     570.0402        44     2.349     1.184  76.15   3
       311    706.7578    310.7219 307.6274765  +6.5153597     4647.917     7909.408     9275.615     92.73365       185.32     370.5664      1.857     5.20     1207.605     65.31186     560.1532        24     1.674     0.965  77.79   3
       312    625.3660    306.6968 307.6615479  +6.5142901     1013.606     3266.137     3965.773     93.02757     185.1727     370.7137      2.930    10.36     1206.546     65.31186     121.6577        29     1.817     1.648  -1.74   0
       313    598.5053    302.3881 307.6728899  +6.5151703     6352.407     20001.85     29867.26     92.58633     185.0252     370.2716      3.232     8.47     1206.014     65.31186     723.8923        99     2.810     2.057  39.21   0
       314    930.1403    301.1471 307.5346410  +6.5268193     2043.545     5055.343     5890.714     92.88072     185.2464     370.5296      2.403     6.27     1202.808     65.31186     228.6807        36     1.686     1.479  83.60   0
       315    368.0057    298.9962 307.7691147  +6.5088125     8972.699     20485.54     25783.56     92.14298     184.9514     370.3453      2.501    10.96     1212.449     65.31186     964.2498        51     2.594     1.291  72.63   3
       316    371.5966    296.8691 307.7676874  +6.5098140     10209.79     19724.08     23461.78     92.14298     184.8776     370.2716      2.114     7.12     1212.145     65.31186     1252.781        43     2.181     1.110  63.52   3
       317    116.0172    296.9965 307.8742500  +6.5011342     969.5628     3083.034     3465.296     92.43878     184.8037     370.3453      2.697    10.35     1226.294     65.31186     133.3506        26     2.008     1.486 -15.78   0
       318    885.4651    297.3483 307.5533951  +6.5268939     679.5184      1381.84     2283.904     92.88073     185.2464     370.4927      1.870     5.23     1204.079     65.31186     106.6257         6     1.315     0.588 -21.72   0
       319    899.0995    291.2581 307.5479090  +6.5298720     2533.977      6561.83     7591.721     92.58633       185.32     370.7505      2.493     6.26     1203.103     65.31186     326.8667        40     1.780     1.540  83.38   0
       320     50.5005    291.8432 307.9017374  +6.5010520     776.1365     1714.554     2335.343     92.88073     185.1727     370.7874      2.279     3.84     1229.421     65.31186     135.4496         6     1.325     0.319  72.57   0
       321    225.9942    290.0128 307.8286248  +6.5077398     4263.648     8559.061     10611.68     92.43878     185.0989     370.3822      2.248     9.00     1217.428     65.31186     443.7716        31     2.279     0.992  61.14   3
       322    229.3615    287.9684 307.8272882  +6.5086996     4941.402     9674.786     13110.54     92.43878     185.0252     370.3453      2.426    10.93     1217.307     65.31186     559.9597        41     2.723     1.221  50.12   3
       323    127.6102    276.8268 307.8700823  +6.5098742     1796.835     6250.334     7226.907     92.43878     185.0989     370.3822      2.830     9.11     1225.161     65.31186     207.4358        51     2.055     1.871  85.69   0
       324    150.3172    272.6309 307.8607530  +6.5123782     1041.427     2854.442     3587.815     92.88073     185.0989     370.3822      2.843    10.58     1223.627     65.31186     129.5292        24     2.111     1.478  82.22   0
       325    374.0525    265.8414 307.7676855  +6.5227394     808.7042     1906.364     2072.942     92.88073     185.3937     370.5296      2.061     6.37     1210.153     65.31186     108.9413        10     1.796     0.635  38.92   0
       326    960.4941    265.4881 307.5231508  +6.5425968     713.9134      1582.47      1817.89     92.88073     185.8349     370.6032      1.935     3.84     1199.654     65.31186     98.93701         6     1.026     0.412  72.50   0
       327     23.1970    261.7971 307.9141148  +6.5125644     1375.739     4374.404     5368.455     92.14298     184.8037     370.3085      2.813     9.51      1230.13     65.31186     196.0186        43     1.939     1.822  83.12   0
       328    425.2312    262.4182 307.7464575  +6.5258812     2461.131     4379.057      5196.61     92.43879     185.0989     370.3822      1.958     6.62     1206.557     65.31186     281.5453        23     1.659     0.977  42.82   3
       329    428.5620    260.2161 307.7451411  +6.5269049     2666.945     5538.384     7083.997     92.43879     185.0989     370.2347      2.363    10.32     1206.063     65.31186     352.7021        35     2.439     1.216  38.78   3
       330    758.7021    262.2518 307.6074065  +6.5371672     638.7636     1451.322     2848.561     92.73365       185.32     370.7874      1.984     3.80     1204.323     65.31186     86.74084         5     1.033     0.401  -4.46   2
       331    767.2630    257.6337 307.6039881  +6.5393661     5440.561     16559.76     20317.38     92.73365     185.3937     370.4927      2.753     7.21     1203.999     65.31186     564.1942        62     2.030     1.830  79.52   0
       332   1010.9097    252.7005 307.5025451  +6.5495789      2218.52     4999.622     5458.631     92.88073     185.8349     370.4927      2.281     6.06     1197.217     65.31186     252.4664        32     1.629     1.399  85.22   0
       333    474.2364    246.5943 307.7265436  +6.5340817     1071.871     1712.217     2273.876     91.84622     185.0252     370.3085      1.689     5.82     1201.079     65.31186     162.6353        14     1.405     0.686  36.52   3
       334    476.9759    243.9935 307.7254869  +6.5352504     1117.812     2111.727     2498.981       92.291     185.0989     370.3453      2.167     8.03     1200.522     65.31186     133.9852        17     1.836     0.981  70.94   3
       335    473.0551    243.4317 307.7271403  +6.5353509     955.6916     1591.685     2067.736     92.73364       185.32     370.4927      1.897     6.10     1200.774     65.31186     139.9585         8     1.328     0.789 -67.48   3
       336    831.4557    240.7522 307.5777725  +6.5485085     15705.16     30858.15     35964.74     92.88073       185.32     370.6401      2.154     6.49     1201.997     65.31186     1597.203        50     2.282     1.058  78.96   3
       337    834.3965    240.2066 307.5765640  +6.5488330      10696.8     19117.46     21585.92     92.14298     184.9514     370.3822      1.869     5.63     1201.862     65.31186     1245.164        30     1.840     0.918  81.06   3
       338    449.1270    244.1628 307.7370941  +6.5342423     792.9395     1784.711      3006.85     92.73364       185.32     370.6032      2.583     5.76     1202.974     65.31186     103.7595         9     1.404     0.665  50.26   0
       339    606.3749    232.1604 307.6719163  +6.5445033     911.3875     2171.068     4353.544     92.43878     185.0989     370.2716      3.821     9.20     1199.376     65.31186      132.853        13     1.953     1.209  39.83   2
       340    687.9233    226.8331 307.6380846  +6.5494500     32126.49     75719.84     88508.25     92.73364       185.32     370.4927      2.403     7.48     1201.022     65.31186     3349.661        84     2.377     1.489  75.96   3
       341    691.0000    226.4825 307.6368131  +6.5496985     25901.16     44655.84     48014.91     91.99472     184.7298     370.1241      1.843     5.58     1200.984     65.31186     3043.692        32     1.902     0.895  87.56   3
       342     87.9838    225.6502 307.8882957  +6.5297166     1590.635     2848.362     3177.308       92.291     185.3937     370.1979      1.718     6.67     1227.049     65.31186     217.4349        16     1.887     0.661  38.63   3
       343     90.6319    222.0712 307.8873097  +6.5312875     2628.906     5663.842     6928.538     92.73364       185.32     370.4927      2.399     8.23     1226.899     65.31186     305.3158        41     2.219     1.482  32.59   2
       344    553.2851    223.2062 307.6943495  +6.5464235     993.0165     2287.787     2845.934       92.291     184.9514     370.2716      2.600     8.38     1198.243     65.31186     163.1372        17     2.023     0.971  51.80   2
       345    550.0894    224.7818 307.6956304  +6.5456637     1024.905      1946.86     2947.708     92.58633     185.0252      370.419      2.983     7.41     1198.298     65.31186     122.5035        16     1.815     0.847  56.16   2
       346    533.8485    221.3928 307.7025144  +6.5465199     2746.917      5038.08     5569.414       92.291     185.0989     370.0872      1.984     7.50     1198.128     65.31186     272.9205        22     1.731     0.910  57.87   3
       347    536.1135    218.9772 307.7016493  +6.5475960     2815.931     6652.326     8204.478     92.88073     185.0989     370.3822      2.485     9.11     1198.055     65.31186     308.4141        34     2.289     1.152  46.97   3
       348    262.8602    219.3003 307.8155851  +6.5382524     895.6319      2203.96     3050.245     92.58633     185.2464     370.6769      2.531     7.29     1215.527     65.31186     137.2043        10     1.828     0.814  31.51   2
       349    266.0363    217.1320 307.8143322  +6.5392570     873.7325      2067.32     2741.351     92.73365     185.3937     370.6401      2.450     6.28     1215.445     65.31186     112.2268        11     1.727     0.641  85.10   2
       350    399.8741    214.6570 307.7586039  +6.5447955     8902.607     16945.38     20009.62     92.88072     185.2464     370.4927      2.103     8.21     1204.977     65.31186     1073.045        41     2.349     1.059  57.88   3
       351    396.6562    216.6624 307.7598798  +6.5438570     8979.971     18880.43     23486.82     93.02757       185.32     370.5664      2.355    10.34     1205.376     65.31186     890.2659        48     2.495     1.196  66.50   3
       352    380.4088    212.3187 307.7667981  +6.5451072     437.8784     849.5345     1769.825     92.43879     184.8776     370.3822      1.554     4.42     1206.733     65.31186     104.3064         5     1.223     0.455  80.52   0
       353    485.5288    203.0496 307.7232676  +6.5524856     1995.293     2792.054     3087.619     92.88072       185.32     370.5664      1.418     4.00      1198.04     65.31186     278.1133        11     1.195     0.643  62.42   3
       354    485.4374    207.1508 307.7231707  +6.5507850     2785.174     4922.742     6535.761     92.58633     185.2464     370.3822      1.940     6.43     1198.089     65.31186     325.8108        25     1.948     0.880  49.96   3
       355    488.7903    204.9250 307.7218458  +6.5518192     3132.584      5721.69     6844.118     92.43878     184.8776     370.3085      2.014     6.10     1198.031     65.31186     336.1301        31     1.853     1.045  68.78   3
       356    754.9022    203.7245 307.6109115  +6.5612651     1494.688     3345.557     4376.367     92.43878     185.5409     370.4927      2.452     7.81      1199.88     65.31186      159.293        27     1.823     1.107  82.06   2
       357    758.0000    203.5136 307.6096266  +6.5614564     972.1366     1634.596     2608.937     91.99472     184.7298     370.1241      1.873     4.66      1199.88     65.31186     146.7905         8     1.128     0.546  85.93   3
       358    375.4950    191.4871 307.7695334  +6.5535639     2491.803     4711.973     5338.065     92.88073     185.7614     370.6032      2.005     7.80     1206.591     65.31186     261.4591        28     1.957     1.014  52.11   3
       359    378.1206    188.8232 307.7685262  +6.5547550     2771.893     6137.916     7166.595     92.43878     184.9514     370.4927      2.287     9.07     1206.145     65.31186     328.2255        31     2.261     1.016  45.73   3
       360    234.3177    189.7856 307.8284607  +6.5495051     845.3648      2122.39     1971.052     92.43879     185.0252     370.3085      2.382     6.34     1218.807     65.31186     129.4595        11     1.596     0.708  80.65   0
       361    744.4965    185.1284 307.6158613  +6.5686130     22737.35     69249.76     81724.12     92.73364     185.4673     370.4927      2.697     7.13     1198.572     65.31186     2458.496        95     2.156     1.942  77.76   0
       362    417.8153    184.8750 307.7521032  +6.5577272     850.7938     2387.125     3039.335       92.291     185.0252     370.3822      2.960     8.44     1200.732     65.31186     128.0009        14     1.724     1.154 -52.73   2
       363    978.5964    181.6419 307.5183467  +6.5779093     1064.988      2165.02     2756.404     92.14298     184.9514     370.1979      2.433     7.60     1194.195     65.31186     148.3018        15     1.487     1.087 -80.31   0
       364    920.1147    181.3436 307.5427460  +6.5760727     1157.422     3050.676       3350.1     92.88072       185.32     370.7137      2.423     8.77     1195.761     65.31186     161.4658        22     1.489     1.443 -86.39   0
       365    402.3924    182.9083 307.7585995  +6.5580214     753.6744     1565.866     2358.671     92.43878     184.9514     370.3085      2.058     4.83     1202.655     65.31186     110.4811         6     1.223     0.540  24.36   0
       366    179.5415    172.4177 307.8518754  +6.5548438     917.0604     2953.923     3487.051     92.43879     185.1727     370.2347      2.912    10.86     1222.166     65.31186     122.5989        24     1.902     1.729 -86.45   0
       367    741.7582    169.9150 307.6175026  +6.5748181     2773.936     6284.641     7316.882     92.88072     185.1727     370.4927      2.317     6.56     1197.539     65.31186      302.697        36     1.968     1.303  84.39   3
       368    745.4484    170.0431 307.6159594  +6.5748890      1691.91     2497.907     3110.208     92.88072     185.2464     370.4559      1.707     4.82     1197.539     65.31186     244.4375        15     1.428     0.689 -86.82   3
       369    759.4315    167.7548 307.6102030  +6.5763058     1287.766     3343.581     3345.827     92.43879     185.3937     370.3822      2.382     7.88     1197.401     65.31186     169.2202        27     1.711     1.378  20.64   0
       370    350.8162    162.0755 307.7807938  +6.5649054     768.2727     2025.109     3176.129       92.291     185.0252     370.3822      2.810     7.09     1209.576     65.31186     100.8119         9     1.682     0.837 -82.84   0
       371    997.4138    158.3361 307.5112619  +6.5881866     3655.403     8199.376      8395.55       92.291     185.0989     370.3822      2.211     5.54     1192.592     65.31186     443.4468        44     1.794     1.504  81.17   0
       372    475.5576    160.5149 307.7288255  +6.5697554     783.3173     1749.285     1872.873     92.88073     185.1727     370.5296      2.196     6.06     1197.845     65.31186     103.8632         9     1.574     0.657  -5.66   0
       373    236.6635    152.8589 307.8287008  +6.5648683     1639.931     2946.725     3778.226     93.02757     185.2464     370.5664      2.173     7.69     1220.241     65.31186     195.4473        18     1.673     0.989 -69.81   3
       374    236.9564    156.2434 307.8284670  +6.5634774     1984.533     3648.177     4424.427     92.73364       185.32     370.3822      2.097     4.39     1220.221     65.31186     257.5588        15     1.259     0.914  74.12   3
       375    240.3067    154.4523 307.8271290  +6.5643318     2196.802     3921.175     4853.315     92.73365     185.2464     370.7874      1.941     6.96     1220.017     65.31186     236.5386        23     1.768     0.997 -89.86   3
       376    140.7995    142.5672 307.8690166  +6.5658898     634.7244     1492.283     2124.687     92.14298     185.0989     370.2347      3.043     4.97     1223.484     65.31186     90.81274         5     1.091     0.640 -66.31   0
       377    895.1893    135.4270 307.5546456  +6.5942429     1196.425     2617.232     2802.162     92.43879     185.0989     370.3822      2.334     5.98     1192.684     65.31186      173.077        17     1.358     1.133  60.79   0
       378    715.3568    134.0497 307.6296904  +6.5887765     2134.133     6204.755     6938.614     92.88072     185.2464     370.5296      2.591     9.07     1195.451     65.31186       210.09        40     1.789     1.666  69.15   0
       379    654.8340    135.2570 307.6548916  +6.5862426      852.397     1806.586     2835.523     92.73364       185.32     370.5296      3.501     8.82     1195.335     65.31186     95.27893        10     2.146     1.012 -17.86   2
       380    654.1194    131.3697 307.6553173  +6.5878276     408.2368      921.483     1828.999     92.73364     185.2464     370.4927      2.747     3.64     1195.192     65.31186     111.2889         5     1.245     0.307  38.36   2
       381    551.0103    134.0130 307.6982313  +6.5832652     640.4738       1570.9     2650.373     92.58633     185.0252     370.4559      3.551     5.35     1195.677     65.31186     130.7441         7     1.072     0.755 -87.72   0
       382    216.8024    119.3692 307.8380883  +6.5780592     904.3819      2050.03     3009.697     92.14298     185.0989     370.2716      2.994     3.66     1221.257     65.31186     144.1306         9     0.897     0.763 -81.77   0
       383    856.0357    117.9645 307.5715473  +6.6001576     908.2203     2048.637     2719.756     92.58633     185.0252     370.2347      2.563     7.21     1192.549     65.31186     118.8323        10     1.444     1.008 -30.24   2
       384    447.4809    110.6804 307.7421749  +6.5894366      8535.89     18105.69        22076     93.02757     185.6144     370.7137      2.352    10.27     1197.535     65.31186      845.353        46     2.523     1.165  72.25   3
       385    451.1130    108.9944 307.7407157  +6.5902568     7732.926     15120.35     19110.16       92.291     184.9514     370.1979      2.232     6.74     1197.348     65.31186     939.4631        43     2.147     1.276  78.11   3
       386    773.7404    108.7376 307.6061721  +6.6012146     5941.542     12364.67     14557.68     92.88073     185.2464     370.5664      2.256     7.18     1194.398     65.31186     667.6527        40     2.230     1.084  74.91   3
       387    776.6231    108.4008 307.6049809  +6.6014508     4370.038     8639.981     9581.847     92.43879     184.9514     370.2716      2.051     6.77      1194.35     65.31186     526.8202        23     1.777     0.929  78.69   3
       388    135.8056    104.6216 307.8723524  +6.5814267     881.6248     1893.005     2612.002     92.43879     185.0252     370.3085      2.838     6.02     1222.643     65.31186     127.5983        10     1.313     0.777  56.32   2
       389    139.1712    102.3625 307.8710235  +6.5824755     772.1791     1705.755     2848.054     92.43878     185.0252     370.3822      2.574     5.40     1222.506     65.31186     125.4165        10     1.525     0.539  84.72   0
       390    572.8477     94.9623 307.6904083  +6.6001636     1697.115     5566.719     5960.648     92.73365       185.32      370.419      2.691     9.69     1195.475     65.31186      199.762        43     1.916     1.712  79.03   0
       391    535.7606     95.3844 307.7058616  +6.5987407     743.7601     2327.534     2549.914     92.43879     185.0989     370.2347      2.730     9.78     1195.551     65.31186     106.9628        18     1.722     1.549 -68.96   0
       392    879.7481     91.3488 307.5625302  +6.6119699      5912.14     14977.73     16555.33     93.02757     185.1727     370.5296      2.442     6.03     1189.929     65.31186     659.8296        54     1.959     1.618  68.13   0
       393    932.5786     91.9787 307.5404754  +6.6134808     1294.016     2998.536     3186.015     92.58633     185.0989     370.5296      2.448     6.65      1188.28     65.31186     208.3901        17     1.741     0.748  76.41   2
       394      6.2425     88.5988 307.9269118  +6.5836764        10402     33584.63     41068.39     92.14298     184.9514     353.9493      2.811     7.34     1227.342     65.31186     1352.198        87     2.254     1.974  89.16  16
       395    966.3892     89.0216 307.5264707  +6.6158380     5874.757     13450.15     14635.16     92.43878     185.0252     370.3453      2.302     5.58     1187.316     65.31186     671.5894        49     1.816     1.539  78.88   0
       396    677.7357     89.4009 307.6468468  +6.6059931     1309.108     3630.404     4420.952     91.99472     185.0252     370.2347      2.669     9.30     1193.173     65.31186     145.0714        28     1.664     1.451  53.36   0
       397    487.0899     85.1840 307.7264954  +6.6013240     892.2457      2297.02     2705.654     92.58633     185.0989     370.3453      2.630     7.76     1195.823     65.31186     130.4681        14     1.695     0.995 -38.35   0
       398    870.7498     80.5243 307.5666380  +6.6161485     1135.057     2612.345     3240.722     92.88073     185.3937     370.5296      2.492     8.97     1189.532     65.31186      126.322        20     1.703     1.320  11.07   0
       399    817.8878     81.1706 307.5886641  +6.6141072     848.3098     2373.634     3032.764     93.02757     185.0252     370.3822      2.647     6.90     1191.608     65.31186     110.4943        10     2.026     0.658  63.16   2
       400    497.8286     82.1914 307.7221153  +6.6029244     850.9529     1804.053     2309.572     92.43878     185.0989     370.3085      2.340     6.78     1195.774     65.31186     108.8772        10     1.585     0.812  23.75   2
       401    500.9619     79.8303 307.7208863  +6.6040072     904.0872     1769.956     2235.008     92.43878     185.0252     370.3822      2.273     6.24     1195.764     65.31186     129.5255        11     1.541     0.711  60.42   2
       402    728.9243     77.9160 307.6258749  +6.6124670     17740.68     39534.58     47064.05     93.02757      185.688     370.6032      2.380     7.09     1192.944     65.31186     1890.034        61     2.295     1.422  79.37   3
       403    732.0000     77.0270 307.6246213  +6.6129383     12530.71     20598.85     23001.25       92.291     184.8776     370.2716      1.742     5.35     1192.895     65.31186      1597.96        23     1.703     0.843  88.09   3
       404    333.2235     77.0434 307.7909331  +6.5995073     2788.814     8985.767     12987.21       92.291     185.1727     370.3085      3.223     8.33     1212.619     65.31186     287.1431        75     2.506     1.984  88.84   0
       405    963.4619     76.2036 307.5281114  +6.6210456      1689.81     3816.885     4764.159     92.14298     185.0989     370.1979      2.600     6.14     1186.632     65.31186     220.3439        29     1.666     1.393 -82.16   0
       406    897.9333     74.3612 307.5555024  +6.6196114      4175.96     9996.952     11058.85     92.73364     185.2464     370.6401      2.362     5.84     1188.359     65.31186     494.1354        46     1.796     1.574  57.82   0
       407    440.6585     75.5339 307.7461774  +6.6037542     1894.846      3601.38      4390.19     93.02757     185.2464     370.5296      2.146     9.25      1198.38     65.31186     239.7935        27     2.266     1.054  70.14   3
       408    443.5326     72.7857 307.7450692  +6.6049885     1658.437     3373.229     3602.006       92.291     185.1727      370.419      2.003     7.93     1198.298     65.31186     200.8276        20     1.859     0.946  58.06   3
       409   1001.5012     74.4728 307.5123026  +6.6230366     1104.881     2188.924     2525.411     92.58633     185.4673     370.5296      2.087     5.13     1185.308     65.31186     158.0392        11     1.221     0.689  62.65   0
       410     97.9888     67.0264 307.8893650  +6.5957088     1831.169      4026.07     5161.692     92.43878     185.0989     370.3822      2.368     8.79     1222.552     65.31186     204.9993        32     2.303     1.101  72.44   3
       411    100.7769     65.8019 307.8882427  +6.5963099     1693.887      3413.34     4374.508     92.43878     184.9514     370.2716      2.333     7.86     1222.506     65.31186     252.4302        21     1.942     0.891  75.04   3
       412    268.0073     63.5155 307.8185771  +6.6029059     11804.64     25297.26     31947.83     92.43878     184.9514     370.3453      2.395    10.55     1218.932     65.31186     1217.056        53     2.692     1.151  71.96   3
       413    271.4096     61.7072 307.8172179  +6.6037692     12417.62     22898.21     27620.39     92.43879     184.8776     370.2716      2.073     7.30     1218.845     65.31186     1433.851        44     2.170     1.144  67.50   3
       414    243.1971     64.4677 307.8288926  +6.6016742     2440.929     4744.932     6706.143     92.14298     184.8776     370.3085      2.445     7.06     1219.488     65.31186      272.129        29     1.937     1.042  55.14   3
       415    246.6277     62.7833 307.8275175  +6.6024872     2430.691     5254.639     6781.387     92.43879     185.0252      370.419      2.510     9.98     1219.375     65.31186     280.0977        32     2.588     1.072  47.57   3
       416    391.9004     58.7645 307.7670644  +6.6090518     17723.21     37586.11     46208.85     92.88072     185.1727     370.7137      2.384    10.51      1204.44     65.31186      1856.83        55     2.630     1.171  75.68   3
       417    395.4222     57.2543 307.7656453  +6.6097956     17600.98      32814.3     37609.71       92.291       185.32     370.3085      2.053     6.90     1204.085     65.31186     1940.821        50     2.189     1.102  75.76   3
       418    148.9992     61.1163 307.8682873  +6.5998794       1536.1     3151.702     4880.562     91.99472     184.7298      370.161      3.038     6.07     1221.984     65.31186     205.7341        21     1.533     1.129  48.88   2
       419    151.2012     58.2653 307.8674631  +6.6011338     1607.826     3295.826     4949.936     92.14298     184.9514     370.2716      2.356     5.66     1221.947     65.31186     203.2833        18     1.640     0.783  64.88   3
       420    296.3345     56.6643 307.8069894  +6.6066977     6599.489        15071     18974.04     92.88073       185.32     370.5296      2.498    10.45     1217.549     65.31186      619.637        44     2.634     1.155  68.29   3
       421    299.4082     54.7046 307.8057721  +6.6076126     6991.457     13655.26     19488.18     92.58633     184.8776     370.2716      2.763     6.68     1217.158     65.31186     769.6058        60     2.460     1.822  19.63   3
       422    411.2855     57.8072 307.7590113  +6.6101015     611.2384     1728.668       2202.6     92.43878     184.9514     370.3453      2.971     8.21     1201.747     65.31186     104.4507         8     2.025     0.930 -16.62   0
       423    731.4915     53.7261 307.6255984  +6.6225659     15054.02     31800.22     36614.52     92.88073     185.4673     370.5664      2.240     7.12     1191.903     65.31186     1534.803        50     2.272     1.125  73.25   3
       424    734.3965     53.1856 307.6244045  +6.6228872     10706.64     18565.38     20520.93     92.43879     184.9514     370.3822      1.860     5.41     1191.813     65.31186     1233.396        29     1.761     0.944  79.53   3
       425     50.6979     50.7208 307.9096256  +6.6008581     4021.618     9503.959     12033.27     92.58633     185.7614     370.5664      2.652     8.72      1224.51     65.31186     445.3333        47     2.268     1.760  81.03   2
       426     47.7323     51.7491 307.9108283  +6.6003321     2789.424      3869.09     4815.494     92.73365     185.1727     370.4559      1.546     3.49      1224.67     65.31186     356.7175        11     1.034     0.790  23.57   3
       427     84.3803     48.6177 307.8956485  +6.6028679     741.0999      1526.94      2002.04     92.58633     185.0989     370.4559      2.152     4.85     1222.904     65.31186     108.1023         7     1.577     0.422  31.20   0
       428    997.0109     35.7810 307.5154422  +6.6389016     2119.695     2433.299     2642.995     92.43878     185.0252     370.3822      0.705     1.50     1182.733     65.31186     976.0416         5     0.659     0.363  21.15   0
       429    991.7884     33.8071 307.5176850  +6.6395437     1341.056     3072.092      3529.57     92.43878     185.0989      370.419      2.396     7.01     1182.823     65.31186     168.2194        20     1.303     1.245 -81.12   0
       430    392.7913   1018.1278 307.7351108  +6.2119944     3405.241     6915.024     7358.723       92.291     184.8037     360.2563      2.089     5.00     1255.546     65.31186     339.2108        34     1.593     1.335  73.03  16
       431    812.4871   1009.5200 307.5604885  +6.2296639     877.0776     1267.717     2064.816     92.58633     185.6144     370.6769      1.845     3.75      1253.02     65.31186     141.5529         8     1.118     0.779  32.42   0
       432    583.8195     31.1124 307.6879319  +6.6269611     674.3781     1883.828     2760.128     92.58633     185.0252      370.419      3.674     6.82      1194.08     65.31186     132.0374        10     1.713     0.761 -18.26   0
       433    771.5135   1007.2650 307.5776383  +6.2292226     1255.379     2332.336     2879.843     92.88073     185.5409     370.5664      2.137     4.63     1253.551     65.31186     181.3389        12     1.126     0.916 -77.08   0
       434    700.8620   1007.0363 307.6070899  +6.2269456     781.7198     1275.813     1259.699     92.88073       185.32     370.4927      1.729     4.63     1254.299     65.31186     134.2943         6     1.197     0.632 -84.13   0
       435    109.6662     23.3371 307.8859387  +6.6141864      1696.76     3326.682     4409.815     92.88073       185.32     370.5296      2.201     6.83     1221.845     65.31186     176.6061        16     1.567     0.901  53.78   3
       436   1004.9769   1006.0893 307.4803787  +6.2375346     2412.337      3334.19     3391.396     92.88073     185.0989     370.3822      1.483     3.38     1250.481     65.31186     288.1171        19     1.166     0.974  79.51   0
       437    379.7571     19.5165 307.7734221  +6.6248874     1331.008     2290.965     2993.894     92.88073       185.32     370.4559      1.857     5.95     1207.242     65.31186     165.3024        14     1.455     0.761  33.22   3
       438    969.8110   1002.7673 307.4951432  +6.2377321      19361.1     30979.35     31686.51       92.291     185.0252     370.3453      1.700     3.56     1251.323     65.31186     2394.837        48     1.465     1.247  80.44   0
       439    344.3699     18.5539 307.7882125  +6.6240924     1202.957     2303.026     3235.791       92.291     185.3937     370.3822      2.165     6.46     1211.468     65.31186     142.1191        14     1.453     0.805  54.09   3
       440    299.3179   1000.3496 307.7746488  +6.2162032     22879.93     48976.84     53419.75     92.88073     185.3937     370.5664      2.188     5.00     1256.101     65.31186     2474.112        71     1.822     1.601  71.28   0
       441    197.6126   1001.1300 307.8170061  +6.2124499     7022.206     14695.98     16677.34       92.291     185.0252     370.3822      2.194     4.85     1256.933     65.31186     785.9285        50     1.792     1.454  68.39   0
       442    487.3005   1002.9180 307.6962257  +6.2214714      931.754     1651.094      1687.37     92.88073     185.9084     370.6401      1.747     5.60     1255.416     65.31186     126.5088        11     1.236     0.715 -14.92   0
       443    464.1215    998.7250 307.7060231  +6.2224268     1802.346     3909.016     4467.686     93.17419     185.6144     370.6401      2.256     6.47       1255.4     65.31186     215.0671        26     1.522     1.256  33.09   0
       444    988.4089    998.0378 307.4875469  +6.2403125     1207.836     1967.626     1534.896     91.99472     185.0252     370.2347      1.792     5.87     1250.395     65.31186     163.0847        13     1.234     0.787  88.33   0
       445    214.2301    994.0088 307.8103159  +6.2159580     39754.31      84967.2     92889.99       92.291     185.0989     370.3085      2.165     4.91     1256.669     65.31186     4473.359        84     1.837     1.610  70.06   0
       446      9.5349    995.0070 307.8955825  +6.2086320     3866.685     7443.141     7678.301       92.291     185.0252     370.3085      2.005     4.51     1253.555     65.31186     487.6891        35     1.623     1.307  80.82  16
       447    772.2058    995.5727 307.5777329  +6.2340854     1954.183     3596.144     3024.737       92.291     185.0989     370.3085      1.917     4.93     1252.931     65.31186     222.4958        26     1.485     1.225  83.48   0
       448    100.3094    988.3635 307.8579751  +6.2144490     2270.871     4654.303      5453.16     93.02757     185.2464     370.5664      2.143     6.53     1255.868     65.31186     294.5488        28     1.767     1.196  68.56   0
