#   1 NUMBER                 Running object number                                     
#   2 X_IMAGE                Object position along x                                    [pixel]
#   3 Y_IMAGE                Object position along y                                    [pixel]
#   4 ALPHA_J2000            Right ascension of barycenter (J2000)                      [deg]
#   5 DELTA_J2000            Declination of barycenter (J2000)                          [deg]
#   6 FLUX_APER              Flux vector within fixed circular aperture(s)              [count]
#   9 FLUXERR_APER           RMS error vector for aperture flux(es)                     [count]
#  12 FLUX_RADIUS            Fraction-of-light radii                                    [pixel]
#  13 FWHM_IMAGE             FWHM assuming a gaussian core                              [pixel]
#  14 BACKGROUND             Background at centroid position                            [count]
#  15 THRESHOLD              Detection threshold above background                       [count]
#  16 FLUX_MAX               Peak flux above background                                 [count]
#  17 ISOAREA_IMAGE          Isophotal area above Analysis threshold                    [pixel**2]
#  18 A_IMAGE                Profile RMS along major axis                               [pixel]
#  19 B_IMAGE                Profile RMS along minor axis                               [pixel]
#  20 THETA_IMAGE            Position angle (CCW/x)                                     [deg]
#  21 FLAGS                  Extraction flags                                          
         1    794.6577     29.9810 307.6010709  +6.7369069     19889.58     58435.45     71928.51      92.3428      185.054      369.924      2.736     6.50     1196.423     65.24405     1864.769       104     2.168     2.098 -26.59   0
         2    837.9673     25.9085 307.5831676  +6.7400322     909.7719     2363.208     3598.584     92.93098     184.9804     370.1816      3.470     9.31     1195.648     65.24405     116.0197        18     1.833     1.318 -28.82   2
         3    802.3814     11.8549 307.5984671  +6.7446469     1299.949     4057.827     4007.435     92.19518     185.1276      369.924      2.584    10.24     1195.086     65.24405     174.0352        33     1.864     1.569 -60.20  16
         4    964.0633      8.5538 307.5312269  +6.7513972     24069.63     56662.89     62776.48     92.63736      185.054     370.1816      2.336     5.38     1189.719     65.24405     2431.923        84     1.922     1.753 -66.86  16
         5    196.8720     10.1728 307.8507501  +6.7250818     5271.332     19263.93     23885.95      92.4902      185.054     370.0344      2.909     8.20     1228.917     65.24405     809.9215        74     2.219     2.018 -66.43  16
         6    247.9335     10.1500 307.8294819  +6.7268047     2634.839      7943.77     10533.27     92.63737     184.9804     370.1081      2.859     8.36     1228.531     65.24405     303.1116        52     2.264     1.886 -41.71  18
         7    837.2247      7.7104 307.5840928  +6.7475196     3761.069     10104.31     12046.04     92.93098     184.9068     366.5206      2.572     6.31     1194.733     65.24405     369.8458        50     1.791     1.765 -41.79  16
         8    700.7153      9.3167 307.6409036  +6.7423021     751.7562     2019.146     2812.166      92.4902     185.3482     370.2184      2.730     4.36     1198.308     65.24405     121.3488         5     1.130     0.479  50.85   2
         9    987.5928      3.0875 307.5216098  +6.7544370     1952.593     4008.597      4236.93     92.19518     173.5835     309.8481      2.103     5.37     1186.966     65.24405     215.4418        28     1.457     1.310 -53.34  24
        10    707.7411      4.5645 307.6381379  +6.7444983     771.5688     1823.933     3400.054     92.78429     185.1276     332.8649      2.160     4.31     1197.738     65.24405     119.4133         7     1.264     0.419  39.64  16
        11    272.1149      1.6407 307.8196990  +6.7311283     4699.545     6998.099     6708.266     85.12786     152.5316     284.5957      1.551     5.28     1228.262     65.24405     651.4917        20     1.666     0.705  -0.71  24
        12    792.4449    994.4304 307.5693694  +6.3387011     2497.281     4620.054     4917.361     92.34281     185.2012     369.9976      1.992     4.68     1260.735     65.24405     280.9297        28     1.548     1.177 -56.22   0
        13    176.1638   1022.8038 307.8249142  +6.3063816     1441.888     2338.513     2022.704     90.25401     161.3838     294.5218      1.658     5.66     1265.682     65.24405     189.6948        17     1.440     1.016 -20.41  24
        14     50.2690   1023.2311 307.8772959  +6.3019802     1260.138     1774.265     1928.711     86.55602      154.572      286.789      1.464     4.16     1263.929     65.24405      173.827        12     1.108     0.761   3.22  24
        15     32.9231   1023.4730 307.8845068  +6.3012978      1376.03     2056.245     1857.734     83.83797     150.8253     282.2889      1.498     3.72     1263.261     65.24405     208.2607        11     1.210     0.607   3.18  24
        16     60.6048    995.0401 307.8739540  +6.3139643     1714.781     3565.117     4243.122     91.89921     184.8331     369.8135      2.214     5.61     1263.805     65.24405     199.1385        22     1.449     1.142  44.02   0
        17    528.4630    985.9297 307.6795349  +6.3333987     218206.1     476095.2     521565.4     92.78429     185.1276     370.1816      2.228     5.10     1264.516     65.24405     22861.37       156     1.944     1.735 -52.45   0
        18    372.7881    988.6564 307.7442379  +6.3270658     4609.859     11111.42     11702.43     92.04731      185.054     369.7767      2.288     5.62     1266.217     65.24405     548.3407        45     1.760     1.545 -42.47   0
        19    316.0131    987.0657 307.7679226  +6.3258214     7621.673     17798.51     19362.64     92.19518     184.9068     370.0344      2.298     5.29     1265.916     65.24405     799.5831        56     1.807     1.617 -51.72   0
        20    634.3351    983.2351 307.6355590  +6.3380477     2493.194     4922.216     4805.024     92.63737     185.1276     370.1816      2.006     5.00     1263.706     65.24405     285.4686        30     1.466     1.345 -30.12   0
        21    866.7869    981.9155 307.5388482  +6.3463447     4430.792     8285.523     9504.028     92.34281     184.9804     369.9608      2.012     4.44     1259.875     65.24405     501.0098        38     1.590     1.350 -51.32   0
        22   1000.0370    976.0299 307.4835819  +6.3532101     4276.796     7068.334     7583.666     92.34281     184.8331     369.9608      1.777     3.84     1256.364     65.24405     566.4551        29     1.438     1.113 -59.48   0
        23    609.1036    977.0206 307.6462716  +6.3397706     2368.961     4718.199     5267.329     92.63737     184.9068      369.924      2.062     5.02     1263.743     65.24405      278.948        30     1.501     1.338 -17.86   0
        24    797.2346    976.2009 307.5679919  +6.3463861     1131.779     2251.336     2724.737     91.75086     184.9068      369.924      2.137     7.11     1260.179     65.24405     120.5768        17     1.622     0.874 -43.36   0
        25    601.5092    972.3470 307.6495909  +6.3414463     1428.964     3565.419     4881.676     92.63737     184.9068      370.292      2.656    10.00     1263.568     65.24405     168.1061        30     2.303     1.211 -53.23   0
        26    924.0376    974.1878 307.5152787  +6.3514414       679.67      1419.95     1428.516     92.19518     184.9068     369.8135      1.941     3.81     1258.951     65.24405     116.6766         5     1.233     0.338 -64.97   0
        27    885.3903    969.4434 307.5315258  +6.3521130     2520.912     4400.424     4584.156     92.19518     184.9068     369.8503      1.840     4.63     1259.026     65.24405     314.8522        25     1.454     1.155 -41.70   0
        28    295.3897    969.4637 307.7771042  +6.3323966     690.4041     1196.139     1317.379     92.19518     184.9068     369.9608      1.940     5.37      1265.57     65.24405     99.21167         5     1.117     0.729  17.87   0
        29    344.1564    965.8305 307.7569299  +6.3355298     1652.692     4083.567     4556.133     92.34281     185.1276     369.9976      2.275     7.33     1266.065     65.24405     213.0898        29     1.608     1.418  72.89   0
        30    480.1564    955.6440 307.7006682  +6.3442858     2008.762     4538.874     4341.591     92.78429     185.1276     369.9976      2.164     6.93     1264.534     65.24405     224.8029        34     1.868     1.356 -36.66   0
        31    527.1795    951.7983 307.6812258  +6.3474454     3666.863     8505.487     11334.03     92.34281     184.7594     369.8135      2.715     5.80     1263.901     65.24405     406.5192        50     2.008     1.651 -29.92   0
        32    445.8106    950.6273 307.7151342  +6.3452079     755.2655     1556.448     1073.538     92.34281     184.9068     369.9976      2.387     4.81     1264.532     65.24405     111.7455         7     1.158     0.565 -26.80   2
        33    862.5635    949.2002 307.5417112  +6.3597093      1096.13     1855.756     1691.914     91.60228     184.9068      369.924      1.779     6.48     1258.121     65.24405     136.6779        15     1.315     1.037 -37.35   0
        34     87.0250    949.1719 307.8645191  +6.3337853     890.4525     1674.281     2063.839     92.19518     184.9068     369.9976      2.103     3.75     1263.415     65.24405     137.2222         8     0.997     0.675 -80.09   0
        35    497.5092    945.6161 307.6937853  +6.3490055     11925.72     27478.61     29839.56      92.4902     184.9068     369.9976      2.280     5.38     1264.171     65.24405     1243.184        58     1.809     1.612 -51.95   0
        36    662.8371    947.8589 307.6248927  +6.3536029     709.8131     1007.666     1153.475     92.78429     185.2012     370.1449      1.491     4.61     1261.525     65.24405      104.834         6     1.106     0.546 -66.78   0
        37    910.9927    943.6841 307.5217385  +6.3635994      3154.09     5501.035     5767.601     92.34281     184.7594     369.9608      1.835     4.43     1257.631     65.24405     361.8326        26     1.412     1.178 -52.50   0
        38      6.9483    936.4300 307.8982820  +6.3363557     886.7222     2111.003     2023.878      92.4902     185.2747     360.7141      2.087     6.41     1261.732     65.24405     134.8413        11     2.048     0.563  79.79  16
        39    290.4928    934.3487 307.7803353  +6.3467280     2026.588     5022.882     5954.936     92.63737     184.9804     370.3656      2.529    10.52      1265.64     65.24405     326.0482        39     2.009     1.536 -43.99   0
        40    755.6105    929.9691 307.5868809  +6.3640833     38019.55     78750.71     85139.32     92.19518     184.8331     369.9976      2.124     4.78     1259.849     65.24405     4185.219        78     1.810     1.560 -48.22   0
        41    213.2032    928.1603 307.8127159  +6.3466921     3126.296     7894.039     10649.63     91.75086     184.7594     369.8135      2.808     6.02     1265.713     65.24405     337.2035        46     1.794     1.694 -41.40   0
        42    880.8188    925.1102 307.5349259  +6.3702621     6543.077     12377.55     13485.88      92.4902     184.8331     370.0344      1.969     4.32     1256.725     65.24405     734.4272        42     1.640     1.314 -53.82   0
        43    683.9011    924.6005 307.6169120  +6.3639072     13839.64     31509.38     35343.09     92.19518     184.6856      369.703      2.260     5.12     1260.207     65.24405      1451.45        59     1.830     1.612 -49.94   3
        44    677.5779    921.1538 307.6196606  +6.3651190     56310.99     124804.1     137038.9     92.34281     185.1276     369.9608      2.252     5.18      1260.07     65.24405     5781.448        97     1.919     1.679 -53.86   3
        45    322.6137    922.2688 307.7673758  +6.3527906     11629.67     29407.44     33044.64     92.19518     184.9804     369.9976      2.428     5.81     1265.309     65.24405     1217.963        66     1.905     1.742 -51.19   0
        46    384.3911    920.1074 307.7417349  +6.3557514     12167.52     30580.07     34544.88     92.34281     184.7594      369.924      2.419     5.82     1264.523     65.24405     1239.407        69     1.909     1.753 -57.01   0
        47    212.4277    906.8989 307.8137615  +6.3554427     793517.5      2510191      2925838     92.93098     184.8331     370.1081      2.737     5.01     1265.082     65.24405     64022.25       473     2.377     2.168 -76.15   4
        48    921.4807    918.3678 307.5182275  +6.3743995     1633.192     2869.552     3047.961     92.63737      185.054     370.1081      1.971     4.75     1256.245     65.24405     189.0718        17     1.213     0.975 -40.11   0
        49    877.7306    916.5676 307.5364999  +6.3736857     5155.361     9915.604     10016.12     92.63737     185.1276     370.1816      2.015     4.42      1256.26     65.24405     581.3281        39     1.645     1.298 -55.36   0
        50    618.2070    915.8074 307.6445551  +6.3653439     3859.481     9117.143     10313.62     92.04731     184.9068     369.9976      2.360     5.83     1260.746     65.24405     415.9678        41     1.840     1.459 -48.45   0
        51    407.0706    913.9011 307.7325053  +6.3590724     994.6301      2312.38     2361.768     92.63737     185.2747     370.1081      2.317     8.00     1263.936     65.24405     133.1345        14     1.401     1.278  27.68   0
        52   1000.7817    907.5117 307.4855832  +6.3815202     665.7622     1266.649     1517.137      92.4902     184.8331     370.0344      1.537     4.35      1253.33     65.24405     113.8086         7     1.753     0.308 -48.13   0
        53    652.1627    905.3337 307.6307754  +6.3708013     1311.602     2726.048     3521.789     92.63737      185.054     370.2184      2.548     5.74     1259.802     65.24405     164.0265        18     1.534     0.976 -79.84   2
        54    387.3693    902.7849 307.7410832  +6.3630019     28977.81     73997.73     83468.82     92.34281     184.8331     370.0713      2.447     6.03     1263.945     65.24405     3017.323        86     1.988     1.789 -54.61   0
        55    505.0169    901.6741 307.6921499  +6.3673961     4080.599     9944.708     10584.63     92.19518     184.8331     369.9976      2.357     5.72     1262.418     65.24405     426.4692        45     1.812     1.545 -38.46   0
        56    421.8010    900.3434 307.7268339  +6.3651620     2522.912     6450.865     7561.134     92.04731     184.7594     369.8135      2.508     6.51     1263.336     65.24405     296.3024        44     1.860     1.608 -42.89   0
        57    750.2019    898.1645 307.5902078  +6.3770322     7507.936     16368.14     17703.06     91.75086     184.9068      369.924      2.194     4.93      1258.11     65.24405     785.1725        51     1.756     1.525 -54.84   0
        58    418.6941    893.4731 307.7283603  +6.3678941     1143.943     2892.906     3196.154     92.63737     185.2747     370.1449      2.362     8.82     1263.178     65.24405     137.3173        22     1.517     1.431  89.50   1
        59    101.0008    880.9267 307.8610250  +6.3624256     1227.432     2412.693     3678.805     92.04731     184.4642     369.9608      2.988     6.25     1262.409     65.24405     163.9963        20     1.448     1.279  34.09   3
        60    108.1664    890.5684 307.8577142  +6.3586861     6439.615     16363.74      19205.4     92.19518     184.8331     369.8503      2.447     5.90     1262.751     65.24405     766.7087        53     1.826     1.695 -82.76   3
        61    100.5661    887.9147 307.8609680  +6.3595264     1609.631     4344.973     6479.357     92.78429     184.9804     370.1081      3.137     9.68     1262.521     65.24405     212.0344        39     2.008     1.683  88.01   3
        62    771.6169    892.1410 307.5814971  +6.3802329     954.2078     1497.353     1214.778     92.34281     184.9804     369.8503      1.743     6.18     1256.798     65.24405     114.8407        11     1.239     1.019  72.82   0
        63    116.4038    890.4609 307.8542892  +6.3590069     1721.764     3927.412     4205.075     92.04731     184.8331     369.8135      2.416     6.80     1262.939     65.24405     208.2563        29     1.549     1.443  48.48   1
        64    895.6744    886.4773 307.5300467  +6.3867050     4881.602     9283.777     10222.53     93.07745     185.4217     370.1816      2.000     4.67     1254.399     65.24405     524.1906        39     1.656     1.358 -53.87   0
        65    944.5173    886.6736 307.5097079  +6.3882502     1184.509     1892.123     2596.847     93.07745     185.4952     370.2184      2.263     6.56     1254.004     65.24405     145.5288        15     1.314     0.920 -45.99   0
        66    538.0522    883.3849 307.6790186  +6.3760503     1259.357     2877.809     3149.104     92.04731     185.1276     369.8135      2.290     8.22     1260.914     65.24405     148.2311        21     1.597     1.184 -62.82   0
        67    651.2329    883.8425 307.6318900  +6.3796420     940.1482     2076.949     1850.116      92.4902     185.1276     369.9608      2.260     7.65         1259     65.24405     139.4597        16     1.618     1.029 -21.66   0
        68    889.6498    878.6238 307.5328198  +6.3897464     2151.137     4352.134     4360.091     92.34281     185.2012     370.0344      2.088     5.15     1254.001     65.24405     262.7853        29     1.588     1.256 -52.93   0
        69    919.3079    878.0744 307.5204923  +6.3909608      2434.43     4615.959     4984.196     92.78429     185.2747     370.1449      1.996     5.16      1253.87     65.24405     267.2053        27     1.545     1.202 -55.79   0
        70    950.2435    877.3707 307.5076382  +6.3922812     1402.542     2621.438     2855.994     92.34281     185.1276     370.0344      2.046     5.64     1253.374     65.24405     165.4359        20     1.540     1.079 -46.12   0
        71    214.9629    874.4401 307.8138098  +6.3689267     1405.215     3782.847     5195.721      92.4902     185.1276     369.9976      2.972    10.56     1264.134     65.24405     159.4977        32     1.920     1.617 -87.66   0
        72    788.0135    876.8250 307.5751895  +6.3871023     576.5701     1077.425     1175.532      92.4902     184.9068     370.0713      1.951     3.91     1254.924     65.24405     86.21814         5     0.847     0.518 -59.63   0
        73    642.8173    876.9051 307.6356280  +6.3822249     858.0428     1546.313     1546.265     92.63736     184.9068     369.9608      1.918     6.40     1258.806     65.24405     108.6678        12     1.245     0.924  -1.13   0
        74    907.3806    868.0377 307.5257964  +6.3947070     808.8436     1616.463     1642.415      92.3428     184.8331     369.8135      2.040     6.58     1253.307     65.24405     121.2373         8     1.175     1.033 -56.10   0
        75    934.0826    865.8456 307.5147547  +6.3965010     1785.549     3407.831     3526.186     92.78429     185.1276     370.1449      1.955     5.31     1253.052     65.24405     202.2383        23     1.377     1.216 -75.12   0
        76    882.3215    866.0042 307.5362967  +6.3947119     738.3854     1431.542     1483.687     92.34281      184.538     369.8871      2.128     4.51     1253.256     65.24405     99.49048         7     0.919     0.630 -29.80   2
        77   1008.1025    859.7931 307.4841455  +6.4014628     6219.201     11028.92     11816.51      92.4902     184.6856     369.8871      1.884     4.15     1251.505     65.24405     723.7725        38     1.580     1.216 -52.95   0
        78    975.7684    859.6981 307.4976090  +6.4004262     1412.935     2455.474     2645.892     92.78429     184.9068      370.292      1.904     6.95     1252.014     65.24405     188.0477        18     1.542     1.105 -53.63   0
        79    776.7594    857.7203 307.5805202  +6.3946137     751.4243     1496.796      1450.19     92.63737     185.1276     370.1081      1.886     3.15     1254.241     65.24405      113.046         5     0.824     0.628  47.66   0
        80    863.9788    854.7072 307.5443141  +6.3987644     1010.553     2131.838     2320.776     92.63736     184.9068      369.924      2.096     6.88     1252.722     65.24405     114.8406        14     1.371     0.968 -36.59   0
        81    837.5143    849.9242 307.5554925  +6.3998572     568.9459     1061.833     1743.258     92.93098     185.4952     370.2184      2.878     4.65     1252.492     65.24405     90.86353         6     1.269     0.483  83.64   0
        82     20.5400    844.9650 307.8957405  +6.3745682     1492.468     3095.045     4051.986     92.78429     185.1276     370.1081      2.521     5.73     1261.403     65.24405     181.9249        21     1.488     1.139  31.50   2
        83    820.0553    846.7880 307.5628664  +6.4005700     1001.045     1857.939     1723.202     92.04731      185.054     369.7767      1.988     5.95     1252.368     65.24405     141.8824        11     1.208     0.825 -31.15   0
        84    632.2198    834.0441 307.6414907  +6.3995644     3390.938     8440.368     9710.396     92.19518     184.9804     369.9608      2.376     5.92     1256.045     65.24405     369.3268        44     1.776     1.562 -60.94   0
        85    578.0514    832.5539 307.6640905  +6.3983703     868.6015     1730.931     2114.175     92.93098     184.9804     370.2184      2.502     4.81     1256.653     65.24405     121.2792         7     0.907     0.722 -64.21   0
        86     95.6236    830.2101 307.8649895  +6.3831805     1849.378     5160.794     5848.506     92.34281     184.9068     369.9976      2.569     6.91     1260.408     65.24405     227.3519        38     1.832     1.594 -84.11   0
        87    969.2653    829.0316 307.5013511  +6.4128694     2068.413     3771.069     3752.123      92.4902     185.2012     370.0713      1.893     4.68     1249.944     65.24405     242.3774        20     1.452     1.008 -61.51   0
        88    605.2820    828.9412 307.6528773  +6.4007713     959.1353     2233.254     2205.945     92.78429     185.2012     370.1816      2.442     5.27     1255.897     65.24405     117.7916        10     1.317     0.595 -55.02   2
        89    879.0903    825.8754 307.5389973  +6.4111700      2561.01     5219.635     5668.825     92.78429     185.4217     370.1816      2.196     5.20     1251.091     65.24405     295.2142        31     1.621     1.280 -59.73   0
        90    749.1265    826.1522 307.5930910  +6.4067238     11987.86     27814.48     30778.93     92.78429     185.2012     370.1816      2.323     5.37     1254.042     65.24405     1211.687        61     1.838     1.637 -50.82   0
        91    447.4872    826.4413 307.7186489  +6.3965285     687.4075      1587.14     1068.803     92.78429     185.1276     370.1816      2.098     7.33     1259.302     65.24405     108.5332         9     2.007     0.749 -43.84   0
        92    222.9359    820.2206 307.8123344  +6.3915756     3088.613     8677.317     9730.072     92.34281     185.1276     369.9976      2.527     6.72     1262.753     65.24405     362.0037        47     1.904     1.624 -60.23   0
        93    629.6770    819.0444 307.6430571  +6.4056715     3718.511     9659.314      11215.5     92.63736     185.2012     370.1816      2.486     6.21     1254.912     65.24405     385.8202        46     1.782     1.651 -62.65   0
        94    888.9788    811.6169 307.5353623  +6.4173854     832.7354     1543.381     1375.842      92.4902     184.8331     370.0344      1.885     5.04     1250.231     65.24405     96.99207         8     1.038     0.692 -76.77   0
        95    701.4985    807.4835 307.6135498  +6.4128415     2067.557     5054.603     5641.612     92.78429     185.5686     370.2552      2.383     6.28     1253.645     65.24405     213.1925        38     1.794     1.503 -58.26   0
        96    906.1834    804.3964 307.5284439  +6.4209391     1814.489     3674.156     3261.357     92.34281     184.6856     369.9608      2.015     5.33     1249.597     65.24405     206.2552        25     1.486     1.263 -85.46   0
        97    967.7351    803.7282 307.5028421  +6.4232641     6839.918     13225.89     14095.33     92.78429     185.1276     370.1816      2.022     4.47     1248.214     65.24405     787.3131        43     1.641     1.376 -51.71   0
        98     45.2821    799.3928 307.8869939  +6.3942112     12952.37     35023.95     39560.99     92.34281     184.6856     369.9608      2.511     6.20     1260.685     65.24405     1630.628        74     1.972     1.821 -74.57   0
        99    505.0405    799.3839 307.6956081  +6.4096228     938.6033     2196.225     2854.692     92.19518     184.9068     369.8871      2.546     7.69      1255.67     65.24405     126.6989        13     1.672     0.990 -77.20   2
       100    508.6367    799.6607 307.6941017  +6.4096288     716.4146     1485.176     2436.499     92.78429     185.2012     370.1081      3.221     5.75     1255.601     65.24405     122.1141         7     1.439     0.648 -56.47   3
       101    474.5224    797.5638 307.7083741  +6.4093536     709.4251     1273.328     1485.096     92.63737     185.2012     370.1449      1.923     4.71     1256.571     65.24405     101.3831         6     1.282     0.491  85.48   0
       102    690.9964    791.1894 307.6184732  +6.4192174     1806.862     4499.788     5250.065     92.34281     184.7594     370.0344      2.447     6.69     1252.536     65.24405     185.0968        34     1.811     1.388 -60.23   0
       103    713.1605    789.3564 307.6093083  +6.4207137     2211.997     5677.472     6817.571      92.4902     185.1276     369.9976      2.471     7.09     1252.098     65.24405     245.2306        38     1.782     1.547 -31.69   0
       104    543.4974    788.4660 307.6799689  +6.4154154     1416.858     2622.459     3199.811     92.78429     185.2012     370.1816      1.981     5.85     1253.902     65.24405     171.8652        13     1.657     0.582  63.62   3
       105    545.7286    786.3347 307.6791124  +6.4163697     1617.455     3392.927     4527.789     92.78429     185.2012     370.2184      2.556     7.61     1253.719     65.24405     178.5515        22     1.583     1.353  17.40   3
       106    205.7957    787.1489 307.8205939  +6.4046528     785.5961      2313.62     2819.094     92.04731     184.8331     369.6661      2.801     9.91     1260.516     65.24405     112.4474        17     1.838     1.490 -33.80   0
       107    985.8490    785.2255 307.4959256  +6.4315051     3723.529     7300.532     7656.782     92.34281     185.2012     370.0344      2.044     4.66     1246.982     65.24405     425.0651        34     1.596     1.304 -42.24   0
       108    951.3279    784.1496 307.5103334  +6.4308003      5863.06     11676.58     12592.25     92.78429     185.1276     370.1816      2.083     4.70      1247.52     65.24405     638.9874        42     1.688     1.358 -62.04   0
       109    396.8994    779.1030 307.7413141  +6.4143770     1442.756     3781.311     4600.549     92.78429     185.7153     369.9608      2.661     9.25     1257.797     65.24405     173.7344        29     1.880     1.269 -47.69   0
       110    110.0002    778.1426 307.8607775  +6.4051563     11370.31     32466.58     37856.03     91.89921     184.6856     369.7767      2.586     6.56     1258.703     65.24405     1453.518        78     2.047     1.886 -75.20   0
       111    946.2624    767.2283 307.5130135  +6.4376171      4798.97     10356.59     11413.24     92.34281     185.1276     370.1081      2.233     4.95     1246.548     65.24405     526.7395        49     1.692     1.630 -24.74   0
       112    539.8604    762.7134 307.6823559  +6.4259246     22554.37      64437.2     74182.02     92.93098     185.2747      370.292      2.593     6.78     1252.649     65.24405     2309.572        92     2.077     1.898 -53.47   0
       113   1001.4922    762.2303 307.4901890  +6.4415183     70021.55     133120.9     142581.9     92.93098     184.8331     370.1081      2.022     4.39     1246.294     65.24405     8114.343        90     1.789     1.513 -57.04   0
       114    147.5675    759.5601 307.8457715  +6.4140879     1487.952     3864.849       4042.6     92.34281     184.9068     369.9608      2.422     7.58     1258.389     65.24405     186.8079        30     1.703     1.532  27.22   0
       115     41.5798    753.5426 307.8900967  +6.4130133     707.9112     1373.453     1515.173     92.34281     184.9804      369.924      2.264     4.87     1258.938     65.24405     117.4043         5     1.029     0.739 -85.36   0
       116    437.1595    746.6055 307.7256569  +6.4291394        27123     83352.23     97670.44     91.89921     184.7594     369.8135      2.681     7.12     1254.848     65.24405     2970.311        99     2.145     1.952 -58.10   0
       117   1015.3138    745.3338 307.4850048  +6.4489532     2616.782     4865.203     4972.928     92.78429     185.3482     370.2184      1.937     5.26     1246.176     65.24405     314.6036        32     1.717     1.233 -58.29  16
       118    113.0680    741.7154 307.8607404  +6.4202962     761.5812      1872.78     2008.967     93.07745     185.4217     370.1816      2.671     6.86     1258.232     65.24405     117.7921         9     1.654     0.798  87.96   0
       119    283.4086    737.4282 307.7899750  +6.4277793     913.3743     2669.654     3237.311     92.34281     184.9068      369.924      2.929     6.68     1256.849     65.24405     125.5233        11     1.583     0.792  21.41   2
       120    709.1211    729.9467 307.6130004  +6.4451038     2845.393     7352.384     8587.333     92.78429     185.1276     370.1816      2.515     6.50     1247.124     65.24405     325.6331        43     1.775     1.643 -54.30   0
       121    762.6013    725.1313 307.5908982  +6.4488757     7325.055     18943.57     21012.78     92.19518     184.6118     369.9608      2.449     5.94     1244.941     65.24405     752.3315        59     1.993     1.635 -52.91   0
       122    588.4915    722.4610 307.6634744  +6.4441662     1054.987      1383.78     1577.947     92.63737     185.2012     370.2552      1.639     6.84     1249.216     65.24405     152.8011        11     1.535     0.854 -88.29   3
       123    585.2523    722.5239 307.6648208  +6.4440320     978.5329     2128.146     2046.091     92.78429     185.2012     370.1449      2.189     8.23     1249.346     65.24405     122.2466        18     2.242     0.845  85.29   2
       124   1002.4810    723.6528 307.4910790  +6.4574766     1374.443      2721.19     2821.759     92.78429     185.1276     370.1816      2.026     5.86     1244.322     65.24405     201.7657        21     1.369     1.289  31.57   0
       125    979.3927    724.6407 307.5006581  +6.4563005     633.1019     1208.383     1139.993     92.04731     184.8331     369.7767      1.794     3.40     1244.224     65.24405     94.73157         5     1.093     0.306  68.73   0
       126    505.0081    723.8203 307.6981838  +6.4408147     737.7528     1853.126     2414.413     92.34281     184.8331     369.8871      2.243     6.36     1251.361     65.24405     92.40344        10     2.031     0.559  28.27   0
       127    902.5775    720.2726 307.5327863  +6.4555465     757.8528     1654.154     2642.073     92.34281     184.9068     370.1081      3.302     6.62     1243.536     65.24405     89.02917         9     1.385     0.888 -71.24   0
       128    200.2033    716.1943 307.8253351  +6.4337550     745.5192     1484.526     1886.875     92.04731     184.7594     369.9608      2.375     5.56     1256.006     65.24405     115.6804         7     1.225     0.719  67.89   2
       129    838.6865    708.3626 307.5597887  +6.4583346     1670.611     3976.767     4400.292     92.78429      185.054     370.1449      2.282     6.94     1243.361     65.24405     170.3525        29     1.588     1.353  -3.14   0
       130    797.5855    705.8254 307.5769862  +6.4580120     1365.738     3460.248     3778.013      92.4902     184.9068     370.0713      2.390     7.35     1243.822     65.24405     191.4991        29     1.761     1.491  75.90   0
       131    777.9160    697.0739 307.5854712  +6.4609689     80071.93     212576.3     241791.6     92.93098     185.4952     370.2184      2.507     6.35     1243.904     65.24405     8363.142       162     2.391     1.886 -36.79   0
       132    225.6747    701.2922 307.8152381  +6.4407607     3375.257      10338.5     12607.42     92.78429     185.2747     370.1081      2.745     7.59     1254.449     65.24405     393.4313        53     2.013     1.771 -57.08   0
       133    159.8291    695.7988 307.8428367  +6.4408197     24160.35     76135.91     91260.51     92.19518     184.9068      369.924      2.747     7.07       1255.2     65.24405     2896.404       105     2.207     2.013 -69.87   0
       134     83.9062    692.0378 307.8745715  +6.4398236     2771.792     8170.831     10435.07     92.93098     184.9804     370.2552      2.806     6.94     1255.147     65.24405     332.2726        53     2.045     1.762 -71.52   0
       135    814.5084    684.2391 307.5706704  +6.4674873     2472.146     5972.108     6427.814     92.93098      185.054     370.2184      2.314     6.34     1242.686     65.24405     285.6466        41     1.900     1.455 -43.71   0
       136    333.2015    682.7626 307.7711032  +6.4520135     6754.775     22266.45     26753.93     91.75086     184.9068     369.8871      2.771     7.44     1252.709     65.24405     790.8069        75     2.159     1.969 -48.02   0
       137    136.5032    680.4841 307.8530686  +6.4463587      836.141     2190.838     3013.569     92.78429     185.5686     370.2184      2.882     7.08     1254.113     65.24405     144.3807         9     1.794     0.782  -2.27   2
       138    499.5368    677.4576 307.7020339  +6.4597705     2656.475     8221.039     9505.666     92.93098      185.054     370.1816      2.714     7.44     1248.229     65.24405     274.7001        53     2.019     1.750 -55.50   0
       139    948.1876    688.7798 307.5148606  +6.4700658     771.8021      1562.01     987.6437      92.4902     184.7594     370.0344      2.117     5.88     1241.542     65.24405     126.5618         8     1.238     0.786 -42.27   0
       140    768.5008    677.7486 307.5900448  +6.4686326     2879.892     7776.512      8359.01     92.78429     185.1276     370.4024      2.482     6.52      1243.57     65.24405     303.8669        45     1.842     1.612 -40.87   0
       141    146.6949    670.8729 307.8491528  +6.4506682     2783.474     8660.572     10090.23     92.63737     185.2747     370.1449      2.716     7.16     1253.553     65.24405     315.7523        55     2.022     1.787 -66.73   0
       142    544.6450    669.5200 307.6835231  +6.4645553     1156.498     3150.193     4605.251     92.78429     185.1276     370.1449      3.310     8.25     1245.994     65.24405     127.1127        21     1.757     1.084  -8.22   2
       143     18.2393    669.8775 307.9026635  +6.4467653     2325.254     6593.984     7767.024     92.63736     185.1276     370.1449      2.646     7.31     1254.782     65.24405     308.7029        47     1.944     1.750 -77.65   0
       144    241.7842    667.3885 307.8096844  +6.4552963     33483.05     111447.8     134627.3      92.4902     184.7594     370.0713      2.802     7.83     1252.038     65.24405     4313.194       114     2.252     2.055 -67.17   0
       145    222.5717    665.7877 307.8177373  +6.4553128     609.7198     1046.211       2513.4     92.19518     184.9068     370.0344      1.881     4.40     1252.093     65.24405      96.5332         5     1.150     0.479  35.14   0
       146    764.7124    659.4038 307.5922426  +6.4760792     7812.268     21309.52     23700.48     92.19518     184.7594     369.7767      2.498     6.34     1242.565     65.24405     851.1816        60     1.970     1.710 -51.05   0
       147    468.4314    658.0038 307.7156440  +6.4667608     16914.51     54170.81     68424.73     92.04731     184.9804     369.8871      2.890     7.31     1248.521     65.24405     1622.439       107     2.272     2.121 -34.21   0
       148    940.7053    660.0880 307.5189447  +6.4816611     966.8286     1763.264     1942.066     92.78429     185.5686     370.2184      2.073     6.69      1239.79     65.24405     108.6836        12     1.355     0.925 -42.33   0
       149    627.1366    655.6898 307.6496473  +6.4730208     788.3224     1300.737     2450.529     92.78429     185.2747     370.2184      2.319     4.86     1243.861     65.24405     145.2032         5     1.296     0.589  26.99   3
       150    628.8614    652.3071 307.6490438  +6.4744748     1314.271     3403.188     4754.105     92.63737     185.1276     370.2184      2.834     8.01     1243.602     65.24405     160.1682        22     1.687     1.064  26.87   2
       151    784.9625    669.4691 307.5834711  +6.4725994     831.7521     2005.003     2576.114     92.63736     185.1276     370.2552      2.474     7.93     1242.674     65.24405      131.726        15     1.520     1.157 -61.81   0
       152    640.9616    653.1879 307.6439761  +6.4745153     498.7894     846.9333      1570.46     92.19518     184.9068     369.8135      1.460     5.52     1243.586     65.24405      93.4043         6     1.431     0.601 -64.40   0
       153    297.7169    646.9611 307.7870927  +6.4656035     1397.361     4584.155     6336.425     92.78429      185.054     370.1081      3.101    10.94     1250.857     65.24405     196.1863        40     2.016     1.654 -64.17   0
       154    112.9200    645.8616 307.8640651  +6.4598590     10578.68        33227     39729.12     92.93098     185.2012     370.1449      2.747     7.16     1252.513     65.24405     1356.853        82     2.152     1.985 -76.08   0
       155    477.7162    646.1997 307.7121788  +6.4719441     766.7161     2527.704     3246.699     91.89921      184.538     369.7398      2.965     9.89     1247.563     65.24405      136.601        18     1.745     1.562 -74.94   0
       156   1015.5449    645.5914 307.4882739  +6.4901361     989.9282     1749.288     2138.655     92.04731      185.054     369.8135      2.335     5.50     1236.238     65.24405     115.4753        11     0.988     0.864 -59.63   0
       157     78.6207    643.5939 307.8784217  +6.4596433     1163.682     3309.911     4187.339     92.34281     184.8331      369.924      2.871     8.28     1252.527     65.24405     147.1222        26     2.046     1.236  51.97   0
       158    842.6450    644.2205 307.5603086  +6.4849452      636.049      1714.27     2066.709     92.34281     184.9804      369.924      2.594     3.72     1239.925     65.24405     121.3864         6     1.098     0.402 -12.79   2
       159    938.1407    639.8621 307.5206954  +6.4899253     2940.364     6888.366     7066.609     92.78429      185.054     370.1816      2.260     6.05     1238.401     65.24405     335.8156        37     1.677     1.494 -59.07   0
       160    409.7765    626.7864 307.7411236  +6.4776846     15518.79     52958.14     64832.75      92.4902     184.9068     370.0344      2.841     7.93     1248.226     65.24405     1812.827        97     2.222     2.073 -59.37   0
       161    617.7446    626.2583 307.6545547  +6.4848566     5135.793     15402.54     17736.32     92.93098     185.1276     370.1816      2.683     7.08     1242.151     65.24405     521.7493        63     2.042     1.860 -39.65   0
       162    175.0234    624.6329 307.8389327  +6.4707064     7150.994     24429.58     30576.22     92.19518     184.9068      369.924      2.903     7.61     1251.791     65.24405     755.4425        81     2.219     2.070  89.46   0
       163    539.3207    624.3655 307.6872706  +6.4830174     1127.153     3594.039     4984.948     92.63737     185.2012     370.1816      3.040     6.77     1243.162     65.24405     146.7831        12     1.226     1.048  50.19   2
       164    913.3142    619.7842 307.5317104  +6.4973870     2756.345     6401.422     7102.231     92.34281     184.8331     370.0344      2.266     5.86     1237.375     65.24405     279.6498        36     1.708     1.425 -61.76   0
       165    586.6028    618.7571 307.6677748  +6.4869128     2686.973     8316.735     10247.21     92.04731     184.6118     369.7398      2.756     7.59     1242.093     65.24405     299.2094        54     2.070     1.768 -40.95   0
       166    935.8359    612.1600 307.5225906  +6.5012843     1931.075     4632.825     4757.706      92.4902      185.054     369.9608      2.269     7.64     1236.353     65.24405     201.7781        31     1.611     1.386 -75.57   0
       167    498.8666    609.9671 307.7046020  +6.4876085     2793.115     9448.003     11744.82     92.63737     185.2012     370.1081      2.862     8.28      1244.71     65.24405     341.8273        56     2.100     1.845 -50.61   0
       168    345.3919    612.4370 307.7684169  +6.4814522     876.3168     2438.431     3591.332     91.89921     184.8331     369.8135      2.861    11.91     1248.112     65.24405     129.0498        25     3.019     1.308  57.47   2
       169    854.9289    605.1431 307.5565149  +6.5014861     1670.943     4160.974     5637.539     92.93098     185.1276     370.1081      2.750     8.53     1237.183     65.24405      175.908        36     1.987     1.450 -36.12   0
       170    862.6315    599.6966 307.5534918  +6.5039912     1263.877     2916.036     3431.995     92.93098     184.9068     370.2552      2.366     7.72     1236.664     65.24405     136.2369        20     1.375     1.305  24.18   0
       171    685.3660    596.8542 307.6273958  +6.4992528     1361.668     3130.421      3656.58     92.63737     185.1276     370.1081      2.281     8.08     1239.255     65.24405     174.4655        22     1.883     0.968  78.66   2
       172    688.4877    596.0251 307.6261241  +6.4996992     1228.455     2083.534     2793.982     92.93098     184.9068     369.9976      1.879     6.08     1239.164     65.24405     150.9192        11     1.293     0.803  61.29   3
       173     48.4031    595.6837 307.8926339  +6.4784052     840.0142     2578.068     2936.334     92.04731     184.6856     369.7767      2.797    10.12     1250.142     65.24405     112.5438        15     2.079     1.373 -73.06   0
       174    903.2885    597.9693 307.5366217  +6.5060586     603.2411     1240.377     1332.139     92.93098     184.9068     370.0713      1.801     3.73     1235.834     65.24405     91.19556         5     1.245     0.321 -25.35   0
       175    355.4932    594.0441 307.7648361  +6.4893831     1116.397     2181.377     3184.601     92.78429      185.054      370.292      1.951     6.71     1246.636     65.24405     145.6527        15     1.997     0.632 -61.91   3
       176    359.0745    594.3480 307.7633347  +6.4893776     1293.767     2866.504      3716.52     92.78429     185.2012     370.1449      2.519     9.05     1246.574     65.24405     141.2343        23     2.146     1.065 -59.47   3
       177    587.3932    590.2194 307.6684128  +6.4987197     3424.007     6476.196     8075.717     92.34281     184.7594      369.924      2.177     9.24      1240.27     65.24405      368.662        31     2.295     1.038 -76.37   3
       178    584.4757    589.4537 307.6696535  +6.4989383      3906.09      8538.61     10919.17     92.78429     185.1276     370.1816      2.529    10.06     1240.233     65.24405     429.6196        34     2.490     1.132 -72.76   3
       179    747.9604    587.2952 307.6016570  +6.5052876      7079.68     20560.77     24981.21     92.78429     184.9804      370.292      2.685     6.84     1237.807     65.24405     762.0579        74     2.253     1.787 -51.48   0
       180    269.7870    587.3671 307.8007466  +6.4892676     1117.062     2033.984     2835.083     92.19518     184.8331     370.0344      2.501     6.00     1247.822     65.24405      125.201        11     1.261     0.803 -75.75   2
       181    266.3324    586.1190 307.8022273  +6.4896670     857.1587      1507.14     2627.813     92.93098     185.4217     370.1816      2.484     4.66      1247.86     65.24405     109.5895         8     1.026     0.601 -70.19   2
       182    775.3879    585.7108 307.5902905  +6.5068565     729.4461     1374.265     1410.494      92.4902     184.7594     369.9976      1.901     4.38     1237.273     65.24405     90.45422         5     1.177     0.464 -82.12   0
       183    352.6854    584.6144 307.7663254  +6.4931817     676.8392     1568.681     3012.899     92.34281     184.8331     369.9976      2.638     4.84     1246.016     65.24405     111.9965         6     1.336     0.497 -51.02   0
       184    932.3126    581.8839 307.5250801  +6.5136654     1066.892     2141.352      2281.92      92.4902     185.3482     370.1816      2.038     6.52     1234.028     65.24405     129.3553        13     1.548     0.772 -71.38   0
       185    348.7926    583.9571 307.7679685  +6.4933226     706.2546      1649.22     3373.502     92.19518     184.8331     369.8135      2.820     4.24     1246.012     65.24405     122.7592         5     1.093     0.470 -52.87   0
       186     85.6657    579.8584 307.8776594  +6.4861894     1700.227     5561.689     7119.019     92.93098      185.054     370.1816      2.862     8.79     1249.134     65.24405     241.1915        47     2.074     1.787 -56.15   0
       187    725.1733    577.1419 307.6114885  +6.5087187     826.0538     2111.613     2956.973     92.34281     185.2012      369.924      2.929     8.93      1237.45     65.24405     133.1199        14     1.864     1.195  54.10   2
       188    986.9385    576.8577 307.5025046  +6.5175586     2543.795     5990.334     5882.809     92.93098      185.054     370.1816      2.348     5.67     1232.816     65.24405     263.0844        41     1.719     1.557 -21.17   0
       189    323.3924    574.0865 307.7788793  +6.4965463      1355.99      2517.63     3609.543      92.3428     184.7594     369.8871      2.482     9.79     1245.683     65.24405     164.2584        27     2.432     1.099 -66.61   2
       190    320.2667    573.4989 307.7802007  +6.4966841     1015.143     2421.671     2653.274     92.78429     185.2747     370.1449      2.531     7.08     1245.652     65.24405     114.7535        11     1.398     1.004 -80.50   3
       191    787.9487    561.4019 307.5858828  +6.5173103     798.9045     2403.192     2853.825     92.04731     184.6856     369.6661      2.612     6.11     1235.408     65.24405     118.6595         8     1.640     0.639  81.15   0
       192    685.3489    558.1317 307.6287139  +6.5152372     6031.862     13244.45     16404.51     92.63737     184.9804     370.0713      2.394     8.58      1236.94     65.24405     627.8181        45     2.300     1.222 -74.61   3
       193    688.4084    558.7793 307.6274181  +6.5150720     5022.522     8863.739     9872.955     92.34281     184.8331     369.8871      1.943     6.76     1236.939     65.24405     558.6624        28     1.924     0.891 -72.41   3
       194    606.0663    556.8038 307.6617703  +6.5131378     914.2247     1972.854     2934.866     92.04731     184.7594     369.8871      2.736     7.40     1237.927     65.24405     119.5322        13     1.515     1.013  27.00   2
       195    608.2991    553.9310 307.6609380  +6.5143983     970.8323     2334.229     3079.733     92.78429     185.2747     370.1081      2.598     7.22     1237.705     65.24405     111.7733        14     1.530     0.955  14.89   2
       196    579.8145    550.3677 307.6729191  +6.5149175     6134.516     19883.79     29809.37     92.34281     184.8331     370.0344      3.273     8.44     1237.792     65.24405     752.9999       104     2.773     2.154  35.08   0
       197    911.7276    548.6736 307.5347732  +6.5266895     2057.702     5438.162     5745.265     93.07745     185.2747     370.2184      2.385     6.64     1231.688     65.24405     234.7507        39     1.747     1.588  89.82   0
       198    350.8716    545.2186 307.7684189  +6.5093835      9771.76      35134.5     43971.29     92.34281      185.054     370.0713      2.929     8.61     1243.145     65.24405     1303.186        88     2.250     2.107 -72.33   0
       199     99.0019    543.9757 307.8733290  +6.5014493     1083.623      2664.09      4319.21     92.34281     184.7594     369.8871      3.258     6.62     1246.902     65.24405     131.7169        14     1.450     0.849 -44.28   2
       200    865.6055    543.1936 307.5541632  +6.5274153     672.8159     1971.702     2951.137     92.04731     184.9068      369.924      3.292     6.18     1232.091     65.24405     89.17053         7     1.661     0.647  82.10   2
       201    880.3905    539.2799 307.5481392  +6.5295236     2560.821     6591.738     7533.123     92.34281     184.6856     369.9608      2.485     6.75     1231.479     65.24405     276.7352        41     1.842     1.524 -38.82   0
       202     31.2728    540.9179 307.9016320  +6.5004363     732.2391     1781.559     2812.269     93.07745     185.4952     370.1816      2.934     6.20     1247.454     65.24405     97.24451         9     1.363     0.792  55.08   0
       203    208.4940    535.8601 307.8280177  +6.5084742     4792.021     16781.45     20897.46     92.63736     185.1276     370.2184      2.907     8.27     1245.326     65.24405      645.313        74     2.222     2.011 -71.18   0
       204   1012.9579    525.9630 307.4933883  +6.5394343     5732.297     12383.55     13191.46      92.4902     185.1276     369.9976      2.179     5.11     1228.573     65.24405      644.457        47     1.737     1.487 -59.74  16
       205    106.7105    524.2791 307.8707903  +6.5098387     1513.758      3218.27     4876.254      92.4902     185.4217     370.2552      2.493     8.53     1245.506     65.24405     209.7329        24     2.239     0.908  86.42   3
       206    110.3461    524.0266 307.8692851  +6.5100651     2051.624     3895.363     5335.571      92.3428     185.2747     370.0344      2.191     8.48     1245.474     65.24405     311.8541        26     2.042     0.984 -83.02   3
       207    322.6932    524.8616 307.7808431  +6.5168428     694.0231      1441.74     1923.526     92.63737     185.1276     370.2184      2.687     5.14     1241.198     65.24405     84.98914         6     1.073     0.696  -1.53   0
       208    132.4715    520.6447 307.8601882  +6.5122039     1245.303     2383.679     3554.946     92.63737     185.1276     370.1816      2.457     6.43     1245.029     65.24405     165.0579        19     1.603     0.979 -59.21   2
       209    129.4472    518.7573 307.8615117  +6.5128815     945.8104     1694.148     2969.198     92.78429      185.054     370.0344      2.377     5.36     1244.921     65.24405     133.9019        10     1.340     0.605 -47.21   3
       210    353.1551    516.9227 307.7684294  +6.5211405     746.5554     1492.601     2103.386     92.63737     185.2012     370.1449      1.967     3.97     1239.654     65.24405     112.5452         5     1.321     0.341  48.73   3
       211    354.7242    513.8157 307.7678816  +6.5224756     746.6025     2056.121     2734.288     92.19518     184.8331     369.9976      2.567     8.81     1239.257     65.24405     116.2286        15     1.783     1.216  35.12   2
       212      4.8029    509.9174 307.9137093  +6.5123433     1417.742     4268.708     5095.052     92.04731     184.6856     336.1227      2.801    10.89     1246.931     65.24405     177.0913        40     2.210     1.556 -50.42  24
       213    406.9484    511.3131 307.7462216  +6.5252575     1570.621     2390.225     3571.005     92.78429     184.9804     370.2552      1.446     3.88     1238.252     65.24405     260.8223         6     1.126     0.384  18.75   3
       214    410.2669    508.1151 307.7449484  +6.5266887     2595.021      4854.72     5824.331     92.93098     185.4217     370.1816      2.008     5.75     1237.854     65.24405     285.9445        27     1.629     1.176 -79.79   3
       215    406.1863    507.3768 307.7466726  +6.5268568     2097.908     4327.532     5654.144      92.4902     184.9068     370.0344      2.461     8.37     1237.781     65.24405     257.9297        25     2.212     0.887 -77.76   3
       216    747.2935    506.1282 307.6046813  +6.5387718     5329.236     13145.99     17806.05     92.63737     185.2012     370.2184      2.917     9.20     1231.357     65.24405     521.0995        69     2.841     2.169 -18.25   2
       217    750.4916    504.9915 307.6033880  +6.5393477     4257.374     7089.628      8558.37     92.34281     184.7594     369.8871      1.806     4.25     1231.241     65.24405     507.1292        23     1.487     1.010 -87.87   3
       218    992.3869    500.5615 307.5028116  +6.5492359     2129.747     4953.075     4846.323     92.34281     184.9068     369.8135      2.223     6.35     1226.317     65.24405     259.0126        32     1.628     1.426 -57.84   0
       219    458.0239    492.9502 307.7255780  +6.5345471     1125.813     2486.834     3685.699     92.34281     185.2012     370.0344      2.951     8.37      1235.46     65.24405     159.3699        18     2.282     0.857 -63.41   2
       220    454.3918    491.6204 307.7271355  +6.5349745     914.8137     2200.253     2928.192     92.34281     184.8331     369.8871      2.618     9.19     1235.422     65.24405     168.8618        17     1.865     1.332 -45.99   3
       221    428.4177    495.6546 307.7378138  +6.5324399     668.6424     1684.888     2940.129     92.19518     185.1276     369.8503      3.603    11.87     1236.166     65.24405     131.0051        12     2.622     1.495  80.66   2
       222    431.0204    491.3186 307.7368773  +6.5343170     540.3085     1050.327     2058.485      92.4902     184.7594     370.0713      1.362     3.47     1235.581     65.24405     113.0281         5     0.980     0.354  45.92   2
       223    813.8181    488.5575 307.5775747  +6.5482437      14871.4     43254.49      51415.8     92.19518     184.9068     369.8871      2.660     6.60     1228.958     65.24405     1425.772        84     2.167     1.869 -63.11   0
       224    585.8013    480.8274 307.6727834  +6.5438241     1134.087     3572.485      4009.38     92.19518     184.8331     369.8871      2.729     8.56     1231.911     65.24405     158.1874        29     1.769     1.643   9.77   0
       225    668.9214    474.6982 307.6383797  +6.5491307     28603.39     68831.37     79878.18     92.34281     185.4217     370.1816      2.428     7.64     1229.218     65.24405     2973.096        70     2.387     1.277 -83.57   3
       226    672.4373    474.2852 307.6369296  +6.5494185     26367.95     46795.76     52212.05     92.78429     185.1276     370.1449      1.941     8.15     1229.095     65.24405     2909.487        46     2.031     1.008 -76.85   3
       227    534.4211    471.2905 307.6945014  +6.5460435     921.8964     2258.544     3196.501     92.63737     184.9068     369.9976      2.884     9.59     1232.819     65.24405     139.0973        13     1.765     1.454 -23.45   2
       228     70.2792    470.5066 307.8877905  +6.5308119      2522.45     8045.015     10303.39      92.4902     185.3482     370.2184      2.882     8.30     1243.309     65.24405     340.0994        58     2.144     1.944 -57.26   0
       229    518.1940    467.4805 307.7013876  +6.5470737     2422.564     5215.836     7616.012     92.34281     184.6118     369.8503      2.901    11.94      1232.59     65.24405     283.7815        37     2.958     1.343 -42.29   3
       230    515.0017    466.0000 307.7027671  +6.5475781     2257.759     3914.637     4765.686     91.89921      184.538     369.7767      1.897     5.61     1232.523     65.24405     264.0756        20     1.478     0.947 -32.09   3
       231    246.2718    466.4430 307.8146494  +6.5383962     807.2393     2364.163     3862.276     92.63737     185.1276     370.1816      3.718     8.94     1237.177     65.24405     124.6965        16     2.292     0.973 -49.02   0
       232    379.0459    462.9511 307.7594823  +6.5442870     8454.069     31193.12     39838.21     92.78429     184.9804     370.1816      3.006     8.84     1233.385     65.24405     1023.587        89     2.315     2.108 -60.31   0
       233    468.1017    453.3059 307.7227271  +6.5512495     2858.534     10254.11     13110.12     92.78429     185.7887     369.9608      3.062     8.89     1231.668     65.24405     334.7075        63     2.178     1.982 -69.72   0
       234    737.1749    451.7549 307.6107350  +6.5608799     1311.934     4338.926     5646.489     92.19518     185.2012     369.9976      2.907    10.67     1227.508     65.24405       161.15        37     1.870     1.696  49.32   0
       235    356.3528    436.1898 307.7698408  +6.5545739     2041.551     4409.778     5799.695     92.19518     184.9804     369.7398      2.265     8.01     1231.604     65.24405     248.2357        24     2.043     0.878 -65.15   3
       236    357.0426    440.3311 307.7694128  +6.5528876     1923.343     2905.086     3506.471     92.63736      185.054     370.2184      1.648     6.02     1231.898     65.24405     245.9958        13     1.179     0.873  17.39   3
       237    360.1414    437.3334 307.7682243  +6.5542288     2706.233     4671.438     5983.355     92.93098      185.054     370.1449      1.914     5.08     1231.592     65.24405     332.6274        22     1.573     0.906  87.30   3
       238    215.9100    437.4650 307.8282774  +6.5493398     811.1602     1618.106     2654.466     92.63736     185.3482     370.1816      3.518     5.47     1236.411     65.24405     122.5967         7     0.995     0.849  18.92   2
       239    724.8253    433.4632 307.6164968  +6.5680188     21009.13     56655.39     66102.36     92.34281     185.1276     370.0344      2.540     7.34     1226.399     65.24405     1967.253        77     2.255     1.594 -89.46   3
       240    728.0000    432.9611 307.6151917  +6.5683320      15401.7     25290.25     27114.27     91.60228     184.8331     369.8135      1.740     4.58     1226.395     65.24405     2021.687        24     1.737     0.853 -89.97   3
       241    399.3290    432.4492 307.7520724  +6.5575573     992.5011     2499.856     3995.138     92.78429      185.054     370.1816      3.540     7.55     1230.252     65.24405     109.2008        16     1.735     0.919  50.55   2
       242    960.7299    430.0248 307.5183760  +6.5773007     956.1387     2503.885     2815.062     92.34281     184.9804     370.0713      2.596     8.03     1220.476     65.24405     124.4286        14     1.826     0.987  -7.43   0
       243    900.9653    429.5802 307.5432788  +6.5754941     1174.241     2702.754     3101.844     92.19518     184.9068     369.8871      2.448     7.87     1222.887     65.24405     129.9169        20     1.636     1.058  76.78   0
       244    385.1653    427.0668 307.7581530  +6.5593049      751.183     1656.686     1972.902     92.63737     185.2012     370.2184      2.514     5.59     1230.153     65.24405     141.5211         7     1.422     0.621  14.81   0
       245    162.4253    419.7238 307.8511519  +6.5548686      812.177     1764.823     2883.301     92.34281      185.054     370.1081      3.253     6.12     1237.743     65.24405     118.2911         9     1.259     0.837  55.07   2
       246    723.1903    418.1797 307.6176950  +6.5742733     2464.386     7200.006     9263.871     92.34281     184.7594      369.924      2.933     8.86     1225.499     65.24405     252.0995        46     2.179     1.750 -71.82   2
       247    740.1312    416.4914 307.6106975  +6.5755355      1282.73     3265.853     4025.215     92.78429     185.2747     370.1449      2.636     9.05     1225.296     65.24405     169.0142        22     1.648     1.407  35.72   0
       248    331.3119    409.4616 307.7811762  +6.5647684     825.5909     2012.243     2462.088     92.78429     185.3482     370.2184      2.525     6.62     1230.032     65.24405     118.3894         8     1.625     0.757  79.37   0
       249    456.6755    409.5383 307.7289705  +6.5689344     748.7636     1569.905     2883.468     93.07745     185.1276     370.1449      2.935     5.76     1227.388     65.24405     111.2946         9     1.421     0.658 -22.01   2
       250    978.7673    406.4355 307.5116612  +6.5876390     3430.911     8230.598     8896.484     92.34281     184.8331     369.8503      2.297     5.62     1217.557     65.24405     334.4282        46     1.768     1.601 -42.35   0
       251    217.2493    403.7518 307.8288668  +6.5633013     1452.161      2562.01     3584.956     92.78429     184.9804     370.1816      2.090     5.70     1234.479     65.24405      185.241        11     1.288     0.710  84.08   3
       252    218.6780    399.6823 307.8284103  +6.5650291     1327.678     1924.023     3322.261     92.93098     185.4217      370.292      1.725     6.08     1234.177     65.24405     193.8464        12     1.487     0.700  -5.92   3
       253    219.7844    405.2376 307.8277606  +6.5627730     1589.019     2838.474     4004.615      92.4902     184.9068     369.8503      2.160     5.65     1234.395     65.24405     180.2218        12     1.212     0.798 -13.28   3
       254    221.7511    401.8058 307.8270584  +6.5642556     2156.763     3691.053     5337.785     92.19518     184.9068     369.7398      2.042     4.44     1234.145     65.24405     288.9536        18     1.212     1.039 -69.29   3
       255    355.0087    393.9725 307.7718349  +6.5719561     624.6094     1630.996     2214.635     92.34281     184.9068     369.9976      2.389     4.68     1228.116     65.24405     83.82751         6     1.461     0.426 -60.48   0
       256    939.8719    391.3883 307.5283671  +6.5925558     643.3969     1309.789     1582.008     92.19518     184.6856      369.924      2.358     5.24      1218.58     65.24405     90.39233         6     1.091     0.710  85.48   0
       257    124.8646    389.4693 307.8678222  +6.5660964     798.9894     1808.586     2063.564     92.78429     185.2012     370.1816      2.467     6.84     1238.009     65.24405      118.333         9     1.850     0.709 -51.91   0
       258    531.1749    386.3995 307.6987325  +6.5809782     663.2786     1264.208      1756.92     92.34281     184.7594      369.924      2.517     4.40     1223.447     65.24405     99.80676         5     1.150     0.478   5.77   0
       259    636.3956    380.9853 307.6550988  +6.5867296     808.5991     2331.644     3138.156     92.34281     184.7594     369.9608      3.109     7.15     1221.789     65.24405     109.7374        11     2.103     0.681 -85.94   2
       260    639.3149    380.3933 307.6539031  +6.5870715     781.8161     1679.059     2380.116     92.34281     184.7594      369.924      1.893     3.48     1221.688     65.24405     119.8734         5     0.739     0.474  15.01   3
       261    535.1385    383.9040 307.6971665  +6.5821408      744.662     1499.235     2111.154      92.4902     185.2012     370.2184      1.693     3.97     1223.148     65.24405     111.9141         6     1.358     0.332 -85.85   0
       262    875.5533    383.0409 307.5554343  +6.5938594      891.129     2120.752     2274.263     92.63736     185.1276      369.924      2.428     5.91     1220.672     65.24405     125.5814        10     1.200     0.938 -43.21   2
       263    695.3279    382.0435 307.6305214  +6.5882606     1967.643     5088.145     6141.784     92.63736     185.1276     370.1816      2.580     9.28     1222.019     65.24405     217.3074        33     2.034     1.248  88.27   2
       264    698.4760    381.8032 307.6292185  +6.5884649     1653.345      3012.48     3647.409     92.19518      184.538     369.9976      2.064     5.06     1222.036     65.24405     201.6351        15     1.336     0.926 -73.42   3
       265    196.2801    367.7702 307.8388229  +6.5774507     849.3724     3187.482     4279.444     92.63737     185.1276     370.1081      3.110    11.02     1233.671     65.24405     130.6582        28     1.982     1.708  -3.52   0
       266    837.6337    365.6255 307.5718146  +6.5997849     834.2405      1893.76      2645.15     92.04731     184.8331      369.924      2.522     7.08     1220.323     65.24405     124.5382        11     1.666     0.844 -50.59   0
       267    728.5323    365.9280 307.6172394  +6.5960214     817.5403     2040.946     2516.517     92.78429     185.2747     370.1449      2.799     8.39     1220.745     65.24405     95.87549        11     1.813     1.084 -53.57   0
       268    430.2347    357.2822 307.7417552  +6.5896208      7077.75     27145.85     36233.02     92.78429      185.054     370.1081      3.103     8.52     1222.582     65.24405     839.3646        94     2.423     2.176 -49.38   0
       269    754.6099    356.4753 307.6066994  +6.6007936     5221.963     11634.88      13610.5     92.34281     184.6856      369.924      2.331     7.66     1219.891     65.24405     510.7689        41     2.222     1.156  89.84   3
       270    758.0000    356.0037 307.6053036  +6.6011014     4490.984     8455.636     9990.251     91.89921      184.538     369.8135      1.937     5.56     1219.889     65.24405     499.6219        25     1.660     0.952 -84.76   3
       271    119.7667    351.2592 307.8712464  +6.5816980     950.4203     2240.151     3400.505     92.63737     185.2012     370.1081      2.921     6.45     1236.582     65.24405     136.4806        14     1.603     1.154 -61.00   0
       272    552.7649    344.9984 307.6911458  +6.5987904     1472.335     2704.379     3504.069     91.75086     184.9068      369.924      2.056     6.58     1218.485     65.24405     170.7051        16     1.528     0.795  37.25   3
       273    555.3901    341.5277 307.6901703  +6.6003109     1491.353     3731.068     4707.443     92.19518     184.6856     369.9976      2.542     9.91     1218.227     65.24405     165.1537        31     2.047     1.338  15.14   2
       274    516.0652    344.8317 307.7064348  +6.5976321     853.3343     1721.668     2930.938      92.4902     185.2012     370.0713      3.053     5.99     1218.769     65.24405      109.252        11     1.368     0.738  40.38   0
       275    519.1320    342.4642 307.7052380  +6.5987119     863.7783     1811.689     2823.876     92.78429     185.1276     370.1816      2.217     5.07     1218.487     65.24405     110.9401         9     1.258     0.577  66.11   2
       276    913.6509    340.2779 307.5410138  +6.6127814     997.2697     2818.638     3175.955     92.78429     185.2012     370.1449      2.696     7.09     1215.868     65.24405     140.6152        13     1.713     0.835  66.93   2
       277    860.0013    339.4203 307.5633857  +6.6113481     5074.492     11630.43     13522.74     92.34281     184.7594     369.8135      2.289     6.57     1217.785     65.24405     506.7992        41     2.000     1.330 -84.24   3
       278    863.0000    339.0024 307.5621510  +6.6116205     3650.454     5852.482      6791.92     91.89921      184.538     369.7767      1.738     4.44     1217.765     65.24405     457.5382        17     1.610     0.793 -86.12   3
       279    947.6893    337.0570 307.5269470  +6.6152446     5036.384     12871.21     14074.17     92.63737      185.054      370.292      2.432     5.90      1214.32     65.24405     516.9047        52     1.854     1.644 -74.99   0
       280    659.3539    336.1012 307.6470587  +6.6060247      1078.38     3391.568     4148.058     92.78429     184.9804     370.4024      2.872    10.86      1217.57     65.24405     125.8815        28     2.008     1.637 -18.01   2
       281    469.9992    332.4830 307.7260377  +6.6011886      822.815     1687.356     2589.228     91.89921      184.538     369.7767      2.101     5.42     1218.499     65.24405     105.0642         8     1.290     0.644 -74.59   0
       282    709.8801    325.7359 307.6263680  +6.6119904     14815.64     36039.45     41520.52     93.07745     185.2012     370.1081      2.452     8.55     1216.986     65.24405     1458.599        61     2.368     1.290  86.47   3
       283    713.5198    324.9917 307.6248774  +6.6124191     13423.01     23089.53     24631.93     92.34281     184.6856     369.9608      1.868     5.32     1216.922     65.24405         1531        37     1.754     1.044 -88.77   3
       284    852.0020    327.7429 307.5671120  +6.6159020     1003.197     2883.803     3292.188     92.04731     184.7594     369.8503      2.550    10.27     1216.592     65.24405     123.2095        25     1.837     1.601 -38.38   0
       285    478.7227    328.0058 307.7225568  +6.6033287     840.5232     2790.772      3950.65     92.34281      184.538     369.9608      3.243     9.00     1217.714     65.24405     125.0392        19     2.004     1.129 -83.70   2
       286    316.1103    325.5871 307.7903574  +6.5988819     2592.451     5865.424     8066.728      92.4902     184.8331     369.9976      2.556     9.73     1225.627     65.24405     283.9019        45     2.771     1.242 -87.02   3
       287    312.4916    324.9758 307.7918851  +6.5990130     2015.491     4213.933     5963.554     92.93098     184.9068     369.9608      2.621     8.58     1225.788     65.24405     226.8939        33     2.553     0.910 -88.63   3
       288    945.2344    324.2366 307.5284025  +6.6204552     1443.809     3765.885     3942.351      92.4902     184.8331     369.8503      2.287     8.98     1213.414     65.24405     167.2799        26     1.671     1.346 -49.11   0
       289    797.7921    326.5560 307.5897285  +6.6145848     712.4984     1521.351     3049.233     92.19518     184.9068     369.8135      2.893     3.48      1216.95     65.24405     133.2218         5     0.736     0.475  14.88   0
       290    879.0861    322.3756 307.5560139  +6.6190202     3671.047      10368.1     10955.21     92.78429     184.9068     369.9608      2.497     7.06     1215.375     65.24405     355.0576        51     1.933     1.708 -55.62   0
       291    422.6522    322.0711 307.7461086  +6.6039020     1543.894     6115.059      7638.25     92.63737      185.054     370.1816      2.949     9.82     1219.982     65.24405     236.1821        52     2.096     1.918 -45.88   0
       292    983.1738    322.4153 307.5126635  +6.6224700     836.5073     1996.974     2742.086      92.4902     184.9804     370.0713      2.633     8.57       1211.7     65.24405     98.56604        16     1.600     1.283 -75.21   0
       293     81.6882    313.7757 307.8883800  +6.5958917     1834.178     4762.591     6658.287     92.78429     184.9068     369.9976      2.940    12.12     1238.277     65.24405     219.5188        40     2.260     1.808 -82.11   2
       294     78.0000    314.0028 307.8899081  +6.5956740     1174.318     2244.829     3147.994     91.89921      184.538     369.8135      2.447     6.55     1238.465     65.24405     153.8228        13     1.861     0.646  89.52   3
       295    250.5209    309.9434 307.8182032  +6.6031406     10138.61     40047.84     51642.53     92.78429     185.1276     370.1449      3.036     8.92      1228.22     65.24405     1488.907        97     2.349     2.195 -59.43   0
       296    225.8702    311.1587 307.8284273  +6.6018122     1973.692     7562.152     9822.477     92.63736     185.1276     370.2184      3.059    10.09     1229.714     65.24405     327.6614        59     2.272     1.964 -57.45   0
       297    374.5704    305.2981 307.7667017  +6.6092158     15066.75     58706.88     76981.76     92.93098     184.8331     370.1816      3.061     9.34     1221.496     65.24405     2002.771       113     2.418     2.203 -63.18   0
       298    131.7880    306.8258 307.8677538  +6.6004432     1608.858     4539.114     6388.705     92.34281     184.9068     370.0713      3.095    10.85     1235.619     65.24405     192.8818        37     2.273     1.733  70.87   2
       299    279.4155    303.8398 307.8063780  +6.6066290     6063.576     18945.23     26998.28     92.19518     184.9068     369.8871      3.149     8.51     1226.211     65.24405     805.0164        92     2.923     1.967 -25.93   2
       300    277.4850    300.9762 307.8072793  +6.6077464     4422.949     6153.922     7399.467     92.78429     184.8331     369.9976      1.504     4.11     1226.146     65.24405     500.4966        10     1.157     0.730  60.89   3
       301    712.5905    301.5264 307.6260590  +6.6220746     12670.04     32011.63     37186.64     92.34281     184.6856     369.9976      2.489     7.81     1214.895     65.24405     1245.583        60     2.302     1.350  83.81   3
       302    716.0000    300.9899 307.6246573  +6.6224099     10170.41     17032.49      18133.7     92.19518     184.6856     369.8871      1.751     5.08     1214.813     65.24405     1265.875        28     1.702     0.894  86.55   3
       303     30.7571    299.1795 307.9100865  +6.6002053     3183.986     11515.54     13698.66     92.19518     184.9804     369.9608      2.860     8.06     1240.681     65.24405     462.2964        65     2.243     1.923 -74.08   0
       304    971.3651    295.7313 307.5184828  +6.6330923     769.6313     1616.951     1429.554     92.63737     185.2012     370.2552      2.470     5.63     1209.999     65.24405      109.033         7     1.268     0.705 -47.70   0
       305    973.8961    283.6762 307.5178358  +6.6381530     893.5471     1787.095     2192.254     92.34281     185.2747     370.2184      2.184     5.26     1208.819     65.24405     152.8994        10     1.277     0.611 -46.77   3
       306    972.1667    280.7950 307.5186534  +6.6392848     1108.438     2219.455      2339.21     91.89921     184.9804     369.8871      2.437     7.33     1208.646     65.24405     150.7014        15     1.665     0.905 -69.32   2
       307    249.4152    276.2416 307.8198102  +6.6170153     9204.371     36324.39     47581.96     92.19518     184.8331     369.8503      3.057     9.34     1227.163     65.24405     1348.828        98     2.389     2.164 -54.71   0
       308    567.2432    276.9215 307.6874251  +6.6273766      760.436      1305.08     1875.336     92.63736     185.1276     370.1816      2.050     5.61     1212.671     65.24405     115.4796         6     1.228     0.721  80.11   0
       309    680.9190    272.6003 307.6402290  +6.6329581     2984.583     10070.37     12387.92     91.89921      184.538     369.8135      2.803     8.65     1212.528     65.24405     354.3606        56     2.044     1.841 -64.97   0
       310     91.9961    269.9857 307.8855795  +6.6143138     1613.248     5654.237     7351.742     92.34281     184.7594     369.9976      2.979     9.72     1237.553     65.24405     251.6726        49     2.226     1.780 -62.74   0
       311    362.6483    265.7554 307.7730104  +6.6251394     1365.854       4925.1     6265.309     92.78429     184.9804     370.1081      3.047    11.75     1219.937     65.24405     208.4885        48     2.165     1.948 -50.00   0
       312    327.9416    267.0307 307.7874209  +6.6234501     1012.013     2178.969     3310.836      92.4902     185.1276     370.0713      2.938     6.53     1221.959     65.24405     135.7435        13     1.307     0.915 -66.41   3
       313    324.8247    264.4757 307.7888058  +6.6244003     1069.593     2648.146     3684.876     92.34281     184.9068     370.1081      2.795     8.04     1221.953     65.24405     129.6917        17     2.019     0.894 -74.32   2
       314    973.5891    258.0844 307.5188281  +6.6487073     1027.518     2334.221     2899.806      92.3428     184.8331     369.9608      2.515     7.45     1206.514     65.24405     124.0186        17     1.392     1.116 -78.56   0
       315    179.0858    253.9984 307.8498559  +6.6238375     1675.423      6424.23     7869.302     91.89921     184.6118     369.8135      2.933     9.35      1232.01     65.24405     252.0454        48     2.055     1.927 -69.97   0
       316     62.2564    254.4103 307.8984952  +6.6197439     1019.478     2774.805     3649.602     92.04731      185.054     369.7767      2.917     7.99     1238.835     65.24405     127.9885        17     1.817     0.983 -62.16   0
       317    638.9727    252.5874 307.6583767  +6.6398186     2213.853     5683.877     7056.174     92.34281     184.9068     370.0713      2.697     8.78     1210.954     65.24405     249.0139        38     2.277     1.218 -88.45   3
       318    642.6484    251.8329 307.6568715  +6.6402528     2027.501      3785.55     5062.597      92.4902     185.1276     370.0713      1.991     5.12     1210.883     65.24405     299.4297        20     1.709     0.808 -88.48   3
       319    592.8071    249.5693 307.6777060  +6.6395220     3098.448      11650.4     15137.49     92.04731     184.9068     369.8871      2.977     9.20     1210.474     65.24405     404.0563        55     2.062     1.895 -41.37   3
       320    596.1651    241.1756 307.6765920  +6.6430991     17760.32     64074.47      82876.8     92.19518     184.9068     369.8871      2.982     8.45      1209.76     65.24405     1934.854       110     2.398     2.134 -57.62   2
       321    320.3379    248.3598 307.7912223  +6.6309025     962.0232     1634.633     2201.455     92.78429     185.1276     370.1816      2.006     5.24     1221.423     65.24405     158.6923         8     1.299     0.597 -31.12   3
       322    321.9976    245.0901 307.7906423  +6.6323078     1395.524     3447.267     5565.219     92.04731     184.7594     369.8503      3.371    13.00     1221.138     65.24405     186.9237        38     3.037     1.549   4.81   2
       323    277.3208    234.8619 307.8095964  +6.6350323     1280.187     2339.434     3119.989     92.93098     185.2012     370.1449      1.970     7.90     1224.181     65.24405     150.1974        20     1.798     0.970 -74.71   3
       324    273.4985    234.5503 307.8111988  +6.6350327     922.0341      2112.48     3090.287     92.78429      185.054     370.3656      2.760     9.18     1224.546     65.24405     124.1168        20     2.387     0.986  87.12   2
       325    647.7291    229.6742 307.6555064  +6.6495697     682.8773     1310.612     1563.023     93.07745     185.2747     370.1816      2.141     5.82     1209.191     65.24405     97.59314         6     1.223     0.780 -39.60   0
       326    661.2341    224.0783 307.6500714  +6.6523307     1212.622     3641.125     4811.108     92.63736     185.1276     370.1081      2.925    10.00     1208.798     65.24405     160.2864        29     1.914     1.458  65.25   2
       327    400.7825    214.2266 307.7588796  +6.6476874     1120.441     2127.529     2865.094     92.34281     184.8331     370.0344      2.254     6.95     1214.095     65.24405     156.2142        14     1.611     0.841 -37.57   3
       328    401.6966    218.1937 307.7583641  +6.6460804     1450.429     2948.396     3499.705      92.4902     184.7594     369.8871      2.174     8.15     1214.393     65.24405     173.2722        21     1.593     1.167 -12.10   3
       329    404.7510    215.4395 307.7571856  +6.6473196      1271.01     2128.827     3305.232     92.78429     185.1276     370.0344      1.811     2.74     1213.919     65.24405      229.692        10     0.836     0.828 -88.00   3
       330    875.0097    211.2060 307.5614704  +6.6647758     1793.546     5194.146     5773.325     92.19518     184.9068     369.9608      2.585     8.24     1206.055     65.24405     194.9274        38     1.780     1.576 -51.99   0
       331    856.4057    211.8761 307.5691963  +6.6638792     996.6147     2678.978     3058.461     92.34281      184.538     369.9608      2.607     8.55      1206.59     65.24405     114.8333        18     1.712     1.192 -25.92   0
       332    367.1182    208.8799 307.7730817  +6.6487669      583.007     1804.758      2671.05     92.93098     185.4217      370.292      2.751     6.76     1216.215     65.24405     90.80994        10     2.251     0.570 -62.79   0
       333    113.0529    208.0557 307.8789205  +6.6405849     1102.517      2187.32     3587.624     92.93098     185.1276     370.1081      2.651     5.57     1235.583     65.24405     134.4248        10     1.387     0.631  33.76   2
       334    115.4217    204.1787 307.8780660  +6.6422648     1246.778     2824.741     4282.842      92.4902     184.9068     370.1449      3.246     7.17     1235.428     65.24405     160.5828        16     1.699     0.848  79.86   2
       335    797.1298    196.9300 307.5943906  +6.6680728     2598.624     7756.784     8930.413     92.78429     185.2747     370.1081      2.644     7.61     1206.789     65.24405     256.4127        49     2.008     1.691 -64.54   0
       336    742.1931    197.5667 307.6172503  +6.6659773      1356.38     4105.275     4811.613     92.04731     184.9804      369.924      2.687    10.15     1207.485     65.24405     159.7266        34     1.796     1.600 -34.73   0
       337     35.8805    194.7518 307.9115132  +6.6434834     1174.057     4341.191     5800.241     92.78429     185.1276     370.1816      3.472    11.21     1239.761     65.24405     174.3726        42     2.150     1.903 -67.15   0
       338    736.8343    184.1516 307.6199365  +6.6713363     738.4744     2181.398     2981.385      92.4902     185.1276     370.0713      3.002     8.65     1206.952     65.24405     103.3506        13     1.811     1.155  30.97   0
       339     63.8257    179.2821 307.9004024  +6.6508083     3437.004     11714.76     14615.67     92.63737     184.8331     370.1449      2.884     7.94     1238.057     65.24405     511.3595        69     2.288     1.947 -61.59   0
       340    394.6797    178.4658 307.7626363  +6.6622448     1020.374     2129.487     2930.146     92.93098     185.2747     370.1081      2.588     6.92     1211.585     65.24405     128.9081        12     1.596     0.842 -77.93   2
       341    391.4182    178.9399 307.7639786  +6.6619399     765.9666     1963.172     2737.367     92.34281      185.054     369.8871      2.726     8.32     1212.146     65.24405     101.7815        13     2.026     0.956  82.93   2
       342    606.2849    170.8471 307.6747619  +6.6724688     6425.382     22263.56     27794.17     92.78429      185.054     370.1449      2.917     8.02     1206.112     65.24405     641.4149        78     2.204     2.056 -60.19   0
       343    504.5680    168.7475 307.7171984  +6.6699346     1702.226     3209.195     3903.198     92.63737     185.1276     370.0344      2.028     5.88     1205.299     65.24405     172.3683        17     1.356     0.973 -85.14   3
       344    507.9206    167.2967 307.7158513  +6.6706457     1701.808     3639.416     4646.076      92.4902     185.4217     370.2552      2.207     8.23     1205.114     65.24405     216.2296        24     1.908     0.993 -78.33   3
       345    504.6351    164.6813 307.7173084  +6.6716154     1214.139      1651.56     2789.674     92.63737     185.1276     370.1449      1.433     4.57     1205.149     65.24405     171.6984         9     1.083     0.640 -41.71   3
       346    233.7970    164.1507 307.8301287  +6.6627613     3254.002      7920.68     10369.33     92.04731     184.7594     369.6661      2.927    11.82     1230.418     65.24405       427.36        43     2.565     1.699 -50.98   3
       347    230.3381    163.4933 307.8315917  +6.6629167     2559.096     6218.938     9651.855     92.78429     185.1276     370.2184      3.211     8.77     1230.828     65.24405     292.2642        28     2.493     0.862 -75.36   3
       348    412.3073    163.4974 307.7558030  +6.6690140     7679.961     23283.55     29634.76     92.78429     185.7153     370.0713      2.853     8.81     1207.927     65.24405     956.8188        76     2.513     1.857 -34.96   2
       349    410.4803    160.4998 307.7566658  +6.6701902     5632.723     7558.326     8355.168     92.63737      185.642     370.1816      1.514     3.88      1208.01     65.24405     663.4681        13     1.129     0.911  65.38   3
       350    592.7918    161.3141 307.6807050  +6.6759531     1357.906     4328.113     6453.726     92.34281     184.7594     369.9608      3.186    11.07     1205.163     65.24405     157.3337        39     1.949     1.786  86.92   0
       351    889.1158    161.6018 307.5572723  +6.6857226     1109.921     2620.138     3028.389     92.04731     184.6856     369.7767      2.437     8.06     1202.266     65.24405     132.8021        18     1.424     1.339 -22.08   0
       352    221.7077    160.7329 307.8352800  +6.6637666     1007.273     2760.583     5282.979     92.63737     185.3482     370.1816      3.993     8.11     1231.436     65.24405      173.396        17     1.986     0.927 -61.47   2
       353    218.0000    160.9917 307.8368154  +6.6635353     672.3391     1597.132     3837.386     91.89921     184.6856     369.8871      3.756     8.02     1231.527     65.24405     112.4955        11     2.977     0.605 -88.32   2
       354    910.4734    152.3417 307.5486895  +6.6902568     615.8765     1293.941       1702.2     92.93098     185.1276     370.1081      2.178     5.31     1201.329     65.24405     87.72424         6     1.321     0.603 -19.88   0
       355    663.8626    152.4005 307.6514055  +6.6820070     618.9281     1413.806     2060.675     91.89921     184.9068     369.7767      2.650     3.47     1205.419     65.24405     87.15564         5     0.781     0.446 -18.54   0
       356    149.8460    145.2897 307.8657352  +6.6677293     3510.139     13239.63     17004.79     92.78429     184.9804      370.292      3.024     8.81     1233.059     65.24405     474.9049        75     2.331     2.061 -66.38   0
       357    496.0052    143.3851 307.7216257  +6.6801176     1028.453     1996.753     2522.927     92.34281     184.7594     369.9608      2.119     7.02     1204.736     65.24405      132.127        16     1.881     0.734 -61.46   2
       358    492.4446    143.6397 307.7231001  +6.6798934     834.1182     1941.245     2498.344      92.4902     185.1276     370.0344      2.547     8.34     1204.908     65.24405     124.6301        15     2.611     0.745 -81.52   2
       359    894.5347    143.0367 307.5556430  +6.6935669     2004.838      3967.83     4809.215     92.63736     185.1276     370.2184      2.131     7.66     1200.898     65.24405     210.2157        28     1.789     1.309  74.31   2
       360    897.2239    142.1756 307.5545520  +6.6940120     1419.519     2257.631      3094.44     92.19518     184.9068     370.0344      1.684     5.78     1200.804     65.24405     204.9132        14     1.532     0.707  74.00   3
       361    695.2585    142.3237 307.6386700  +6.6872151     916.5842     2068.113     2218.008     92.93098     185.1276     370.1081      2.204     6.85     1204.853     65.24405     121.8965        11     1.636     0.803  81.18   0
       362    959.1064    138.5042 307.5289003  +6.6975885     1183.051     2448.667     2636.683     92.78429      185.862     370.0713      2.353     5.76     1199.178     65.24405     156.2528        13     1.394     0.791  89.67   2
       363    962.2352    137.6966 307.5276243  +6.6980260     602.5332     914.4279     1612.928     92.78429     184.9804     370.3288      1.842     4.02     1198.996     65.24405     122.6798         5     1.323     0.350 -65.21   3
       364    678.4832    135.4530 307.6458901  +6.6894912     2789.244     6624.246      7500.88     92.78429     185.1276      370.292      2.359     8.05     1204.439     65.24405     278.2465        31     2.164     1.074  81.88   3
       365    681.7589    135.2312 307.6445332  +6.6896921     2494.216     4776.034     5461.805     92.19518     184.9068     369.9976      2.052     7.92     1204.439     65.24405     300.3959        25     1.733     1.136  88.51   3
       366    601.6041    134.9988 307.6779270  +6.6871104     1302.431     2550.059     3438.693     92.04731     184.6118     369.8503      2.068     7.55     1204.159     65.24405     136.9625        17     1.659     0.961 -78.16   3
       367    597.9859    134.4769 307.6794517  +6.6872050     1172.835     2827.662     3859.889     92.34281     184.7594      369.924      2.549     9.19     1204.025     65.24405     162.8628        23     2.175     1.083 -75.61   3
       368    401.7667    131.6612 307.7612748  +6.6818027     2238.108     4938.259     6231.104      92.4902     185.2012     370.0713      2.486    10.06     1209.276     65.24405     248.0077        33     2.360     1.197 -45.79   3
       369    398.2745    130.2224 307.7627783  +6.6822797     1846.973     4528.267     6214.723     92.34281     184.9804     370.0713      2.634     8.17     1209.896     65.24405     202.8739        26     2.012     1.082 -63.66   3
       370      2.4596    131.1241 307.9276019  +6.6686240     3960.423     7543.917     7928.069     92.93098     165.6325     299.5207      2.052     6.85      1240.26     65.24405     490.6792        34     1.939     1.165 -79.46  24
       371    296.6198    126.0874 307.8052584  +6.6805802     4229.706     16002.89     21407.42      92.4902     184.8331     370.0344      3.105     8.47     1225.649     65.24405     603.4999        80     2.331     2.084 -49.05   0
       372     71.4535    127.9890 307.8989741  +6.6722374     1017.183     2408.755     4021.253     92.04731      185.054     369.8135      2.712     6.11     1235.884     65.24405     149.3267        12     1.707     0.614 -64.32   2
       373     69.5490    124.2268 307.8998955  +6.6737264     754.2078     1647.292     3834.926     92.34281     185.2747     370.0713      4.164     4.54     1235.752     65.24405     126.8875         6     1.098     0.532  -8.74   2
       374    362.8571    125.7357 307.7776823  +6.6829454     1018.322     2401.067     3445.539     92.93098      185.054     370.1816      3.012     8.51      1215.31     65.24405     113.8538        15     1.512     1.337  -1.34   2
       375    623.0256    108.1139 307.6699161  +6.6989243     985.9566      2044.73     3140.051     92.93098     184.8331     369.9976      2.719     5.54      1202.81     65.24405     176.7794        10     1.547     0.560 -69.45   3
       376    623.4042    119.2883 307.6693796  +6.6943242     3739.674     13398.05     19227.27     92.19518     184.7594     369.7767      3.252    12.81     1203.432     65.24405     415.6957        96     3.420     2.084 -82.00   2
       377    613.6118    113.1942 307.6736650  +6.6965126     2845.396     4369.237     4603.888     92.34281     184.9068     370.0344      1.666     4.48     1203.085     65.24405     297.0157        19     1.263     1.013 -82.85   3
       378    614.5765    116.8891 307.6731378  +6.6950196     3062.138     5449.078     5895.814     92.78429     184.9068     369.9976      1.904     6.38      1203.31     65.24405     318.5537        24     1.762     0.977  10.69   3
       379    617.4928    114.0372 307.6720198  +6.6962943     3141.774     5645.355     7016.478     92.93098     184.9804     370.2184      2.066     5.15     1203.144     65.24405     343.3031        18     1.360     0.975  82.68   3
       380    787.1705    119.2144 307.6011691  +6.6998218     901.8123     2274.835     3247.996     92.34281     184.8331     370.0713      2.785     7.61     1202.586     65.24405      125.577        12     1.682     0.964  65.63   0
       381    223.7642    116.5324 307.8359280  +6.6820809     2270.375     8235.862     10948.41     92.63737     185.2747     370.2552      3.048     8.63     1230.511     65.24405      342.825        59     2.354     1.792 -49.76   0
       382    384.9742    115.0415 307.7688338  +6.6881008     2606.636       9625.4     11930.63     92.34281      185.054      369.924      2.946     8.29     1211.994     65.24405      341.972        66     2.246     2.010 -66.90   0
       383    646.9640    112.3010 307.6598032  +6.6979956     7108.995     20394.61      31826.7     92.78429     184.9804     370.3656      3.379     8.84     1203.055     65.24405     733.2198       108     2.965     2.059 -39.94   0
       384     32.4615    109.3200 307.9158503  +6.6786330      1510.24     3287.462     3933.437     92.93098     185.1276     370.1449      2.319     7.75     1237.329     65.24405      205.192        26     1.956     0.994 -56.17   2
       385     29.9383    106.4692 307.9169984  +6.6797249     971.3035      1506.95     2240.545     92.78429     185.1276     370.1816      1.760     5.78     1237.301     65.24405     134.3242        11     1.740     0.540 -59.83   2
       386    123.2986    106.3668 307.8781179  +6.6829045     2075.344      5153.18     7197.843     92.78429     184.9804      370.292      2.803     8.63     1232.815     65.24405     266.0444        41     2.321     1.480 -41.21   2
       387    121.3146    103.3165 307.8790482  +6.6840969     1341.824     2426.388     3414.203      92.4902     185.3482     370.2552      2.150     4.98     1232.746     65.24405     172.2708        10     1.081     0.820 -38.92   3
       388    854.5662    102.3177 307.5736683  +6.7090439      871.986     1545.276     2489.791     92.78429     185.1276     370.1081      1.793     4.65     1198.934     65.24405     131.3937         7     1.240     0.495  88.71   0
       389    708.5944    100.2329 307.6345413  +6.7050353     560.3373     1350.027     1974.831     92.04731     184.9068      369.924      2.294     3.68     1202.366     65.24405     143.7406         5     1.661     0.235 -30.81   0
       390    767.3112     91.8245 307.6103684  +6.7104658     1050.223     2017.125      2928.73     92.93098     184.9068     369.9976      2.356     5.47     1201.175     65.24405     138.7021        10     1.289     0.781 -74.83   3
       391    763.8564     93.9825 307.6117344  +6.7094597     1143.472     2155.044     2892.851     92.19518      185.054     369.8503      2.017     6.43     1201.376     65.24405     136.5101        15     1.366     0.849  45.44   3
       392    764.2632     90.2379 307.6116917  +6.7110190     913.7787     1620.264     2244.535     92.78429      185.054     370.1816      2.079     5.44     1201.111     65.24405     115.0829         9     1.012     0.824  54.18   3
       393    589.5316     89.5189 307.6844979  +6.7054808     4307.215     8649.031     9689.034     92.93098     185.4217     370.1816      2.116     8.32     1202.154     65.24405     444.1658        28     2.088     1.080  44.56   3
       394    592.7628     87.2040 307.6832305  +6.7065444     3934.164     8257.572     10647.73     91.75086     184.8331      369.924      2.473    12.11      1202.11     65.24405     482.1442        42     2.664     1.533  37.36   3
       395    729.6884     82.1928 307.6263659  +6.7131863     2130.064     6796.351     9147.075     92.19518     184.7594     369.8503      3.080     8.02     1201.261     65.24405     246.3325        53     2.096     1.809 -63.15   0
       396    216.8327     77.7702 307.8401344  +6.6978487     3406.032     13138.42     17611.32     92.19518     184.8331     369.8135      3.058     8.55     1229.996     65.24405     560.9327        69     2.288     2.012 -58.36   0
       397    467.6884     67.2944 307.7360036  +6.7105797       2845.3     10406.75     13188.68     92.78429      185.642     370.2184      2.960     8.04      1204.91     65.24405       360.51        65     2.209     1.974 -68.34   0
       398    175.7321     63.7163 307.8577319  +6.7022705     3933.698     11027.11     13681.45     93.07745     185.4217     370.1816      2.711     8.72     1230.633     65.24405     505.1011        57     2.443     1.631 -51.45   2
       399    173.5036     60.5028 307.8587696  +6.7035221     2518.755     3963.519     4822.507     92.78429     185.7887     369.9608      1.778     4.05     1230.586     65.24405     287.1477        17     1.203     0.978 -79.26   3
       400    777.2941     63.2918 307.6071761  +6.7225771     959.9417     2340.593     2867.909     92.78429     185.7153     370.1449      2.536     7.91     1199.025     65.24405     119.7784        12     1.707     1.024  84.90   0
       401    315.6407     61.6956 307.7995261  +6.7077980     1355.746     3566.237     7769.687     92.78429      185.054     370.3288      5.289    10.46     1223.542     65.24405     167.3119        27     1.974     1.579  15.21   2
       402    817.7663     57.0162 307.5905298  +6.7265175     1350.355     3116.738     4903.447     92.34281     184.8331     369.9976      3.035     8.98     1197.688     65.24405     143.5275        22     2.096     1.074  72.58   2
       403    819.8041     54.3847 307.5897700  +6.7276717     1181.217     2469.086     3866.961     92.34281     184.6856     369.9608      2.473     6.24     1197.466     65.24405     145.3845        14     1.728     0.633  49.57   3
       404    559.4542     57.0985 307.6981260  +6.7178583     688.5625     1638.829     2777.783     92.63736     185.1276     370.4024      2.903     6.19     1202.093     65.24405     89.80835         7     1.421     0.758 -17.37   0
       405    283.5830     53.5710 307.8131552  +6.7100769     1068.471     3273.655     4824.636     92.34281     184.8331     370.0713      2.976     9.47     1228.229     65.24405     173.4485        20     2.123     1.178 -33.67   2
       406    764.5691     50.8244 307.6128988  +6.7272990     2563.031     7801.678     9676.594     92.19518     184.9804      369.924      2.816     7.89     1198.505     65.24405     287.1328        51     1.993     1.777 -77.08   0
       407    797.8090     52.8765 307.5989832  +6.7275608     684.1466     1563.834     2259.023     92.34281      184.538      369.924      2.771     4.10     1197.881     65.24405     136.8737         6     1.152     0.416 -28.60   0
       408    469.3948     50.1523 307.7358750  +6.7177129     867.9592     2141.032     2628.045     92.04731     184.9068     369.7767      2.216     7.76     1205.304     65.24405     124.1793        11     2.269     0.742 -47.14   2
       409    378.8114     47.3709 307.7737007  +6.7158280     1429.878     4514.737     6216.305     92.19518     184.9068     369.9608      2.944     9.47     1213.687     65.24405     208.4238        36     2.180     1.373 -48.18   2
       410    775.5921     45.1317 307.6084999  +6.7300168     741.3962     1584.315     2310.889     92.19518     184.8331     370.0344      2.599     6.86     1197.855     65.24405     102.6461        10     1.355     0.973  -9.87   0
       411    865.6093     42.3547 307.5710967  +6.7341646     1796.205     4154.072     4613.395     92.19518     184.9804     369.7767      2.280     9.80     1195.991     65.24405     214.9807        30     2.001     1.338 -10.13   3
       412    866.3989     37.7820 307.5709224  +6.7360786     1662.429     4459.378     7185.052     92.34281     184.6118     369.8135      3.495    10.81     1195.832     65.24405     182.2391        38     2.395     1.751  79.71   3
       413    499.5613     37.8308 307.7237278  +6.7238086     7525.778     27188.04     34494.75     92.34281     184.8331     369.9608      2.945     8.44     1204.095     65.24405     863.6764        91     2.334     2.087 -57.54   0
       414    641.1891     34.7769 307.6648367  +6.7298043     816.5381     2531.625     2644.661     92.34281     184.9068     369.9976      2.619     9.74     1200.911     65.24405     106.6278        16     1.904     1.389 -69.57   0
       415    630.2986   1017.5449 307.6360776  +6.3237496      4986.42      9782.21     10036.29     92.63737     185.1276     365.1802      2.041     4.71     1265.475     65.24405     499.1621        37     1.603     1.333 -47.50  16
       416    867.9666   1013.5434 307.5372889  +6.3333276     2204.235     4116.181      3767.24     92.63736     185.1276     370.1449      1.994     4.84     1261.608     65.24405     298.0963        27     1.561     1.172 -67.94   0
       417      3.3589   1014.5391 307.8971152  +6.3039926     692.9961     1513.035      1966.99     92.78429     176.7717     314.5602      2.358     7.45     1262.044     65.24405     98.50854        10     1.662     0.934 -42.28  24
       418    313.3737   1010.8724 307.7682127  +6.3159056     10182.78     23047.64      25836.8     92.34281     184.9804     370.0344      2.278     5.11     1265.984     65.24405     1053.135        62     1.792     1.711 -66.80   0
       419     48.3170   1011.9151 307.8784935  +6.3065858     1049.946      1903.27     1368.188      92.4902     185.3482     370.2184      1.837     6.74     1263.669     65.24405      120.517        14     1.286     0.992  55.50   0
       420    184.5550   1009.8798 307.8218613  +6.3119980     882.4046     1617.433     1214.255     92.78429     185.1276     370.1449      1.778     6.34     1265.816     65.24405     132.1071        10     1.380     0.817  18.33   0
       421     77.0079   1001.1620 307.8669187  +6.3119879     1194.194     2467.613     2948.524     91.89921     184.8331     369.8135      2.125     7.82     1264.462     65.24405     146.8907        17     1.444     1.184  50.05   0
       422    391.1612   1001.6603 307.7361494  +6.3223128      684.901     1139.195     912.5036     92.78429     185.2012     370.2184      1.940     4.43     1266.111     65.24405     102.5985         6     0.947     0.589  66.05   0
       423    858.2982    995.4562 307.5419242  +6.3404722     1656.155     2862.062     3407.343     92.63737     185.1276     370.4024      2.008     5.76      1260.62     65.24405     194.0011        21     1.476     1.120 -64.02   0
       424    829.1132    994.4639 307.5541056  +6.3399094     1583.066      2867.64     2861.029     92.78429     185.2747     370.1816      1.943     5.66     1260.627     65.24405     210.6448        18     1.414     1.048 -56.64   0
