#   1 NUMBER                 Running object number                                     
#   2 X_IMAGE                Object position along x                                    [pixel]
#   3 Y_IMAGE                Object position along y                                    [pixel]
#   4 ALPHA_J2000            Right ascension of barycenter (J2000)                      [deg]
#   5 DELTA_J2000            Declination of barycenter (J2000)                          [deg]
#   6 FLUX_APER              Flux vector within fixed circular aperture(s)              [count]
#   9 FLUXERR_APER           RMS error vector for aperture flux(es)                     [count]
#  12 FLUX_RADIUS            Fraction-of-light radii                                    [pixel]
#  13 FWHM_IMAGE             FWHM assuming a gaussian core                              [pixel]
#  14 BACKGROUND             Background at centroid position                            [count]
#  15 THRESHOLD              Detection threshold above background                       [count]
#  16 FLUX_MAX               Peak flux above background                                 [count]
#  17 ISOAREA_IMAGE          Isophotal area above Analysis threshold                    [pixel**2]
#  18 A_IMAGE                Profile RMS along major axis                               [pixel]
#  19 B_IMAGE                Profile RMS along minor axis                               [pixel]
#  20 THETA_IMAGE            Position angle (CCW/x)                                     [deg]
#  21 FLAGS                  Extraction flags                                          
         1    258.6253     57.1659 307.8354458  +6.6644480     1980.557      4487.32       6684.9     87.30204     175.3044     350.8535      3.191     6.47     1086.163     61.88055     218.9241        37     1.953     1.358 -43.07   0
         2    334.7383     23.4043 307.8049435  +6.6809395     8399.745     18587.54      21127.8     87.30204     175.3045     350.7487      2.305     5.61     1079.039     61.88055     938.3975        61     2.082     1.480 -34.59   0
         3    661.7451     16.7199 307.6692011  +6.6946385     7974.798     16201.51     18204.04     88.14016     175.5838     351.0978      2.145     5.04     1062.737     61.88055     909.6212        54     1.933     1.377 -33.13   1
         4    826.6753     15.7546 307.6006537  +6.7005402     1197.883     2271.501     2349.628     87.86167     175.6536     351.0978      1.995     6.73     1055.912     61.88055     152.1555        16     1.467     0.868 -44.24   0
         5    262.0532     13.7519 307.8354918  +6.6824885     4438.242     9749.251     11374.23     88.14015     175.5838     351.0629      2.335     5.84      1086.22     61.88055     476.5009        49     2.088     1.355 -31.99   0
         6    897.0260     14.1114 307.5714560  +6.7035631     1198.041      2431.61     2625.241     88.14015     175.3743     350.8884      2.139     5.69     1054.335     61.88055     138.7994        14     1.374     0.787 -25.92   0
         7    653.3953     12.1329 307.6728279  +6.6962537     6268.112     12641.36      14406.5     87.44228     175.2345     350.8535      2.169     4.92     1062.585     61.88055     689.2251        48     1.972     1.278 -36.04  17
         8    423.2687     12.3566 307.7685074  +6.6884663     5364.094     11411.67     12631.05     88.00102      175.514     351.1328      2.221     5.27     1069.568     61.88055     625.8286        49     1.946     1.401 -31.62  16
         9    685.2927      9.7798 307.6596440  +6.6982904     10723.62     24894.15     32310.96     87.86167     175.3743     350.8884      2.640     7.75     1061.857     61.88055     1215.361        72     2.786     1.298 -36.73  16
        10    738.7024     11.2014 307.6373877  +6.6994861     1374.768     2408.082     2808.145     87.44228     175.3044     350.6788      1.853     6.24     1058.426     61.88055     152.1937        17     1.497     0.913 -52.81   0
        11    662.8094      8.2122 307.6690457  +6.6981870     2233.499     4396.761     5815.971      87.7221     175.3743     350.4341      2.380     4.71      1062.55     61.88055     275.0863        29     1.582     1.181 -27.39  17
        12    202.1899      9.1153 307.8605391  +6.6823948     747.5363     1732.069     1570.681      87.5823     175.2345     350.8884      2.426     6.52     1086.497     61.88055     127.7964         7     1.374     0.868 -51.51  16
        13     69.5536      5.4502 307.9158105  +6.6794544     2323.806     4657.506     5301.994     88.00102     175.4442     327.0292      2.071     5.15     1086.716     61.88055     266.1174        33     1.657     1.257 -47.49  16
        14    160.4543      3.0273 307.8780984  +6.6835077     3633.375     7084.136     7423.272      87.7221     164.2623     293.2068      2.049     5.60     1086.457     61.88055     394.8888        35     1.819     1.181 -30.97  24
        15    952.2130      4.3528 307.5488366  +6.7094305      666.178     1371.171     1369.602     87.30204     174.9546     312.6628      2.175     3.47     1050.843     61.88055     101.5244         6     0.726     0.638 -55.19  16
        16    787.1803      2.0090 307.6175398  +6.7048990     910.9885     1520.577     1639.829     84.59323     150.1544     276.0733      1.860     5.12     1055.839     61.88055     129.7473        10     1.378     0.600 -30.86  24
        17    823.9408    994.4136 307.5688333  +6.2963398     2115.086     3315.753     3457.953     87.30203      175.514     350.7487      1.635     4.27     1107.864     61.88055     335.2766        19     1.491     0.800 -30.26   0
        18    820.3589   1023.0011 307.5693595  +6.2844160     1009.209      1533.99     1352.493     84.15755     149.9911     275.8513      1.522     4.84     1109.583     61.88055     163.5145         9     1.448     0.458 -25.95  24
        19    759.6019   1023.1107 307.5945991  +6.2823458     6805.898     9467.717     9919.454     82.68872     148.2656     273.7555      1.456     4.50     1109.782     61.88055     1010.771        22     1.424     0.809 -19.58  24
        20    555.3403   1023.4119 307.6794539  +6.2754051     2738.161     3666.771     3923.452     79.51591     143.6482     268.6044      1.276     3.53      1112.27     61.88055     580.9686        15     1.288     0.714 -14.38  24
        21    429.4044   1022.9856 307.7317901  +6.2713718     1050.703     1335.587     1149.503     84.73795     150.3175     276.2508      1.506     6.22     1112.657     61.88055     126.0288        13     1.149     0.946   3.04  24
        22    305.3416   1022.5638 307.7833469  +6.2673941     13120.74     20014.34     21238.25     88.00102     156.7814     283.7343      1.733     5.52     1115.167     61.88055     1762.765        44     1.975     0.956 -25.99  24
        23    772.1152    992.4450 307.5904325  +6.2954256     6405.601     10524.66     11650.35     88.00102      175.514     351.0629      1.786     4.56     1108.525     61.88055     900.7843        35     1.755     0.955 -34.85   0
        24    558.7291    991.7310 307.6791148  +6.2885999     874.9284     1655.454     1604.984     88.00102     175.7233      351.028      1.839     6.56     1111.898     61.88055     145.3594        11     1.599     0.756 -39.23   0
        25    241.4251    991.1508 307.8109641  +6.2782238     1175.991     1916.423     1993.315      87.5823     175.6536     350.9582      1.688     4.99     1114.314     61.88055      167.819        15     1.175     1.039 -28.71   0
        26    206.2337    991.3892 307.8255765  +6.2769460     855.2223     1468.633      1076.77     87.44228     175.3045     350.8884      1.731     5.63     1114.173     61.88055     121.7651        10     1.470     0.609 -37.46   0
        27     66.5957    989.6515 307.8836481  +6.2729797     2432.111     4027.801     4027.902     87.30204     175.3743     350.6089      1.780     4.85     1114.495     61.88055     334.3411        22     1.608     0.934 -31.48   0
        28    960.3060    987.4713 307.5124079  +6.3037466     6795.318     10638.03     11119.91     87.86167     175.6536     351.0629      1.684     4.51     1102.453     61.88055     973.2299        34     1.629     0.963 -28.69   0
        29    643.4850    981.5460 307.6442438  +6.2956355     506.7915     769.3486     686.4399     88.00102     175.5838     351.2374      1.857     3.68     1111.205     61.88055     120.5364         5     0.918     0.559 -46.69   0
        30    934.0159    979.1232 307.5236119  +6.3063189     2094.376     3365.718     3666.212     87.44228     175.3044     350.9233      1.671     5.00     1104.142     61.88055     311.9869        19     1.552     0.777 -35.82   0
        31    793.6987    975.8217 307.5820243  +6.3030091     1313.316     2118.224     2191.978     87.86167     175.3044     350.8185      1.571     4.36     1107.392     61.88055     233.2039        14     1.512     0.674 -39.36   0
        32    654.7813    975.1938 307.6397644  +6.2986355     4171.605     6899.168     6899.787      87.5823     175.2345     350.8884      1.723     4.34     1110.759     61.88055     610.1343        28     1.633     0.934 -33.69   0
        33    267.0916    975.4818 307.8008309  +6.2855536     3702.301     6329.862     6790.008      87.7221     175.8627     351.1328      1.810     4.62     1114.425     61.88055     466.6718        32     1.702     1.029 -33.56   0
        34   1004.0233    974.5771 307.4946765  +6.3105252     823.3278     1425.041     1464.944     87.44228     175.4442      351.028      1.513     5.11     1099.042     61.88055     146.7224        10     1.425     0.519 -24.18   0
        35    477.2372    973.7471 307.7135799  +6.2933025     995.8484     1726.505     1440.627     87.86167     175.5838     351.0978      1.824     4.73     1112.211     61.88055     132.2667        11     1.197     0.644 -11.80   0
        36     35.9988    972.9703 307.8969252  +6.2788403     1978.081     3568.692     3755.781     87.30204     175.3743     350.8535      1.977     4.94     1113.728     61.88055     276.4412        22     1.634     0.897 -22.53   0
        37    886.7123    971.4518 307.5435245  +6.3079120      1048.93     1612.682     2102.948     88.00102     175.4442     351.1676      1.820     6.32     1105.212     61.88055     133.8411        12     1.647     0.682 -40.08   0
        38    957.4825    969.1059 307.5141982  +6.3112363     837.7502     945.5142     517.4167      87.7221     175.9324     351.2025      1.395     6.06     1102.155     61.88055     114.1125        10     1.263     0.817 -36.79   0
        39    978.5882    969.3904 307.5054191  +6.3118210     592.3781     936.3751      1177.21      87.7221     175.3743      351.028      1.562     4.63     1100.724     61.88055     85.92102         6     1.237     0.491 -28.71   0
        40    579.1130    967.7696 307.6714540  +6.2991749      1409.35     2274.385     2494.081     88.14015     175.3044     350.9582      1.855     5.60      1111.52     61.88055     182.7233        15     1.608     0.693 -30.20   0
        41   1011.2388    967.2001 307.4919262  +6.3138114     722.1152     1381.861     1230.453     86.87994     175.3044     350.7836      1.866     5.58     1098.671     61.88055      137.485         8     1.441     0.866 -15.49   0
        42    618.4551    964.1548 307.6552297  +6.3019812     1148.644     1976.847      1919.46     88.00102     175.5838     351.0629      1.931     4.86      1111.13     61.88055     175.6079        10     1.238     0.679 -28.50   0
        43     68.2878    965.1823 307.8837747  +6.2831399      667.128     1128.487     1442.951      87.7221     175.3044     350.8884      1.881     5.17     1113.678     61.88055     85.17432         6     1.114     0.680  -2.80   0
        44    298.6492    961.9268 307.7881783  +6.2922076     1249.154     2178.054     2550.109     88.00102     175.6536     351.0978      1.848     5.68     1114.365     61.88055     166.9257        14     1.453     0.816 -47.02   0
        45    765.5135    957.6993 307.5943453  +6.3095528     915.9831     1664.636     1376.911     88.00102     176.0717     351.1328      1.791     5.58     1107.306     61.88055     116.4211         9     1.163     0.755 -32.63   0
        46    902.9778    954.3710 307.5373405  +6.3155066     6624.871     10384.58     10268.59     87.44228     175.3743     350.9233      1.638     4.45      1103.83     61.88055     923.4631        28     1.618     0.838 -31.42   0
        47    140.3596    956.0551 307.8541412  +6.2893268     518.7801     914.7685     1458.534     87.86167     175.6536     351.0978      2.296     4.21     1113.744     61.88055     83.59033         5     1.075     0.470 -25.92   0
        48    438.8810    951.7750 307.7302582  +6.3010926     1967.323      3329.87     3628.413      87.7221     175.3044      351.028      1.838     5.95     1112.057     61.88055      243.199        21     1.696     0.829 -27.67   0
        49    340.6637    950.0999 307.7711223  +6.2984979     8330.591     14439.29     15761.61     88.00102     175.6536     351.0629      1.860     4.40     1113.597     61.88055     1123.901        43     1.753     1.128 -35.93   0
        50    260.6964    949.0465 307.8043824  +6.2962547     6211.717     10593.94     11077.65     88.00102      175.514     351.2374      1.812     4.49     1114.212     61.88055     761.6755        37     1.686     1.091 -33.73   0
        51    588.4847    943.9357 307.6683641  +6.3093293     975.2116     1817.774     1870.374     88.14015     175.7233     351.0978      1.916     6.40     1111.078     61.88055     165.2563        12     1.409     0.850 -40.47   0
        52    773.4289    942.3770 307.5915723  +6.3161436      572.488     863.1133     1177.946     87.44228     175.3743     350.8884      1.825     4.18     1106.425     61.88055     93.22668         5     0.984     0.506 -43.24   0
        53    919.1095    939.5923 307.5311345  +6.3221462     947.9652     1261.724     1213.715      87.5823     175.2345     350.8535      1.509     5.53     1102.671     61.88055     163.0073        10     1.327     0.649 -29.45   0
        54    222.3843    939.8221 307.8206123  +6.2987798     458.4379     653.6938     411.7571      87.7221     175.3743     350.9931      1.349     3.39      1113.97     61.88055     91.96362         5     0.782     0.426 -69.06   0
        55    875.2116    938.7659 307.5494024  +6.3210259     704.6423     1171.607      1489.99     87.44228     175.3743     350.8535      1.506     2.93     1103.641     61.88055     105.0792         6     0.732     0.569 -43.18   0
        56    986.2415    935.3177 307.5033840  +6.3261452     750.3903     1323.566     1811.525     88.00102     175.5838     350.9931      1.974     5.53     1100.071     61.88055     106.0919         8     1.068     0.809  53.52   0
        57    755.2432    932.4262 307.5994637  +6.3196463     1462.389     2418.914     2971.884      87.5823     175.5838     350.9582      1.794     5.62     1106.788     61.88055     205.6074        16     1.502     0.782 -32.50   0
        58      6.3540    929.9889 307.9106991  +6.2955918     766.5987     1427.419     2507.456     87.44228     175.3743     336.4117      2.093     5.82     1111.234     61.88055      84.9978        10     1.264     0.755 -39.54  16
        59    986.5809    928.1078 307.5034851  +6.3291336     1215.278     1799.135         2920     87.86167     175.3044     350.8884      1.612     3.37     1099.958     61.88055     203.4043        11     1.072     0.660 -37.28   0
        60    619.7421    928.8661 307.6558850  +6.3165955     881.2837      1307.59      822.149     88.14015      175.514     351.0629      1.541     3.44      1110.22     61.88055     120.8578         5     0.991     0.344 -43.32   0
        61    540.6339    928.5416 307.6887653  +6.3140875     1006.842     1591.359      1372.58     87.86167     175.5838     350.9931      1.768     4.47     1111.272     61.88055     154.8254        10     1.094     0.763 -24.13   0
        62    673.4058    926.0175 307.6336835  +6.3195630     2443.782     3647.876     3596.651      87.5823     175.2345     350.8884      1.661     4.77     1108.192     61.88055     319.8728        20     1.504     0.835 -32.87   0
        63    964.5731    923.7962 307.5127747  +6.3301818     723.8657     1374.933     2132.397     87.44228     175.3743     350.8884      2.414     6.01      1100.49     61.88055     113.7034         9     1.637     0.621 -29.98   0
        64    834.4504    922.1751 307.5668973  +6.3265190     893.8348      1549.34     1679.609      87.5823     175.5838     350.9582      1.731     4.06     1103.757     61.88055     163.9565         9     1.131     0.655 -14.31   0
        65    213.9968    921.0648 307.8247321  +6.3062437     1877.271     3633.897     4122.833     87.30204     175.3044     350.8185      2.091     6.09     1113.795     61.88055     222.6343        25     1.743     0.991 -28.30   0
        66     88.0926    921.3174 307.8770336  +6.3019166      1748.23     3019.539     2954.012      87.7221     175.9324     351.2025      1.806     4.78     1112.812     61.88055     247.7074        20     1.477     0.904 -31.10   0
        67    951.8727    921.2903 307.5181361  +6.3307940      896.951      1357.39     1403.099     88.00102     175.8627     351.0629      1.625     4.57     1100.791     61.88055     163.0686         8     1.284     0.462 -23.47   0
        68     70.6287    921.9903 307.8842665  +6.3010526      2532.94     4432.067     4556.978      87.5823     175.3743     350.8884      1.883     4.37     1112.473     61.88055     292.4832        26     1.416     1.149 -55.12   0
        69    668.2855    915.0543 307.6361806  +6.3239190     6126.211     10344.94     11553.69     88.00102      175.514     351.2374      1.806     4.29     1107.969     61.88055     847.2455        35     1.702     1.007 -32.39   0
        70    353.3831    917.0352 307.7669555  +6.3125765     712.2863     1177.777     1283.208      87.5823     175.3743     350.8185      2.108     5.53     1112.767     61.88055     106.2471         8     1.238     0.696  -6.47   0
        71    805.7434    916.0511 307.5790316  +6.3280912     638.4535     1230.915     1567.317     88.00102     175.5838     351.0629      1.693     4.02     1104.176     61.88055     112.3119         6     0.925     0.499 -53.08   0
        72     28.6842    913.8304 307.9019698  +6.3030136     944.8844     1901.378     2091.511     88.00102     175.3743     350.9233      2.109     6.66      1111.52     61.88055      119.234        11     1.416     0.878 -37.79   0
        73     41.6838    911.9489 307.8966327  +6.3042270     1067.517     1514.492     920.0518     88.00102      175.514     351.1676      1.537     5.82     1111.761     61.88055     161.4135        13     1.280     0.804 -35.66   0
        74    905.9877    911.3436 307.5375367  +6.3333740     2572.522     4285.738     4369.409     87.30203      175.514     350.7137      1.676     5.07     1101.786     61.88055     339.3132        20     1.553     0.780 -32.04   0
        75    351.3505    908.3356 307.7680942  +6.3161006     13529.91     24279.41     26149.95     87.86167      175.514     351.0978      1.913     4.50     1112.798     61.88055     1609.884        49     1.809     1.180 -32.11   0
        76     86.0639    909.3347 307.8782826  +6.3067962     1000.172     1480.503     1373.364     88.00102     175.5838     351.0629      1.557     5.45     1112.602     61.88055     152.9978        12     1.301     0.643 -29.68   0
        77    936.9286    909.5680 307.5247397  +6.3351371     504.1764     513.0626     269.2577     87.86167     175.5838      351.028      1.244     3.93     1100.861     61.88055     95.35522         5     0.901     0.491   5.09   0
        78    222.1078    907.8181 307.8218106  +6.3119852     921.5358     1616.417     1832.409     87.86167     175.3044     350.9233      2.052     5.54     1113.754     61.88055     117.8184        11     1.351     0.640 -13.15   0
        79    429.1490    899.1093 307.7360810  +6.3225135     897.7573     1564.453     1048.802     88.00102     175.3743     351.2374      1.818     6.55      1111.23     61.88055     142.8201        14     1.468     0.877 -35.52   0
        80    114.7712    899.0402 307.8667044  +6.3120102     1328.935     2291.869     2716.348      87.5823     175.3044     350.9233      1.820     4.95     1112.818     61.88055     164.7687        18     1.426     0.906 -35.71   0
        81    683.0132    895.0948 307.6307337  +6.3326521     687.2076     1253.662     1460.124      87.7221     175.3044     350.8884      2.010     4.99     1106.905     61.88055     124.3439         8     1.232     0.573 -24.13   0
        82    896.3276    892.9470 307.5421693  +6.3406488     1820.363     2815.456     2898.208     87.86167     175.5838      351.028      1.705     4.70     1101.517     61.88055     246.7795        16     1.361     0.818 -23.58   0
        83     98.3248    892.5040 307.8737590  +6.3141571       2158.2     3830.175     4394.636      87.5823     175.7931     351.0978      1.957     4.92     1112.592     61.88055     266.7242        25     1.575     1.031 -35.96   0
        84    867.0948    892.5396 307.5543300  +6.3398437     1857.995     3023.521     2766.339     87.86167     175.5838     351.1676      1.720     4.49     1102.411     61.88055     269.6804        16     1.380     0.743 -27.44   0
        85    830.4447    891.8873 307.5695810  +6.3388922     2926.988     4438.549     4853.284     88.00102     175.4442     351.0629      1.628     4.10     1103.095     61.88055     442.7611        24     1.620     0.803 -35.00   0
        86    566.3845    883.4943 307.6795859  +6.3335486       283451     496454.3     532555.2      87.7221     175.3743     350.8884      1.885     4.38     1109.371     61.88055     35687.67       156     1.947     1.336 -34.27   0
        87    410.7281    886.1555 307.7441727  +6.3272461     6358.653     11564.86     12037.04     87.86167     175.5838     351.0978      1.920     4.54     1111.134     61.88055     808.3081        40     1.753     1.137 -32.14   0
        88    653.8099    886.3354 307.6431634  +6.3352946     985.9359     1461.885     1448.995     87.44228     175.3743     350.9233      1.647     5.34     1107.293     61.88055     129.4728        11     1.371     0.831 -14.19   0
        89    353.8873    884.5313 307.7678450  +6.3260146     10336.48     18462.66      19494.1     88.14015     175.8627     351.0978      1.934     4.38      1112.72     61.88055     1239.554        49     1.806     1.210 -32.72   0
        90    672.2040    880.7212 307.6357096  +6.3382266     3136.158     5459.951     6007.411      87.5823     175.0246     350.7836      1.869     4.82     1106.623     61.88055     383.7535        28     1.643     0.965 -29.88   0
        91    904.5069    879.5242 307.5392220  +6.3464638     5033.437     8122.252     8698.785     87.86167     175.7233     351.0629      1.798     4.41     1100.827     61.88055     704.0857        35     1.794     1.036 -24.79   0
        92    742.7510    877.6142 307.6065004  +6.3418629     608.1261     1204.464     410.8839     87.30204      175.514     350.7487      1.863     2.33     1104.909     61.88055     148.0786         4     0.731     0.343 -35.49   2
        93    647.1738    874.5280 307.6463190  +6.3399486     2918.489     4908.352     5806.099      87.5823     175.4442     350.9582      1.794     4.48     1107.034     61.88055     397.9679        23     1.550     0.907 -22.84   0
        94    962.5295    872.8685 307.5153354  +6.3511433     706.7051     1225.339     1150.961     88.00102     175.7233      351.028      1.854     5.32     1098.382     61.88055      131.371        10     1.424     0.561 -45.28   0
        95    835.5989    873.6271 307.5680538  +6.3466040     1431.515     2290.716     2557.288     87.58231     175.2345     350.8535      1.708     6.07     1102.546     61.88055     189.7003        16     1.496     0.812 -34.64   0
        96    638.3307    873.4916 307.6500284  +6.3400814     951.6096     1478.553     2214.376     88.00102     175.7233     351.0629      2.029     6.12     1107.173     61.88055     117.5408        11     1.245     0.845 -14.80   3
        97    639.8912    869.4565 307.6495160  +6.3417996     1817.488     3121.561     3854.803     87.86167     175.4442     351.1676      1.985     5.54     1106.955     61.88055       235.04        19     1.535     0.927 -37.13   2
        98    923.4222    867.3755 307.5317706  +6.3521100     3177.546     5014.836      5807.43     87.44228     175.3743     351.0629      1.724     4.38     1099.746     61.88055     434.3702        22     1.548     0.862 -28.44   0
        99    333.9366    867.8669 307.7766982  +6.3322276     855.4532     1446.496     1413.093     88.00102     175.5838     351.0978      1.619     5.15     1112.953     61.88055     107.5674         9     1.219     0.615 -25.74   0
       100    381.7512    863.4681 307.7569795  +6.3356445     2206.857     4073.859      4557.94     88.00102      175.514     351.0629      2.057     5.17     1111.654     61.88055     262.5743        24     1.641     0.960 -31.83   0
       101    517.8296    853.2945 307.7007806  +6.3443963     2508.719     4362.231     4683.241     88.14015     175.3044     350.9582      1.869     4.86     1109.161     61.88055     340.5487        26     1.687     0.954 -36.35   0
       102    862.7750    852.2771 307.5574796  +6.3563252     1003.354     1700.996     2098.739      87.5823     175.4442      351.028      1.763     5.86     1100.931     61.88055     127.8193        12     1.340     0.721 -48.56   0
       103    564.8793    849.3041 307.6813650  +6.3476161      4901.22     8880.483     9749.575      87.7221     175.8627     351.0978      1.953     4.59      1107.83     61.88055     639.1998        34     1.790     1.049 -31.68   0
       104    572.3921    848.5654 307.6782682  +6.3481721     1137.036     2083.212     2551.571     87.44228     175.3743     350.8185      2.172     5.45     1107.598     61.88055      146.381        14     1.226     0.867 -51.81   0
       105    900.0715    847.5236 307.5421413  +6.3595301     1228.449     2122.447      2066.21     88.27907     175.8627     351.0629      1.831     6.58     1099.406     61.88055     184.6675        16     1.579     0.769 -32.88   0
       106    482.9762    848.3784 307.7154289  +6.3452612     1394.215     2529.486     2823.534      87.5823     175.3743      351.028      1.988     5.57       1109.5     61.88055     154.3564        18     1.368     0.971 -15.26   0
       107    124.5213    847.5082 307.8643998  +6.3336150     1173.681     2043.744     1501.615      87.7221     175.8627     351.1328      1.791     6.55     1112.353     61.88055     129.9061        15     1.455     0.827 -25.07   0
       108    700.6522    846.4103 307.6250450  +6.3533436     718.7571     1181.773     1276.587     87.30204     175.4442     350.7836      1.876     4.24     1104.028     61.88055     108.6007         6     1.079     0.476   7.44   0
       109    535.5270    843.1603 307.6937690  +6.3491723     16153.57     28799.61     30792.02     87.86167     175.6536     351.1328      1.918     4.56      1108.34     61.88055     2037.227        53     1.845     1.177 -33.52   0
       110    949.0624    841.3907 307.5219896  +6.3636932     3504.539      5773.84     5925.775     87.30203     175.3743     350.8185      1.690     4.34      1097.39     61.88055     507.5359        26     1.645     0.846 -37.76   0
       111    328.0607    832.0341 307.7803516  +6.3468267     2572.019     5001.823     5773.072     87.86167     175.6536     350.9931      2.045     5.28     1111.921     61.88055     312.2985        32     1.794     1.121 -34.25   0
       112     46.2752    833.8069 307.8973752  +6.3366461     1312.443      2103.04     2107.574      87.5823     175.0246     350.9233      1.728     4.12      1111.24     61.88055     194.5625        15     1.157     0.906 -40.03   0
       113     75.0863    834.3660 307.8853854  +6.3373825     3204.422     3520.487     3491.611     88.00102     175.4442     351.0629      1.095     3.54     1111.654     61.88055     1165.792         6     1.184     0.305  19.00   0
       114    793.6262    827.6506 307.5870426  +6.3641902     48737.16      81851.9     86403.28      87.5823     175.6536     350.9582      1.798     4.31     1101.434     61.88055     6243.577        68     1.816     1.129 -32.84   0
       115     28.3761    830.1606 307.9049359  +6.3375506      1742.39     2994.118     3062.145      87.5823     175.3044     350.8185      1.826     4.44     1110.979     61.88055     250.4171        20     1.394     0.950 -35.87   0
       116    732.2218    829.0852 307.6125104  +6.3615505     703.3868     989.3297     591.0176     87.86167     175.2345     350.9931      1.647     5.72     1102.451     61.88055     79.10474        11     1.304     0.707 -18.80   0
       117    435.8914    826.6406 307.7357280  +6.3526625     695.1323     1335.105     933.2347     88.00102      175.514     351.1328      1.984     5.04      1109.23     61.88055     104.6451         7     1.015     0.708  26.91   0
       118    250.3541    804.2383 307.8135806  +6.3557008     773991.5      2143167      2453194      87.7221      175.514     350.9582      2.552     7.63     1112.565     61.88055     63580.35       573     2.652     2.174 -59.83   4
       119    918.8228    822.8634 307.5351786  +6.3703372     7839.892     12980.72     13930.23      87.5823     175.5838     350.9233      1.725     4.49     1097.205     61.88055     1113.298        34     1.706     0.931 -30.49   0
       120    721.9105    822.2939 307.6170240  +6.3640109     18317.28     32224.13     34696.96     88.00102     176.1412     351.1328      1.887     4.48     1102.142     61.88055     2379.818        52     1.831     1.153 -30.25   3
       121    715.6032    818.7972 307.6197627  +6.3652444     74397.16     130116.5     139107.6     87.30204     175.0946     350.8535      1.872     4.42     1102.012     61.88055     9364.468        86     1.880     1.224 -33.75   3
       122    360.4838    819.7564 307.7672944  +6.3529818     16137.81      30181.9     32774.22     88.00102     175.5838     351.0629      2.003     4.58     1110.705     61.88055     1811.262        61     1.877     1.343 -33.23   0
       123    422.4035    817.5722 307.7416390  +6.3559558     17364.58     32524.72     34791.41     87.44228     175.3045     350.8884      1.971     4.53     1109.233     61.88055     1992.568        58     1.860     1.287 -35.05   0
       124    410.1172    819.7747 307.7466698  +6.3546353     1078.088     2008.679      2400.54     87.86167     175.3044     351.0629      2.306     6.60      1109.55     61.88055     134.1713        15     1.571     0.778 -38.61   0
       125    655.9810    813.7886 307.6447071  +6.3653231      5096.42     9237.647     10757.18      87.5823     175.3044     350.9582      2.088     5.17     1102.531     61.88055     739.6316        45     2.737     1.043 -36.48   0
       126    959.4993    816.4800 307.5184900  +6.3743269     2021.521     3339.037      3142.15     87.86167      176.002     351.0978      1.784     5.10     1095.912     61.88055     246.9048        22     1.584     0.866 -37.25   0
       127    915.7725    814.3699 307.5367318  +6.3737428     6331.124     10571.45     11675.55     87.44228     175.3044     350.8185      1.786     4.47     1096.723     61.88055     870.4094        31     1.629     0.971 -32.89   0
       128    889.3398    814.7806 307.5477021  +6.3726932     604.4642     754.5443     574.0558      87.5823     175.4442     350.9233      1.189     2.32     1097.499     61.88055     120.5775         5     0.724     0.433 -70.69   0
       129    444.9779    811.3250 307.7324697  +6.3592905     1285.111     2607.246     3194.474      87.5823     175.4442     350.9931      2.340     7.81      1108.49     61.88055     159.5707        20     1.753     0.973 -21.92   0
       130    609.8694    805.4457 307.6641498  +6.3672287     823.2177     1332.177     907.2731     88.00102      175.514     351.0629      1.812     5.55     1103.242     61.88055     110.8716        10     1.442     0.603 -36.86   0
       131    885.3043    804.7535 307.5497164  +6.3766992     710.8717     994.5684     1196.179     88.00102      175.514     351.2374      1.639     3.66     1096.905     61.88055     132.9327         5     1.038     0.372 -73.73   0
       132    691.6359    803.3861 307.6302416  +6.3708084     1947.223     3310.609      3092.51     87.44228     175.3743     350.8185      1.788     5.12     1101.087     61.88055     243.5055        21     1.548     0.869 -18.53   0
       133    425.3205    800.2472 307.7410123  +6.3632071     42112.33     78555.23     85162.73     88.00102     175.6536      351.028      1.993     4.73     1108.646     61.88055     4862.871        76     1.932     1.319 -33.47   0
       134    136.1739    804.2694 307.8610234  +6.3518595     876.3226     1575.794     1672.208      87.5823     175.4442     350.9931      1.749     5.50     1112.048     61.88055     123.4407        11     1.517     0.561 -10.74   0
       135    543.0706    799.2474 307.6921166  +6.3675568      5408.31     9959.337     10261.08     88.00102      175.514     351.0629      1.953     4.71     1105.926     61.88055     658.2842        39     1.776     1.132 -33.95   0
       136    459.9077    797.8784 307.7267202  +6.3653421     3432.576     6806.684     7512.633      87.7221     175.8627     351.0978      2.161     4.80     1107.544     61.88055     404.7656        35     1.725     1.181 -27.33   0
       137    788.1964    795.8032 307.5903713  +6.3771598     9765.506     16819.74     18309.62     87.30203     175.0946     350.8535      1.813     4.36      1099.95     61.88055     1254.076        43     1.795     1.055 -31.92   0
       138     18.1544    792.2808 307.9104681  +6.3528479     972.8134     1669.649     1328.598     88.00102     175.5838     351.0629      1.934     4.62     1110.858     61.88055     129.4482         8     1.090     0.555 -56.62   0
       139    456.4444    791.0624 307.7283896  +6.3680407      1682.71     3477.741     3555.339     88.00102      175.514     351.1328      2.056     5.72     1107.298     61.88055     234.5151        24     1.702     1.071 -24.71   0
       140    138.4924    779.0648 307.8609141  +6.3623444      1582.44     2976.743     3464.835     88.00102     175.7931     351.0978      2.113     5.37      1110.84     61.88055     224.9233        17     1.382     0.934 -40.12   2
       141    154.2755    788.2432 307.8540449  +6.3590841     2396.037     4743.501     4914.824     87.86167     175.6536     351.0978      2.068     8.97     1111.403     61.88055     263.2487        31     2.010     1.118 -29.66   3
       142    146.0209    787.9736 307.8574840  +6.3589185     8735.246     16928.86     18965.69      87.5823     175.3743     350.9931      2.093     4.96     1111.365     61.88055     1015.024        52     1.908     1.306 -28.75   3
       143    138.2422    785.2708 307.8608078  +6.3597735     2369.252     4230.841     5521.745     87.86167     175.5838     351.1328      2.096     4.66     1111.165     61.88055     281.0708        27     1.543     1.104 -17.88   3
       144    810.2368    789.7470 307.5814162  +6.3803951     982.6755     1706.702     2218.679     87.86167     175.5838     351.0978      2.022     5.95     1098.981     61.88055     154.4065        12     1.512     0.659 -32.62   0
       145    983.0094    784.4280 307.5097974  +6.3883443     1488.462     2194.004     2279.767      87.5823     175.3743     350.9233      1.610     4.93     1094.037     61.88055     209.3475        14     1.325     0.721 -38.27   0
       146    933.6409    784.3386 307.5303162  +6.3867384     6041.628     9653.274     10463.99     88.00102     175.5838     351.0978      1.762     4.52     1094.861     61.88055     785.7649        32     1.683     0.940 -34.33   0
       147    689.6094    781.9810 307.6318051  +6.3795794     1347.523     2449.529     3150.718      87.5823     175.2345     350.8884      2.088     5.24     1100.007     61.88055     219.6638        15     1.440     0.789 -27.80   0
       148    576.0939    781.3419 307.6789982  +6.3760536     1861.893     3286.593     3826.713     87.86167     175.5838     351.2723      1.955     6.25     1103.275     61.88055     259.3998        22     1.843     0.865 -30.13   0
       149    423.8699    780.9574 307.7422670  +6.3711236     946.1041     1797.752     1869.414     87.86167     175.5838     351.1328      2.044     5.19     1107.781     61.88055     138.2419        10     1.171     0.651 -69.61   0
       150    957.4062    775.9222 307.5207231  +6.3910047     2790.996     4901.259     4223.865      87.5823     175.0246     350.8185      1.819     4.65     1094.116     61.88055     368.9312        27     1.719     0.962 -29.28   0
       151    927.9416    776.3242 307.5329542  +6.3898581     2767.354     4762.751      4647.92     88.14015     175.6536      351.028      1.744     4.36     1094.653     61.88055     402.0743        25     1.673     0.882 -36.10   0
       152    680.1614    775.8325 307.6359385  +6.3818030     1165.866     2383.781     2886.615      87.5823     175.3743     350.8185      1.911     7.41     1099.802     61.88055     140.1486        19     1.634     0.940 -30.81   0
       153    988.4240    775.5612 307.5078453  +6.3921857     1788.026     2583.018     2742.232     87.58231     175.3045     350.8535      1.643     4.67      1093.54     61.88055     219.6273        15     1.334     0.747 -41.93   0
       154    827.3533    773.7429 307.5748420  +6.3875740     1165.173     1792.417     1355.038     88.00102     175.5838     351.2025      1.671     6.49     1097.177     61.88055      147.146        15     1.403     0.843 -36.18   0
       155    252.6802    770.9275 307.8137417  +6.3695331     1529.079     3167.415     4502.223     88.27907     175.8627     351.0978      2.342     6.47     1110.398     61.88055     194.3557        24     1.670     1.096 -33.06   0
       156    945.4701    766.4909 307.5260005  +6.3945019     1053.733     1439.938     1183.181     87.86167     175.7233     351.0629      1.653     5.11     1093.918     61.88055     143.8605        11     1.262     0.743 -47.61   0
       157    691.4083    763.9374 307.6316658  +6.3870901     811.2509     1760.038     2282.545     87.30203     175.3044     350.8535      2.448     6.54     1099.101     61.88055     133.0912        13     2.067     0.581 -70.63   0
       158    919.5275    764.5931 307.5368453  +6.3944221      1122.24     1903.131     2091.445     87.58231     175.0946     350.9931      1.794     4.51      1094.34     61.88055     156.3239        14     1.268     0.850 -59.77   0
       159    168.1949    766.2009 307.8490079  +6.3686523     705.9409     1264.002     1642.177     87.30203     175.2345     350.8185      1.707     2.96     1110.162     61.88055     112.5385         5     0.811     0.649  46.08   0
       160    972.4341    763.6198 307.5148916  +6.3965848     2224.528     3747.606     4382.382     87.44228     175.3743     350.8535      1.939     5.40      1093.26     61.88055     297.6007        21     1.607     0.866 -19.03   0
       161   1013.9115    757.0259 307.4978762  +6.4006873     1644.216      2831.81      2883.46     88.14015     175.3743     350.8884      1.801     4.57     1091.967     61.88055     230.0696        17     1.410     0.830 -38.92   0
       162    815.3980    755.5729 307.5804218  +6.3946785     1232.721     2032.247     1687.238     87.44228     175.3045     350.8535      1.756     4.69      1096.45     61.88055     197.7303        13     1.411     0.662 -32.82   0
       163    901.7969    752.6325 307.5446159  +6.3987706     1494.994     2531.729     2848.973     87.16157     175.3743     350.7487      1.719     4.44     1094.052     61.88055     213.0841        14     1.286     0.760 -35.20   0
       164    875.9604    748.1699 307.5555030  +6.3997530     906.7429     1317.397     1513.144     87.44228     175.3044     350.9233      1.523     4.76     1094.085     61.88055     144.4296         8     0.993     0.646 -19.33   0
       165    858.5580    744.3107 307.5628648  +6.4007669     1526.344     2565.248     2191.471     88.00102      175.514     351.0978      1.701     4.66     1094.175     61.88055     220.2635        16     1.340     0.826 -22.36   0
       166     57.6975    743.3341 307.8956977  +6.3743860      1924.39     3557.869      3735.13     88.00102     175.6536     351.0978      2.006     5.38     1109.974     61.88055     212.1879        20     1.486     0.943 -32.56   0
       167    123.1859    741.1373 307.8685598  +6.3774913      609.251     1362.833     1782.243     87.44228     175.3743     350.8535      2.638     4.37     1108.819     61.88055     84.64795         5     0.766     0.709 -60.30   0
       168    670.3442    731.7262 307.6415051  +6.3996879     4984.771     9167.289     9073.351     87.86167     175.4442     350.9931      1.920     4.60     1097.911     61.88055     618.7875        36     1.781     1.078 -35.33   0
       169    617.1548    730.8053 307.6636400  +6.3982925     1032.147     2125.215     2377.223     87.30203     175.2345     350.6788      2.208     6.53     1098.814     61.88055     132.3533        17     1.549     0.920 -26.14   0
       170    133.3579    727.8373 307.8647838  +6.3833243     2718.132     5507.626      6212.39      87.7221     175.5838     350.9233      2.123     5.47     1108.438     61.88055     312.1324        34     1.713     1.297 -31.25   0
       171   1007.3403    726.8480 307.5016211  +6.4129301     2421.467      3883.04     3628.537     88.00102     175.5838     351.1328      1.673     4.62     1090.447     61.88055     352.6687        18     1.496     0.765 -28.19   0
       172    644.2375    727.3242 307.6525027  +6.4006341     1618.559     2794.326     2468.996     87.86167     175.6536     351.0978      1.836     4.89     1098.157     61.88055     214.4521        22     1.622     0.918 -27.81   0
       173    787.1971    723.8412 307.5932098  +6.4068413     16357.65     29003.04     31402.48     87.30203     175.2345     350.7836      1.880     4.40     1095.391     61.88055     1974.527        55     1.864     1.159 -33.67   0
       174    917.0313    723.4638 307.5392659  +6.4113223     3220.607     5583.918     5902.833      87.7221     175.6536      351.028      1.852     4.44     1092.499     61.88055     431.5292        29     1.638     0.997 -31.16   0
       175    486.2660    724.3421 307.7182510  +6.3965878     1045.359     2057.207     1657.075     88.14016      175.514     351.0978      1.973     6.62     1102.875     61.88055     140.7023        14     1.353     0.909 -26.78   0
       176    515.1670    723.5512 307.7062675  +6.3978806     576.4922     797.6145     482.7383      87.7221     175.5838     350.9931      1.701     4.69     1101.987     61.88055     101.0715         6     1.255     0.497 -48.14   0
       177    288.8195    723.4437 307.8003315  +6.3903506     620.2388     1052.011      901.766     87.44228     175.4442     350.8884      1.702     4.12     1107.726     61.88055     118.0255         5     0.919     0.528  51.31   0
       178    260.7461    717.6171 307.8121946  +6.3918158     4515.007     9233.757     10803.95     87.44228     175.6536     350.7487      2.160     4.98     1107.708     61.88055      476.895        41     1.850     1.247 -31.47   0
       179    667.7351    716.6838 307.6430966  +6.4058121     5474.042     10046.22     10621.02     88.14016     175.8627     351.1328      1.953     4.56     1097.293     61.88055     644.6783        41     1.797     1.173 -32.21   0
       180    927.9067    708.6387 307.5352448  +6.4178061     881.5225     1466.478     1386.224     88.14015      175.514     351.1328      1.949     5.83      1091.68     61.88055     129.9226        12     1.430     0.669 -40.71   0
       181    739.5925    704.9763 307.6136288  +6.4130438     2841.463     5484.061     5876.565     87.44228     175.3743     350.8884      2.108     4.42     1095.366     61.88055     319.1464        32     1.582     1.222 -25.29   0
       182    695.2842    704.7836 307.6320490  +6.4116453     880.9851     1502.839     1514.023      87.5823     175.2345     350.9582      1.962     3.45     1096.245     61.88055     175.6143         6     0.842     0.714 -87.82   0
       183   1005.6874    701.5722 307.5031574  +6.4233122       8225.3     13428.94     14268.64     88.14016     175.3045     350.9233      1.772     4.61     1089.069     61.88055     1035.951        37     1.739     0.961 -28.98   0
       184    944.2167    702.1220 307.5286857  +6.4210399     2101.112       3524.4     3845.738      87.5823     175.3044     350.9233      1.836     5.38      1090.87     61.88055     285.7516        22     1.688     0.826 -24.98   0
       185     25.1477    701.6361 307.9106378  +6.3905101     1414.104     3021.276     3458.715     87.86167     175.5838     351.0978      2.360     7.60     1109.727     61.88055     149.9844        23     1.728     1.005 -32.81   0
       186     83.2263    696.6361 307.8866734  +6.3945248     19040.13     37658.63     41215.89      87.5823     175.3743     350.8185      2.092     4.81     1108.307     61.88055      2100.02        64     1.928     1.379 -36.83   0
       187    544.2474    697.7450 307.6950539  +6.4095083     1470.099     2838.117     2583.477     88.00102     175.5838     351.1328      2.031     6.40     1100.013     61.88055      171.239        22     1.597     1.037 -29.33   0
       188    513.0164    694.5748 307.7081397  +6.4097735     1086.083     1926.482     1843.177      87.7221     175.4442     350.9931      1.852     4.87     1100.828     61.88055     135.0034        12     1.040     0.917  -9.72   0
       189    933.7797    693.8041 307.5333029  +6.4241272     833.0292     1343.118      1503.51      87.5823     175.2345     350.8535      1.631     3.82     1090.742     61.88055      170.239         6     1.076     0.477 -22.65   0
       190    553.6491    690.8004 307.6913812  +6.4126900     777.2935     1321.019      1334.84     87.16157     175.1646     350.5739      1.582     4.97      1099.34     61.88055     111.0829         9     1.190     0.587 -51.11   0
       191    729.0742    688.6063 307.6185516  +6.4194525     2877.949     5017.404     4755.085      87.5823     175.0946     350.8884      1.844     4.83     1094.816     61.88055     387.3671        27     1.684     0.973 -34.23   0
       192    751.1420    686.8928 307.6094383  +6.4208961     3346.016     6201.496     6426.543     87.86167      175.514     351.2025      1.976     4.96     1094.389     61.88055     406.6246        34     1.860     1.055 -33.01   0
       193    582.5689    684.7349 307.6795675  +6.4161608     2415.875     4790.762     5052.492      87.7221     175.6536     350.9931      2.034     5.32     1097.952     61.88055     277.2482        33     1.793     1.127 -40.57   0
       194    243.3387    684.3322 307.8205552  +6.4049760     1114.971     2067.874      2676.75     88.00102      175.514     351.0629      2.400     6.78     1107.307     61.88055     148.3547        17     1.582     0.978 -42.86   0
       195    419.0254    685.0929 307.7475202  +6.4105454     1034.968      1624.13     1230.692     88.14015     175.3044     350.8884      1.574     4.99     1103.833     61.88055     130.1011         9     0.954     0.755  24.58   0
       196    327.1313    684.3195 307.7857346  +6.4077886     1007.688     1655.231      1862.63     88.14015     175.8627     351.0629      1.751     4.13     1106.026     61.88055     143.9875        11     1.037     0.838  16.39   0
       197   1022.9901    683.3810 307.4965777  +6.4313993     3835.414     4625.518     4276.761     84.59323     150.0728      276.162      1.304     3.67      1087.49     61.88055     593.4214        17     1.158     0.809 -52.22  24
       198    989.3475    681.9260 307.5106085  +6.4308811     7202.902     12054.05     12468.05     88.00102     175.6536     351.0978      1.791     4.53     1088.457     61.88055     951.1206        36     1.722     1.003 -32.21   0
       199    709.5550    680.3177 307.6269429  +6.4222239      840.634     1191.076     1038.308     88.00102     175.5838      351.028      1.495     5.42       1094.8     61.88055     132.8002         9     1.062     0.779   8.27   0
       200    434.9522    676.4221 307.7411945  +6.4146585     2121.755      4166.38     4634.078      87.5823     175.5838     350.9233      2.160     5.04     1102.834     61.88055     245.8706        28     1.651     1.102 -45.93   0
       201    147.9741    675.5997 307.8604806  +6.4053838     17381.64     34699.48     37853.88      87.5823     175.2345     350.8535      2.105     4.88     1107.627     61.88055     1948.234        58     1.893     1.366 -32.73   0
       202    816.7437    675.6459 307.5825536  +6.4277272     1216.849     1937.479     2173.742     88.00102     175.5838     351.0978      1.755     4.16     1092.715     61.88055     171.3392        14     1.193     0.837 -49.17   0
       203    984.3033    664.8565 307.5132786  +6.4377618     6115.093     10890.16     12593.58     87.86167      175.514     351.3072      1.943     4.28     1087.628     61.88055      782.623        39     1.635     1.208 -31.00   0
       204     29.6128    664.6117 307.9100386  +6.4059474     709.5748     1352.194     1486.249     87.86167     175.3045     350.9931      1.915     5.60     1108.467     61.88055     96.37354         7     1.142     0.775 -52.89   0
       205    577.8873    660.2890 307.6823381  +6.4260986     35033.27     68796.05     74901.11      87.7221     176.0717     351.1676      2.095     4.95     1097.008     61.88055     4007.189        76     1.998     1.361 -33.57   0
       206    537.4748    661.2073 307.6991020  +6.4243690     509.4725     960.8004      305.971      87.5823     175.0946     350.9233      2.119     5.00     1098.571     61.88055     77.64062         6     1.629     0.434 -55.78   0
       207    185.7262    656.9005 307.8454259  +6.4143712     1815.247     3636.833     3429.629     87.44228     175.7233     350.9931      2.070     5.98     1107.254     61.88055     238.3434        24     1.554     1.114 -31.27   0
       208     78.8888    651.6045 307.8900030  +6.4129729     997.5415         1937     1667.198     87.44228     175.2345     350.7487      1.814     5.64     1107.432     61.88055     154.2894        12     1.336     0.718 -19.99   0
       209    475.1601    644.0690 307.7255780  +6.4293625     44463.11     90432.25     100111.8     87.86167     175.5838     351.1676      2.149     4.99     1099.757     61.88055     4910.937        88     2.022     1.463 -33.35   0
       210     18.9415    645.8846 307.9151086  +6.4133214     1392.689     2952.015     3608.465     88.00102     175.5838     351.1676      2.331     7.71     1107.904     61.88055      173.314        27     1.823     1.154 -32.74   0
       211    149.7158    639.5220 307.8609796  +6.4203389     994.5926     1947.837     589.6926     88.14016     175.9324     351.1676      1.901     6.54     1107.042     61.88055     137.8003        11     1.418     0.845 -24.75   0
       212    621.4459    635.8015 307.6650617  +6.4376648     621.9534     1241.054     1351.596     87.30204     175.2345     350.6089      1.819     3.46     1094.466     61.88055     128.6805         5     0.873     0.490 -83.37   0
       213    320.7228    633.4992 307.7901172  +6.4285583     1483.053     2899.929     3259.607      87.5823     175.7931     351.0978      2.004     8.18      1103.26     61.88055     154.5234        23     1.800     1.054 -24.89   0
       214    747.3215    627.4915 307.6130275  +6.4452968     4170.108     7547.954     7525.396      87.7221     175.8627     351.1328      1.944     4.60     1091.321     61.88055     502.3839        37     1.834     1.094 -37.68   0
       215    800.7048    622.7999 307.5909989  +6.4490140     10927.67     20188.27     21756.72     87.44228     175.1646     350.6089      1.977     4.56     1090.678     61.88055     1398.693        49     1.844     1.194 -32.34   0
       216    543.5308    622.6332 307.6978876  +6.4404994     844.0938     1873.627     2150.004     87.86167     175.5838     351.0978      2.303     7.37     1096.396     61.88055     105.4072        13     1.817     0.838 -51.49   0
       217   1018.5873    623.0440 307.5004350  +6.4561678     991.0146     1671.042     1887.894     87.44228     175.4442     337.1031      1.800     6.03     1083.244     61.88055     123.2008        12     1.408     0.726 -28.60  16
       218    624.8636    620.7617 307.6641486  +6.4439891     2121.019     4222.984      4207.12     88.00102      175.514     351.1328      2.079     4.86      1093.66     61.88055     270.9407        29     1.631     1.143 -24.50   0
       219    941.4633    617.0130 307.5326921  +6.4560921      955.715     1625.755     1988.352     87.44228     175.3743     350.8535      1.925     5.26     1087.108     61.88055     159.7711        10     1.206     0.649 -21.25   0
       220    383.0169    615.1215 307.7648503  +6.4382325      726.957     1398.677     1505.343      87.5823     175.3044     350.9582      1.955     5.46     1100.965     61.88055     109.6665         9     1.164     0.889 -27.46   0
       221    238.0106    614.6028 307.8251307  +6.4335893     1157.059     2347.194     3024.441      87.5823     175.2345     350.9582      2.341     6.25     1105.742     61.88055     139.4487        13     1.385     0.837 -31.50   0
       222    876.8940    605.8888 307.5599027  +6.4585356     2211.199     3986.355     3782.342     88.00102     176.0717     351.1328      1.851     4.94     1089.005     61.88055     252.4458        26     1.658     1.002 -31.60   0
       223    835.5399    603.5378 307.5771694  +6.4581287     1941.796     3390.415      3969.41     88.00102     175.5838     351.0978      1.856     5.03     1089.482     61.88055     213.3848        23     1.666     0.915 -35.51   0
       224    806.7283    599.3965 307.5892835  +6.4588786     1998.839      3947.91     4678.773     87.44228     175.1646     350.8884      2.158     4.97     1089.406     61.88055     254.4137        26     1.609     1.047 -34.12   3
       225    816.1044    594.6697 307.5855458  +6.4611429     122598.6     227751.3     246617.6     87.86167     175.6536     351.0978      1.994     4.67     1089.156     61.88055     13825.42       109     1.982     1.339 -34.43   2
       226    263.7269    598.6192 307.8149845  +6.4410510     5176.934     10885.56     11636.03      87.5823      175.514     350.9931      2.168     5.22     1103.111     61.88055     598.6207        43     1.794     1.343 -33.11   0
       227    750.7899    598.9803 307.6125467  +6.4571854     462.9318     725.9114     1775.909      87.5823     175.2345     350.9233      1.972     3.93     1089.901     61.88055     81.95251         5     0.849     0.521 -39.41   0
       228    197.8221    593.1570 307.8425588  +6.4410969     39248.71     83522.62     93371.94     87.44228     175.4442     350.8535      2.217     5.08     1105.164     61.88055      4062.16        89     2.061     1.508 -35.14   0
       229    121.9100    589.5170 307.8742300  +6.4400531     4284.985     8926.179      9085.78      87.7221     175.8627     351.1676      2.182     5.24     1105.509     61.88055     417.5586        43     1.853     1.323 -31.14   0
       230    986.5731    586.3490 307.5149743  +6.4702552     1326.977     2049.709      1858.61      87.5823     175.7233     350.9931      1.644     4.81     1083.327     61.88055     176.0499        16     1.447     0.846 -26.28   0
       231    852.7369    581.8737 307.5707513  +6.4676473     3523.302     6242.709     6756.303     88.27907     175.5838      351.028      1.843     4.62     1088.343     61.88055     454.4032        31     1.622     1.084 -35.21   0
       232    371.2082    580.2622 307.7709369  +6.4522310     11217.27      24223.3     26830.02     87.30204     175.3743     350.8535      2.225     5.13     1099.416     61.88055     1135.875        62     1.995     1.460 -35.73   0
       233    173.4574    579.1513 307.8531590  +6.4460627      1374.58     3162.104      3875.01     88.00102     175.5838     351.2025      3.102     7.27      1104.23     61.88055      167.771        27     1.777     1.315 -48.76   0
       234    248.9539    577.1422 307.8218513  +6.4494239     620.2314     1379.126     2051.248     88.00102     175.5838     351.1676      2.812     6.07     1102.477     61.88055     82.31201         7     1.318     0.787 -50.01   0
       235    806.5794    575.2770 307.5901577  +6.4688331     4512.191     8395.771     8828.093      87.5823     175.3045      351.028      1.943     4.55     1088.202     61.88055     595.9327        37     1.768     1.166 -29.76   0
       236    537.4955    575.0982 307.7020009  +6.4599257     4530.698      9237.02      9981.82     88.00102     176.2108     350.8884      2.141     5.17     1094.241     61.88055     469.6642        43     1.883     1.269 -33.44   0
       237    110.7475    576.0190 307.8793267  +6.4452518     717.0829     1382.397     1002.628     87.44228     175.6536     350.8535      1.870     6.14     1104.953     61.88055     106.5826         7     1.088     0.972  -0.44   0
       238    396.0554    571.8528 307.7608946  +6.4565351     1098.487     2212.395     2252.032     88.14015     175.5838      351.028      2.011     6.48     1098.656     61.88055     136.6461        14     1.501     0.786 -63.84   0
       239    184.5644    568.2920 307.8489110  +6.4509192     4836.146      10261.6     12620.77     88.14016     175.4442     351.0978      2.471     5.34     1103.203     61.88055      508.313        51     2.035     1.391 -32.79   0
       240    582.4031    568.1688 307.6835705  +6.4642876     1696.744     3267.032     3654.756     87.44228     175.3743     350.8185      2.095     5.20     1092.852     61.88055     236.0973        25     1.439     1.255 -33.52   0
       241    822.6777    567.9443 307.5837137  +6.4723975     1071.498      2384.23     2492.556     88.00102     175.5838     351.0629      2.334     6.14     1087.792     61.88055     160.6514        13     1.657     0.640 -53.20   0
       242    279.7926    564.7946 307.8094528  +6.4555559     56424.89     122779.9     136770.9     87.30203     175.3743     350.8884      2.252     5.23     1100.701     61.88055     5793.099        96     2.075     1.544 -35.86   0
       243     56.1774    567.1403 307.9023064  +6.4470857     3425.581     7315.327     7822.398      87.5823      175.514     350.9233      2.194     5.31     1105.385     61.88055     393.9419        40     1.761     1.417 -44.09   0
       244    263.9038    560.0014 307.8162185  +6.4570025     781.7438     1786.662     2069.708     87.44228     175.3044     350.6438      2.325     7.29     1100.886     61.88055     113.9634        12     1.786     0.834 -34.84   0
       245    802.8896    557.0462 307.5923053  +6.4762380     12424.71     22992.92      25014.6     88.00102     175.4442     351.2025      1.984     4.57     1087.311     61.88055     1524.006        51     1.901     1.196 -34.15   0
       246    978.9025    558.3956 307.5191023  +6.4815427     1320.914     1996.832     2019.816      87.7221     175.2345     350.7137      1.740     5.41     1082.673     61.88055     156.5903        15     1.379     0.749 -32.16   0
       247    506.5053    555.5629 307.7155407  +6.4669562      28068.8        60283     68872.91     88.14016     175.4442     351.2025      2.308     5.21     1094.093     61.88055     2811.511        86     2.136     1.577 -27.15   0
       248    219.2348    551.6531 307.8350658  +6.4589522     1406.393     2965.251      4036.75     87.86167     175.5838      351.028      2.432     5.98     1101.193     61.88055     184.4182        23     1.640     1.145 -31.75   0
       249     55.2777    552.1579 307.9031886  +6.4532417     930.3901     1530.938     1467.577     87.86167     175.5838     351.1328      1.759     4.75     1105.012     61.88055     122.9205         9     1.120     0.621 -80.32   0
       250    666.5043    550.5844 307.6492092  +6.4743569     2086.217     3921.232     4367.868      87.7221     175.3045     350.8884      2.007     6.42     1090.584     61.88055     224.8403        30     1.851     1.068 -37.70   0
       251    676.4424    550.1820 307.6450922  +6.4748548     998.0835     1847.307     2041.714     87.44228     175.3743     350.8535      2.004     7.25     1090.333     61.88055     132.6694        16     1.491     0.988 -30.03   0
       252    728.1412    549.3260 307.6236334  +6.4769333     950.5333      1769.44     1811.879     88.14015     175.5838     351.0629      1.921     5.84     1088.371     61.88055     132.2439        13     1.521     0.632 -32.64   0
       253     86.4508    549.1648 307.8903349  +6.4555243     475.7044     1067.654     1273.124     87.86167     175.5838     350.9931      1.734     3.46     1104.329     61.88055     76.46643         5     1.261     0.275 -35.32   0
       254    404.3206    546.2596 307.7583250  +6.4673795     1189.655     2383.928     2596.258     88.14016     175.5838     350.9931      2.063     6.59      1097.55     61.88055     159.9597        18     1.588     1.094  -3.32   0
       255    335.7267    544.5138 307.7868926  +6.4658038     2644.773     5415.672     5212.997     88.14016     175.9324     351.0629      2.134     5.35     1098.129     61.88055      311.519        34     1.701     1.256 -30.46   0
       256    150.8951    543.1585 307.8637557  +6.4601674     17576.37     36703.58     40552.74     88.00102      175.514     351.2025      2.179     4.96     1102.144     61.88055     1841.261        67     1.930     1.499 -35.01   0
       257    515.4945    544.1055 307.7121917  +6.4719876     1451.419     2759.731     3513.362     88.00102     176.2803      351.028      2.218     5.75     1093.208     61.88055     159.4156        26     1.558     1.158 -33.59   0
       258    879.0356    543.0440 307.5611276  +6.4845571     1254.042     2293.087     2483.159      87.7221      175.514     350.9233      1.951     5.86     1085.738     61.88055     170.0074        15     1.462     0.858 -32.68   0
       259    116.2198    541.4055 307.8782262  +6.4597275     1857.405     3918.716     4181.859      87.5823     175.2345     350.8535      2.135     5.20     1103.188     61.88055     211.8114        27     1.504     1.297 -64.23   0
       260    976.3214    537.6526 307.5208725  +6.4900222     4400.393      7350.57     7749.377     88.00102     175.5838     351.0629      1.770     4.46      1081.87     61.88055     598.6404        31     1.619     1.016 -29.35   0
       261     15.2466    527.5841 307.9206592  +6.4620435     17326.78     35756.96     39396.23     87.44228     175.4442     350.7836      2.164     5.01     1104.512     61.88055     1876.285        65     1.982     1.427 -38.84   0
       262    549.5883    530.3891 307.6984846  +6.4787910     914.8398     1635.961      1746.94      87.7221     175.3743     351.0629      1.832     5.45      1091.32     61.88055     101.3767        10     1.011     0.828 -48.65   0
       263    447.8728    524.2757 307.7409670  +6.4779142     28175.99     59381.01     65688.96     88.27907     175.8627     351.0978      2.224     5.23     1094.223     61.88055      2841.44        73     2.017     1.468 -34.49   0
       264    655.8223    523.8942 307.6545493  +6.4850213     8330.805     16850.52     18715.41     88.00102     175.3743     350.8884      2.160     5.03     1089.217     61.88055      913.324        51     1.953     1.290 -32.85   0
       265    296.3688    524.9099 307.8039138  +6.4725800     737.4296     1397.787     430.7589     88.14015     175.3743      351.028      1.977     3.86     1097.592     61.88055     127.8557         7     0.879     0.759  32.14   0
       266    213.0981    521.8527 307.8386258  +6.4710512     12168.35     27710.54      31282.4     87.86167     175.5838     351.3072      2.332     5.30      1099.04     61.88055     1218.971        73     1.999     1.657 -30.10   0
       267    178.8022    523.1895 307.8528342  +6.4693489     1011.096     2218.458     2192.811      87.5823     175.2345     350.8884      2.142     6.14     1100.457     61.88055     156.7008        17     1.508     1.159  -3.34   0
       268      1.3263    520.9097 307.9266710  +6.4643315     14203.09     18180.11     19904.65     76.37173     139.7569     264.0031      1.138     2.81     1104.219     61.88055     4251.267        31     1.526     0.654  89.88  24
       269   1022.1086    522.9319 307.5023359  +6.4976240     431.2405     651.6503     706.0187     88.00102     162.4621     291.0255      1.459     3.77     1079.618     61.88055      87.2959         5     1.544     0.264 -22.46  24
       270    989.9316    522.0055 307.5157415  +6.4969361     921.0389     1532.592     1836.848     87.44228     175.2345     350.8535      1.928     5.48     1080.529     61.88055     117.9519        10     1.202     0.706 -15.17   0
       271    831.3218    521.0010 307.5817016  +6.4920696     624.8791     1120.982     1323.846     87.16157     174.9546     350.8535      1.949     3.99     1085.449     61.88055     113.8953         5     0.858     0.532 -49.07   2
       272    577.7320    520.5804 307.6871183  +6.4837816     1854.458     3987.777      4434.74      87.5823     175.4442     350.9931      2.173     5.54     1090.262     61.88055     232.6809        30     1.544     1.312 -17.05   0
       273    951.2687    517.8554 307.5319514  +6.4973632     3840.375     6980.424     7120.331     88.00102     175.4442      351.028      1.923     4.68     1081.528     61.88055     454.6326        32     1.748     1.041 -30.44   0
       274    624.7555    516.1096 307.6677244  +6.4871984     4273.528     8931.981     10722.14     88.00102      175.514     351.2025      2.266     5.56     1089.221     61.88055     468.3988        43     1.904     1.304 -31.71   0
       275    974.1279    509.9078 307.5227172  +6.5014058     2831.219     5197.052     5999.231     87.86167     175.7233     351.0629      1.930     4.58     1080.343     61.88055     340.6147        29     1.669     1.025 -30.88   0
       276    536.9626    507.4708 307.7045061  +6.4878324     4943.187      10401.3     11800.14     87.86167     175.5838     351.0978      2.222     5.10     1089.784     61.88055     527.8315        45     1.878     1.358 -42.67   0
       277    383.0412    507.7525 307.7684714  +6.4825672     1472.572     3318.558     3845.874     87.86167     175.5838     350.9233      2.269     7.42     1094.867     61.88055     154.4276        23     1.571     1.132 -37.22   0
       278    107.1812    506.6800 307.8831603  +6.4737623     575.5665     1038.438     1595.242      87.5823     175.2345     350.9582      2.309     4.97      1102.12     61.88055     94.59155         6     1.082     0.647 -23.01   0
       279    893.1429    503.2864 307.5566019  +6.5014439     2524.708     4736.457     5907.088     88.00102     175.5838     351.2374      2.147     5.06     1082.587     61.88055     316.3645        29     1.766     1.011 -29.71   0
       280    900.9401    497.6283 307.5535513  +6.5040399     1692.623     2982.195     3692.194      87.5823     175.6536     350.9582      1.961     4.61     1082.077     61.88055     223.8789        20     1.373     1.017 -69.06   0
       281    939.8067    496.7872 307.5374243  +6.5056813     1001.491     1573.124     1161.323      87.5823     175.3743     350.9582      1.674     5.13      1080.91     61.88055     135.5197        11     1.133     0.798 -53.26   0
       282    724.7576    493.6241 307.6269173  +6.4998209     2137.814     4113.502     4338.446      87.5823     175.4442     350.8185      2.060     5.52     1086.021     61.88055     242.3873        30     1.771     1.155 -37.32   0
       283    395.8182    492.0124 307.7636932  +6.4894942     2365.239     5059.624     5544.319      87.7221     175.2345     350.9582      2.215     5.51     1093.648     61.88055     286.0345        34     1.784     1.247 -31.29   0
       284     86.9743    492.5477 307.8920378  +6.4789192     1207.695     2623.515     2908.849      87.5823     175.7233     350.9582      2.214     7.32     1101.856     61.88055     154.2551        19     1.446     1.146 -52.81   0
       285    436.8134    492.2484 307.7466462  +6.4907687     550.5746      826.647     703.3571     87.30204      175.514     350.7487      1.706     4.32     1092.362     61.88055     83.79724         5     0.846     0.628 -46.79   0
       286    623.2739    488.5314 307.6692708  +6.4985364     6854.873     13821.39     15327.28     88.14016     175.7233      351.028      2.136     5.19     1087.374     61.88055     703.0453        51     1.949     1.333 -30.82   0
       287    786.2266    484.7256 307.6016674  +6.5055454     11763.78     22771.29     25742.81      87.5823      175.514      351.028      2.121     5.12     1085.203     61.88055     1331.053        69     2.307     1.294 -41.80   0
       288    305.8737    485.4206 307.8013000  +6.4892040     1746.661     3703.965     3661.835      87.5823     175.4442     350.9931      2.165     7.38     1093.633     61.88055     183.1825        28     1.725     1.227 -45.11   0
       289    814.8315    482.0041 307.5898692  +6.5076227     884.5406     1726.129     1760.164     87.30204     175.4442     350.8185      1.978     5.27     1084.326     61.88055     127.0059        12     1.365     0.729 -25.95   0
       290    389.0643    482.0962 307.7668357  +6.4933627     1013.768     2146.763     2629.318     87.86167     175.7233     351.0629      2.244     6.53     1092.965     61.88055     134.6929        11     1.449     0.827 -47.08   0
       291    971.2274    480.1276 307.5249242  +6.5136062     1538.445     2785.367     2932.376      87.7221      175.514     350.9582      1.863     5.09     1078.769     61.88055     191.4197        17     1.465     0.812 -30.76   0
       292    123.6199    476.9021 307.8773379  +6.4866095     2751.762     5960.822     6577.784     87.86167     175.3743     350.7836      2.269     5.33     1100.444     61.88055     321.5338        37     1.752     1.321 -34.32   0
       293    761.5592    475.9636 307.6122158  +6.5083409      1743.92     3037.998      3245.48      87.7221     175.5838     350.9233      1.890     4.66     1084.823     61.88055     218.3467        23     1.488     1.029 -46.77   0
       294   1023.3970    474.8262 307.5034172  +6.5175310     1771.435     2261.409     2281.744     79.97688     143.8187     268.9235      1.275     3.25     1076.121     61.88055     307.8586        12     1.065     0.729  89.17  24
       295    281.5293    474.6072 307.8117844  +6.4928531     999.6995     2381.927     3208.634     87.44228     175.1646     350.9582      2.746     8.23     1093.103     61.88055     144.2832        16     1.550     1.221  22.87   0
       296    359.7911    471.6208 307.7793572  +6.4967080     2208.091      4509.73     4527.116      87.5823     175.3044     350.8185      2.090     5.64     1092.178     61.88055     228.7847        32     1.681     1.303 -35.62   0
       297    715.1074    469.9908 307.6317253  +6.5092576     923.1164      1682.11     1329.991      87.5823     175.1646     350.8535      1.793     6.20     1084.706     61.88055     125.9026        12     1.466     0.737 -11.40   0
       298    479.1908    459.9363 307.7301245  +6.5055284     903.4761     1905.705     2142.735     87.44228     175.3743     350.8535      2.280     6.66     1087.237     61.88055     116.1024        10     1.165     1.069 -53.95   0
       299    840.9692    459.7261 307.5797549  +6.5176929     1054.798      1867.67     1760.808     87.86167     175.5838     351.0978      1.854     5.85     1081.626     61.88055     142.6666        11     1.342     0.718  -4.44   0
       300    827.0134    458.6048 307.5855937  +6.5176908     1450.115     2591.099     2635.724      87.5823     175.3044     350.9233      1.781     5.91     1082.214     61.88055     194.9579        16     1.509     0.786 -29.05   0
       301    724.4411    456.7553 307.6282918  +6.5150342     10302.42     20580.77      22380.4      87.7221     175.5838     350.8884      2.112     5.13     1083.642     61.88055     1180.654        51     1.959     1.268 -32.78   0
       302    645.5756    452.6970 307.6612102  +6.5140778     1781.049      3772.01     4881.656     88.14016     175.3045     350.9582      2.522     5.75     1084.171     61.88055     211.9291        30     1.725     1.176 -21.79   0
       303    617.9406    447.8786 307.6728595  +6.5151446     9010.875     22738.69     29898.89     88.14015     175.5838     350.9931      2.795     6.53     1084.179     61.88055     1060.817        89     2.509     1.850  19.96   0
       304    949.7160    446.5716 307.5349945  +6.5267465     2947.751     5465.648     6024.605     88.00102     175.3045     350.9233      1.942     4.67     1077.589     61.88055     371.3973        30     1.778     0.987 -35.75   0
       305    388.9590    442.6556 307.7682135  +6.5096445     18322.93     40189.74     45200.15     87.86167     175.5838     351.0978      2.299     5.40     1088.634     61.88055     1862.816        72     2.058     1.534 -34.23   0
       306    135.3137    442.3834 307.8736482  +6.5012549     1502.865      2866.68     3017.733      87.5823     175.3045     350.9931      1.980     7.36     1097.984     61.88055     181.0632        19     1.799     0.843 -37.16   0
       307    905.0319    442.0452 307.5537210  +6.5271278     1158.012     2305.082     3317.791      87.7221     175.6536     350.8884      2.398     7.06     1078.785     61.88055      172.489        18     1.684     0.959 -15.27   0
       308     68.4832    438.0911 307.9015706  +6.5007834     1019.566     2195.159     2654.106      87.7221     175.9324     351.2025      2.495     7.29     1099.409     61.88055     131.0491        16     1.622     1.007 -61.77   0
       309    918.6016    436.8647 307.5482547  +6.5297188     3904.541     7141.685     7634.439     87.30204     175.3044     350.8185      1.930     4.77     1078.244     61.88055     526.0396        30     1.751     0.988 -36.38   0
       310    246.4444    433.3231 307.8277651  +6.5087237     8644.514     19625.85     22573.13     87.86167     175.6536     351.0978      2.355     5.62     1091.713     61.88055     896.2108        61     2.065     1.487 -38.51   0
       311    740.7361    426.8345 307.6225271  +6.5279328     599.7838      1007.87     1263.173     87.86167     175.5838     351.0629      1.726     4.59       1081.3     61.88055     104.9011         5     1.277     0.469 -59.94   0
       312    970.2694    425.0172 307.5271758  +6.5363309     767.2899     1444.831     1831.273     87.44228     175.4442     350.9582      1.877     5.61     1075.087     61.88055     115.8433        11     1.316     0.674 -31.14   0
       313    146.7772    421.9282 307.8695771  +6.5100856     3259.815     7155.103         7767      87.5823     175.3743     351.0629      2.258     5.67     1096.224     61.88055     343.4089        43     1.865     1.404 -31.92   0
       314    359.4034    422.6700 307.7811745  +6.5169072     864.8599     1678.833     1653.038     87.44228     175.1646     350.8884      2.196     6.02     1087.268     61.88055     111.0964        10     1.134     0.900 -10.18   0
       315    252.2572    421.2082 307.8257594  +6.5139209     829.9993     1703.045     1803.307     87.30204     175.4442     350.7836      2.120     3.11     1090.704     61.88055     124.8279         6     0.731     0.630 -33.76   0
       316    169.1975    417.6561 307.8604032  +6.5126018     1576.374     3805.396     4125.583     87.30204     175.3044     350.7137      2.418     7.82     1094.902     61.88055     180.9203        33     1.871     1.347 -53.30   0
       317    564.3588    416.6322 307.6961864  +6.5262566     674.0757     1431.412     1715.896      87.5823      175.514     350.9233      2.411     3.44     1082.597     61.88055     111.2908         5     0.991     0.345  21.26   0
       318    392.2000    412.7729 307.7678772  +6.5220919     1309.025     3162.079     3468.509     87.44228     175.1646     350.8185      2.269     8.62     1085.341     61.88055     157.0171        26     1.824     1.188 -30.81   0
       319    981.3719    411.7643 307.5230063  +6.5421728     744.3974     1215.107     1112.953      87.5823     175.3045     350.8535      1.632     4.32     1073.568     61.88055     110.5449         7     0.960     0.553 -33.63   0
       320    446.0552    406.1326 307.7457161  +6.5266362     4692.565     10439.88        11793     88.00102     175.4442     350.9931      2.267     5.44     1083.474     61.88055     480.5797        52     1.971     1.446 -40.89   0
       321     42.7960    406.7981 307.9133090  +6.5128414     2187.567     5001.228     5967.884     87.30203     175.0946     350.7836      2.474     6.47     1098.506     61.88055     254.7322        37     1.968     1.232 -35.90   0
       322    786.6381    403.3440 307.6042382  +6.5391633     9327.545     18067.08     20518.01     88.00102     175.6536     351.0978      2.079     4.90     1079.585     61.88055     1075.751        52     1.938     1.274 -33.80   2
       323    778.7466    405.2982 307.6074527  +6.5380932     1356.344     2851.169     3473.542     87.86167     175.5838     351.3072      2.219     7.50     1079.774     61.88055     165.9219        21     1.679     0.961 -40.40   3
       324    349.8105    402.1013 307.7858578  +6.5250790     788.6072     1625.293     1664.596      87.7221     175.1646     350.8535      2.234     6.26     1085.785     61.88055     119.0221        11     1.484     0.872 -49.20   0
       325    960.5267    395.8035 307.5322083  +6.5480696     533.1871     699.1497     969.2866     87.44228     175.0946     350.8884      1.348     3.40     1073.698     61.88055     100.8574         5     1.183     0.282 -36.19   0
       326    494.2141    389.7653 307.7262511  +6.5350054      1918.83     4008.641     4196.433      87.5823     175.3044     350.9233      2.133     5.31     1081.373     61.88055     208.7919        32     1.720     1.214 -38.05   0
       327    466.6425    390.4128 307.7376900  +6.5338159     1336.583     3012.359     3332.367     87.30204     175.3743     350.7836      2.388     8.76     1081.805     61.88055     176.0536        24     1.755     1.228 -32.45   0
       328      1.6966    391.3886 307.9309146  +6.5178229     704.6401      1358.52     1932.911     81.04227     145.3442     270.5136      2.392     5.28     1098.873     61.88055     102.3943         6     1.077     0.730  74.20  24
       329    851.9958    386.1787 307.5776479  +6.5484297     24452.79     48420.04     53018.63      87.5823     175.3044     350.8185      2.096     4.89      1076.88     61.88055     2722.766        68     1.957     1.371 -40.35   0
       330    344.5196    383.0915 307.7887004  +6.5327511     635.7812     1213.458     1521.542      87.7221     175.8627     351.0978      1.619     4.30     1084.552     61.88055      87.6228         6     1.062     0.496  86.35   0
       331    623.5587    378.7593 307.6728569  +6.5438727     1783.993     3699.058     4173.052      87.7221     175.5838     350.9233      2.231     7.41     1079.738     61.88055      188.303        29     2.013     1.078 -30.17   0
       332    708.4523    372.2274 307.6377880  +6.5494040     54740.88     111151.5     122656.8      87.5823     175.7233     350.9931      2.143     5.00     1079.009     61.88055     5879.289        87     2.029     1.445 -34.10   0
       333    866.3884    373.8867 307.5720789  +6.5539848     951.0459     1895.949     2293.423      87.5823     175.3044     350.8884      2.455     6.51     1075.871     61.88055     136.8396        12     1.531     0.778 -40.94   0
       334     88.3837    372.3463 307.8955298  +6.5285977     831.1324     1691.126     2189.456     87.44228     175.5838     350.7487      2.436     5.35     1096.345     61.88055     120.7183         9     1.273     0.635 -50.84   0
       335    570.9649    368.9459 307.6950507  +6.5461678     1886.264     4113.265     5081.308     87.86167     175.5838     351.0978      2.512     6.51     1079.471     61.88055     231.1067        34     1.925     1.287 -31.31   0
       336    108.2934    367.8859 307.8874056  +6.5311079     3991.433     8986.591     10012.12     88.00102     176.0717     351.1676      2.307     5.41     1095.361     61.88055     438.8857        49     1.878     1.513 -37.28   0
       337    554.2507    365.0829 307.7021290  +6.5472043     4598.181     9967.851     11436.88     88.00102      175.514     351.1328      2.295     5.55     1079.247     61.88055     453.2595        48     1.975     1.370 -35.24   0
       338    417.1836    360.3927 307.7592639  +6.5445565      16006.8     36083.53      40888.3      87.5823     175.3044     350.8884      2.336     5.50      1081.05     61.88055     1647.854        70     2.071     1.541 -35.87   0
       339    283.3643    362.9890 307.8148012  +6.5390026     1655.833     3943.033     4417.765     87.44228     175.3743     350.8185      2.393     7.14     1086.494     61.88055     191.1519        29     1.716     1.294 -33.45   0
       340    524.5673    359.5444 307.7146550  +6.5484990     896.1133     1860.786     2409.731     87.86167     175.6536      351.028      2.281     6.23     1078.971     61.88055     130.4277        10     1.208     0.924 -19.47   0
       341    396.8518    358.6043 307.7677758  +6.5446144     728.3026     1533.801     2433.178     87.30204     175.3743     350.6439      2.257     4.31     1081.394     61.88055     81.16272         5     0.958     0.552 -47.18   0
       342    497.0715    354.9725 307.7262391  +6.5494674     678.1397     1433.717     1816.098      87.7221      175.514     350.9931      2.201     4.80      1078.68     61.88055      108.863         5     1.292     0.505 -61.72   0
       343    506.1678    350.8041 307.7225988  +6.5514927     5460.717     12253.58     13869.82     87.30203     175.4442     350.8185      2.294     5.38     1078.387     61.88055      542.245        56     2.015     1.491 -31.18   0
       344    775.3386    349.2575 307.6107580  +6.5611199     2237.169      4519.57     5342.637     88.14016      175.514     351.0978      2.153     4.95     1076.811     61.88055     256.1383        30     1.547     1.256 -40.59   0
       345    931.1017    349.1327 307.5460105  +6.5663616     671.4081     1079.472     1043.298     88.00102     175.7233     351.0978      1.639     4.96     1072.753     61.88055     108.5115         8     1.230     0.567 -26.50   0
       346    332.9460    348.2802 307.7946894  +6.5467373     686.2648     1503.094     1363.541     88.00102     175.5838     351.1328      1.938     5.73     1082.908     61.88055     88.58044         8     1.362     0.680 -37.37   0
       347    168.5635    342.3729 307.8632189  +6.5436652     747.7294     1621.277     1696.303     87.44228     175.2345     350.8535      2.274     5.37     1091.264     61.88055     126.1349         8     1.383     0.588 -29.25   0
       348    396.1727    335.0457 307.7688551  +6.5543193     4501.869     10265.56     11397.06     87.44228     175.6536     350.9582      2.299     5.72     1080.443     61.88055     497.7626        49     1.958     1.452 -29.78   0
       349    252.0812    335.9245 307.8287214  +6.5491290     1315.124     2673.415     2507.891     88.27907     175.8627     351.1676      2.141     6.15     1086.652     61.88055     151.2084        19     1.509     0.959 -32.70   0
       350    763.9483    330.7432 307.6161169  +6.5683850     37876.91     75275.55     82538.91     88.00102     175.5838     351.0629      2.124     4.96     1076.099     61.88055     4224.627        77     2.015     1.382 -35.72   0
       351    749.6013    334.7363 307.6219465  +6.5662576     818.3934     1525.957     1587.967     87.30204     175.3045     350.8185      1.989     5.61     1076.691     61.88055     120.1813         9     1.221     0.728 -31.47   0
       352    435.5610    330.1396 307.7526477  +6.5576634     1471.851     3108.689     3353.854     88.00102     175.6536     351.1328      2.145     7.59     1079.087     61.88055       166.89        22     1.736     1.004 -18.98   0
       353    999.0451    327.6333 307.5184887  +6.5775005     1389.604     2215.071     2115.124      87.5823     175.5838     350.9233      1.774     5.41     1067.193     61.88055      171.751        16     1.376     0.828 -44.23   0
       354    939.7418    326.8998 307.5431668  +6.5758297     1811.507     3347.299     3501.105      87.7221     175.5838     351.2374      1.920     5.33     1070.429     61.88055      225.066        23     1.600     1.061 -30.35   0
       355    582.0593    327.7250 307.6918307  +6.5635592     899.3189     1512.569     1482.355     88.27907     175.5838      351.028      1.776     4.76     1076.491     61.88055     129.6959         8     0.981     0.654 -68.22   0
       356    473.6921    326.8954 307.7369066  +6.5602787     636.0055     1212.858     1943.938     88.00102     176.2108      351.028      2.625     5.75     1077.608     61.88055     96.57446         7     1.138     0.817 -68.63   0
       357    422.5150    325.8343 307.7582164  +6.5590045     1334.604     2676.991     2729.785     88.00102     175.4442      351.028      2.142     6.81     1079.399     61.88055       168.59        19     1.536     1.074 -41.84   0
       358    843.6303    320.4627 307.5833386  +6.5752864     914.8134     1951.269      2181.99      87.7221     175.6536      351.028      2.096     7.00     1073.474     61.88055     133.1479        13     1.682     0.817 -36.59   0
       359    199.2618    317.2598 307.8513097  +6.5550643     1471.616     3371.353     3941.199     88.00102     175.5838     351.0978      2.329     7.93     1088.916     61.88055     187.1072        27     1.927     1.114 -40.40   0
       360    762.4481    315.3688 307.6172588  +6.5746833     4447.191     9081.918     10311.16     87.58231     175.5838     350.9582      2.162     5.05     1075.193     61.88055     481.0984        42     1.839     1.295 -33.23   0
       361    453.3122    317.7899 307.7456863  +6.5633567     740.5938     1565.573      2004.25      87.5823     175.2345     350.8884      2.432     4.92     1077.984     61.88055      126.386         6     0.944     0.725  16.22   0
       362    778.7825    313.4994 307.6105314  +6.5760000     1745.528     3548.965     3649.851     88.00102     175.4442     350.7836      2.134     6.32     1074.797     61.88055     203.8247        25     1.703     1.035 -40.06   0
       363     82.4659    309.1927 307.9001325  +6.5544749     775.2574     1821.042     2516.581     87.44228     175.3044     350.8884      2.603     6.80     1095.365     61.88055     104.0424        13     1.889     0.687 -27.62   0
       364    368.5536    308.2649 307.7812421  +6.5644525      1349.02     2999.933     3582.172     88.00102      175.514     351.0629      2.416     6.12     1080.457     61.88055     156.8252        23     1.513     1.149   6.03   0
       365   1016.9531    304.1379 307.5118339  +6.5877981     4858.465     8426.223     9011.829     87.86167     175.4442      349.699      1.818     4.76     1065.539     61.88055     606.8029        33     1.762     1.026 -31.98  16
       366    495.4475    304.2657 307.7286278  +6.5703505     1359.574     2819.848     2704.234     87.86167      175.514     351.0978      2.203     7.36     1075.905     61.88055     161.5597        19     1.476     1.027 -46.09   0
       367    257.8122    299.8424 307.8275614  +6.5642196     3632.875     8233.953     9020.631     87.30203     175.3743     350.7487      2.251     6.02      1084.64     61.88055     359.0779        42     1.889     1.403 -34.93   0
       368     95.1892    315.3023 307.8946364  +6.5523796     635.3761     1461.184     1352.251      87.7221     175.1646     350.8884      2.448     4.66     1094.927     61.88055     111.7131         5     0.861     0.715 -78.63   0
       369    392.3693    290.4291 307.7719455  +6.5726145     1021.313     2259.424     2319.154     87.44228     175.3045     350.7836      2.283     7.07     1079.214     61.88055     127.7871        14     1.387     1.010 -10.94   0
       370    977.8936    289.4457 307.5285662  +6.5925652     764.9986     1160.565     1060.631     87.86167      175.514     351.2025      1.743     4.96     1066.335     61.88055     98.29907         7     1.161     0.600 -23.56   0
       371    161.8521    286.5084 307.8679027  +6.5665065     1089.764      2468.17      2508.89     87.86167     175.3743     351.2723      2.220     7.55     1091.253     61.88055     115.5682        20     1.636     0.975 -67.09   0
       372    314.2417    286.8466 307.8045442  +6.5714769     816.2081     1368.875     1510.894     87.86167     175.5838     350.9582      2.123     5.35     1081.704     61.88055     137.4283        10     1.051     0.840   8.36   0
       373    571.3183    281.9520 307.6978416  +6.5821006     1484.313     3325.222     3224.567     88.00102     175.5838     351.0978      2.317     5.67     1073.026     61.88055     188.4167        26     1.444     1.327 -47.83   0
       374    914.6777    281.1863 307.5551249  +6.5938713     1343.184     2521.633     3095.902      87.5823     175.2345     350.8535      1.972     5.06      1068.25     61.88055     152.5067        18     1.412     0.926  -7.30   0
       375    734.6784    279.5837 307.6300096  +6.5885333     3516.367      6852.68      7181.95     87.58231     175.3045     350.9233      2.079     5.09      1073.34     61.88055     404.3455        37     1.895     1.154 -32.31   0
       376    675.3054    279.3888 307.6546988  +6.5866323     1353.048     3061.954     3539.931      87.5823     175.2345     350.8185      2.458     8.02     1072.975     61.88055      148.901        23     1.614     1.166 -33.15   0
       377    486.1243    258.9868 307.7340340  +6.5887348     4019.272     6213.924     6202.415      87.5823     175.3044     350.8535      1.505     4.68     1073.275     61.88055     1151.553        17     1.840     0.491 -78.50   3
       378    485.3008    266.8902 307.7341092  +6.5854438     10110.73     13413.65     14045.95     88.00102     176.0717      351.028      0.963     3.33     1073.872     61.88055     3626.574        11     1.620     0.448 -89.97   3
       379    930.7916    271.8573 307.5487398  +6.5982600     888.6525      1860.29     2025.227     87.30203      175.514     350.7836      2.042     6.41     1067.245     61.88055     107.8564        10     1.322     0.872 -18.16   0
       380    234.3581    264.8564 307.8384965  +6.5778789     1454.961     3462.436     3507.243     87.86167      175.514     351.0978      2.366     6.65     1085.353     61.88055     206.2579        30     1.814     1.445 -30.65   0
       381    876.8335    263.8178 307.5714427  +6.5997826     1385.393     2605.032     3337.818      87.5823     175.3743     350.8884      2.203     7.32     1069.213     61.88055     172.9436        23     1.704     1.049 -40.96   0
       382    767.1103    263.2029 307.6170790  +6.5963790     972.1306     1817.415     2211.046     87.30203     175.2345     350.7137      2.041     6.61     1072.293     61.88055     123.0797        12     1.384     0.887 -24.46   0
       383    468.5219    254.4737 307.7415041  +6.5900094      14298.9     32068.95      37433.8     88.27907     175.8627     351.0978      2.417     5.75     1073.733     61.88055     1439.134        84     2.549     1.519 -40.12   0
       384    794.2287    253.7457 307.6061238  +6.6011884     9437.139     18882.83     20978.68      87.7221     175.6536     350.9931      2.145     4.96     1071.641     61.88055     1052.014        53     1.951     1.320 -30.07   0
       385    156.8494    247.9739 307.8712890  +6.5822494     1396.601     3320.947      3685.88      87.5823     175.6536     350.9582      2.327     6.66      1090.01     61.88055     156.6056        27     1.812     1.242 -34.25   0
       386    484.0000    272.0927 307.7344741  +6.5832521     3918.861      7224.72     10753.39     87.44228     175.0246     350.6788      2.994     3.99     1074.258     61.88055     969.7992        11     1.421     0.320 -89.28   3
       387    131.5274    246.4278 307.8818677  +6.5820378      674.049     1503.667     1466.817      87.7221      175.514     350.9931      2.350     7.24     1091.595     61.88055     96.71094         9     1.572     0.934 -51.46   0
       388    930.4680    244.2398 307.5498038  +6.6096530     1103.956     1630.724     2217.363     87.86167      175.514     351.1676      1.716     6.52     1066.412     61.88055     162.3865        14     1.427     0.837 -32.93   0
       389    592.3408    240.4547 307.6905034  +6.5999378     3146.792     6594.899     7274.399     88.14016      175.514      351.028      2.228     5.32     1071.033     61.88055     349.1237        42     1.963     1.286 -34.55   0
       390    312.7382    242.0664 307.8066855  +6.5899165     610.8184     887.7867     472.9863     88.00102      175.514     351.0629      1.502     2.75     1081.129     61.88055     113.5374         5     0.837     0.629 -47.15   0
       391    555.5154    240.5113 307.7058109  +6.5986838      1488.75     2934.419     2764.676      87.7221     175.8627     351.1676      2.045     5.55      1071.08     61.88055     174.2468        21     1.513     1.016 -25.97   0
       392    396.3878    239.7715 307.7719888  +6.5936659     814.9534     1697.605     1001.182     87.44228     175.3743     350.9582      1.930     6.32     1077.075     61.88055     87.87012        10     1.269     0.883  30.85   0
       393    899.3430    236.9302 307.5629899  +6.6116348     8685.966     15831.74     16542.24     88.14015     175.5838      351.028      1.930     4.52     1067.207     61.88055     1110.688        44     1.804     1.172 -33.85   0
       394    952.8804    237.5812 307.5407100  +6.6131487     2129.634     3639.871     3819.435      87.5823     175.2345     350.9931      1.795     5.17     1065.137     61.88055     267.5729        22     1.639     0.865 -22.82   0
       395    985.9421    234.7269 307.5270606  +6.6154277     8247.801     14467.28     15027.11     88.14015     175.5838      351.028      1.872     4.45     1063.428     61.88055     984.3843        41     1.750     1.126 -33.47   0
       396     25.6181    233.7825 307.9263228  +6.5837016     16880.08     36270.71     40795.97      87.7221     175.2345     350.9931      2.246     5.31     1095.533     61.88055       1884.1        66     2.028     1.472 -38.86   0
       397    697.4669    234.8558 307.6469880  +6.6057604      1934.77     3884.499     4492.579     88.14015     175.4442      351.028      2.121     6.27     1071.066     61.88055      221.063        28     1.643     1.170 -39.50   0
       398    272.2617    235.0323 307.8237502  +6.5914643     805.2443     1954.279     2310.669      87.7221     175.6536     350.9931      2.606     6.65     1083.346     61.88055     131.4315         8     1.517     0.818  -1.25   0
       399    506.2510    229.6761 307.7266575  +6.6015106     1294.786     2895.569     2731.111     88.00102     175.6536     351.0629      2.339     7.54     1070.988     61.88055     172.3521        20     1.775     1.178 -53.43   0
       400    837.9962    226.3953 307.5888493  +6.6139409     1557.231     2793.726      2460.67     87.30203     175.0946     350.8884      1.887     7.20     1068.746     61.88055     153.9186        19     1.481     0.982 -31.79   0
       401    518.0065    225.7172 307.7219042  +6.6035384     1725.061     3701.677      3863.11      87.5823     175.2345     350.8884      2.223     8.56     1070.622     61.88055     192.4232        29     1.945     1.170 -34.11   0
       402    890.3239    225.3551 307.5671293  +6.6161139     1630.393     3123.706     3605.448     87.86167     175.6536     351.0978      2.032     5.12     1066.971     61.88055     221.0514        18     1.432     1.062 -17.34   0
       403    749.5182    222.9086 307.6257511  +6.6124304     27802.88     56226.47     60970.26      87.7221     175.8627     351.1328      2.149     5.09      1070.43     61.88055     3170.568        71     2.004     1.386 -34.64   0
       404    352.6663    222.4217 307.7907518  +6.5993656      4268.49     10588.45      12719.3     87.58231     175.5838     350.9931      2.587     6.33     1078.204     61.88055     431.7219        62     2.214     1.609 -58.58   0
       405    983.3463    221.5866 307.5285819  +6.6207672      2352.51     4105.835     4138.707     87.30204      175.514     350.7836      1.824     4.94     1062.898     61.88055     282.5365        26     1.710     0.944 -31.54   0
       406    917.4139    219.9755 307.5560477  +6.6192376     5769.377     10409.58     10733.23      87.7221     175.3743     350.9931      1.932     4.39      1065.93     61.88055     703.5164        42     1.752     1.177 -32.91   0
       407   1021.7053    220.3189 307.5126766  +6.6225669     1458.085     2724.736     3147.569      87.7221     167.2195     297.5625      2.001     6.59     1060.733     61.88055      172.212        20     1.545     0.900 -24.02  24
       408    461.0634    219.1719 307.7457984  +6.6043363     3028.035      6817.59     7720.863      87.5823     175.5838     350.9931      2.314     5.43     1072.031     61.88055     318.3298        38     1.762     1.360 -29.02   0
       409    118.5883    210.4639 307.8884666  +6.5964528     3065.852     7219.285     8208.775     87.44228     175.3743     350.8535      2.401     5.91     1091.519     61.88055     327.0686        42     1.877     1.478 -40.01   0
       410    288.6771    207.2286 307.8178679  +6.6034948      21126.5     47862.65     54774.18     87.86167     175.6536     351.0629      2.340     5.61     1082.794     61.88055     2327.582        78     2.109     1.573 -35.61   0
       411    264.1127    208.3472 307.8280419  +6.6022094     4041.444     8834.331      9308.56     88.00102     175.4442     351.2025      2.275     5.62     1083.969     61.88055     458.7603        46     2.022     1.347 -45.44   0
       412    937.0729    209.7985 307.5482169  +6.6240945     687.3375     1069.519     1450.202     87.44228     175.0246     350.9233      1.555     3.66     1064.593     61.88055     130.6332         5     0.981     0.393 -59.49   0
       413    718.0182    206.3212 307.6394065  +6.6182286     701.8297     1187.496     965.2198      87.5823     175.2345     350.9931      1.679     4.96      1070.07     61.88055      122.447         8     1.196     0.582 -70.31   0
       414    168.7331    204.0643 307.8678379  +6.6007784     2673.467     5736.873     6757.253     88.00102     175.5838     351.1328      2.304     5.33     1088.401     61.88055     317.1921        42     1.888     1.416 -41.16   0
       415    412.7325    202.6765 307.7664489  +6.6095299     31449.36     70369.07     79857.08     88.14016     175.7233      351.028      2.343     5.58     1074.207     61.88055     3315.027        87     2.139     1.581 -34.17   0
       416    429.8279    203.8646 307.7593016  +6.6096115     801.5312     1446.924     1133.618      87.5823     175.5838     350.9931      1.899     4.45     1073.208     61.88055     133.7546         7     1.195     0.701 -24.17   0
       417    751.9025    198.8380 307.6255714  +6.6224491     23420.41      46977.2     51595.82     88.00102     175.4442     351.2374      2.127     4.91     1069.544     61.88055     2560.136        69     1.959     1.401 -36.22   0
       418    316.7786    200.4409 307.8064153  +6.6072392     11349.24     25621.17      30002.6      87.5823     175.3743     350.8535      2.388     5.56     1080.594     61.88055      1177.02        70     2.119     1.563 -31.54   2
       419    324.6342    200.5254 307.8031467  +6.6074675     1377.432     3225.962      4023.63     87.86167     175.5838      351.028      2.556     8.87     1079.937     61.88055     166.4067        23     1.933     1.136 -58.81   3
       420    800.1540    199.6575 307.6054831  +6.6237199     896.4627     1713.115     2343.295     88.00102     175.5838     351.1676      2.026     6.41     1068.766     61.88055     144.3386        11     1.453     0.856 -35.22   0
       421     68.9231    196.2654 307.9095947  +6.6006472     5891.527      12867.1     15068.62     88.14015     175.5838      351.028      2.311     5.54     1093.649     61.88055     625.1495        52     1.976     1.480 -38.01   0
       422    103.2284    194.6292 307.8953891  +6.6024751     1058.928     2312.725     2563.009     87.44228     175.3044     350.7836      2.127     6.58     1091.964     61.88055     149.0927        14     1.661     0.842 -44.17   0
       423   1009.5385    193.7356 307.5186290  +6.6331390     828.8816     1450.536     1721.527     88.00102     175.5838     351.0978      2.317     4.93     1059.601     61.88055     114.0908         8     1.341     0.513 -56.74   0
       424      2.6335    181.9677 307.9376373  +6.6043229     614.9883     929.4779      966.681     87.44228     159.1089     286.6987      1.539     4.15     1097.221     61.88055     92.48816         5     1.073     0.458 -25.93  24
       425   1011.2116    179.3753 307.5184163  +6.6391243     1934.362     3383.789      4252.46      87.5823     175.3743     350.9931      1.920     4.40     1058.529     61.88055     247.9432        19     1.380     0.898 -31.34   0
       426    347.1652    175.5532 307.7946253  +6.6185335     729.1719     1329.563     1332.429      87.5823      175.514     350.9931      1.918     6.32     1077.546     61.88055     98.52271        10     1.320     0.851 -64.34   0
       427    287.5539    173.4892 307.8194776  +6.6173882     19444.43     43267.13     50016.84     88.00102     175.4442     351.2025      2.371     5.61     1083.451     61.88055      2075.45        79     2.176     1.572 -35.89   0
       428    602.7521    175.1986 307.6883786  +6.6272307     1333.419     2890.761     3601.681     87.30204     175.1646     350.5739      2.616     6.69     1068.348     61.88055     171.1615        22     1.784     1.051 -31.71   0
       429     32.8785    172.0370 307.9254013  +6.6094399     2737.384     6307.189     7767.717     87.86167     175.6536     351.0629      2.482     5.56     1095.566     61.88055      324.698        45     1.855     1.565 -30.31   0
       430    719.1407    169.9714 307.6401658  +6.6332754     5810.068     11537.74      13108.9      87.5823     175.6536     350.9931      2.137     4.83     1069.047     61.88055     662.4283        42     1.802     1.275 -34.62   0
       431    196.5754    171.4259 307.8573700  +6.6151890     589.8508     1331.156     995.5041     87.44228     175.3743     350.9931      2.132     4.90     1087.171     61.88055     79.90381         7     1.511     0.449  66.18   0
       432    130.0505    167.3076 307.8851657  +6.6146567      3086.04     6884.672     7633.067     87.86167     175.4442     351.2723      2.312     6.02     1089.844     61.88055      308.475        43     1.940     1.365 -34.23   0
       433    468.5039    164.8131 307.7445431  +6.6270304      850.201     1810.323     1380.127      87.7221     175.3044     350.8535      2.212     7.13     1068.663     61.88055     102.3551        11     1.506     0.947  -6.27   0
       434    400.7935    163.2726 307.7727455  +6.6254002     2284.694     5335.821     6312.899      87.5823     175.0946     350.9582      2.431     6.41     1072.429     61.88055     255.5992        38     1.908     1.398 -42.09   0
       435    365.5565    162.1937 307.7874315  +6.6246657     1994.009     4300.182     4463.146     87.44228     175.2345     350.7137      2.182     6.44     1075.426     61.88055     213.3812        30     1.924     1.107 -29.81   0
       436    119.9265    162.2203 307.8895470  +6.6164173     1150.609     2458.639     2977.912      87.5823      175.514     350.9931      2.289     7.35     1090.072     61.88055     145.7281        19     1.737     1.060 -39.00   0
       437    755.7496    160.5272 307.6252637  +6.6383965     523.3076     823.8871     1173.242     88.00102     175.6536     351.0978      1.420     4.48     1068.045     61.88055     105.5011         5     1.252     0.457 -58.17   0
       438   1012.1091    155.9954 307.5188295  +6.6488081     1283.418     2145.389     2205.346      87.5823     175.2345     350.7487      1.809     6.02     1057.151     61.88055     181.6646        15     1.395     0.834 -37.62   0
       439    100.2706    151.0390 307.8980979  +6.6203739     1372.931     3256.754     4398.981     87.86167     175.5838     351.1328      2.647     9.75     1090.594     61.88055     153.3566        31     2.246     1.238 -49.55   0
       440    217.0941    151.1340 307.8495276  +6.6242559     3552.885     7982.673     8370.265     88.00102     175.7931     351.0629      2.305     6.08     1086.389     61.88055     412.9684        44     1.917     1.433 -34.91   0
       441    678.6760    149.8381 307.6576687  +6.6402381     4126.794     8870.091     9760.174     87.86167     175.6536     351.0629      2.246     5.66     1068.309     61.88055      455.446        44     1.942     1.330 -33.29   0
       442    826.4296    149.6819 307.5962428  +6.6452316     760.4903       1587.9     851.3301     87.86167     175.3743      351.028      1.917     6.57     1065.121     61.88055     99.87744         8     1.892     0.640 -51.47   0
       443    630.9506    147.1131 307.6776031  +6.6397695     6408.042     13641.24     16080.79     88.00102      175.514     351.1676      2.305     5.57     1067.612     61.88055     691.4854        50     2.018     1.335 -34.79   3
       444    634.4324    138.5625 307.6764442  +6.6434164     35650.67     74631.27     84069.74     87.58231     175.3045     350.8185      2.216     5.22     1067.217     61.88055     3967.067        85     2.077     1.498 -34.64   3
       445    358.0302    142.9117 307.7912132  +6.6323752     2300.338     5237.615     6147.695     88.14015     175.3743     350.9931      2.357     6.35     1076.021     61.88055     258.5679        36     1.892     1.272 -39.54   0
       446    539.9514    142.0756 307.7156072  +6.6388085     1045.268     2348.099     3122.268     87.86167     175.6536     351.0978      2.436     6.50     1066.712     61.88055     160.8236        13     1.418     0.893 -60.95   0
       447   1004.7906    141.2848 307.5223672  +6.6546389     659.2612     1064.288     870.7163      87.5823     175.2345     350.8884      1.494     5.32      1057.21     61.88055     93.01233         5     1.239     0.644 -69.59   0
       448    313.7293    132.4719 307.8099847  +6.6352015     2318.909     4936.447     5906.335     88.14016     175.7233     350.9582      2.368     6.33     1081.404     61.88055     273.3231        37     1.940     1.299 -36.08   0
       449    684.4648    126.4155 307.6560523  +6.6501028     896.9178     1702.613     1192.224     87.44228     175.4442     350.9582      2.024     5.00     1066.456     61.88055     142.0864        11     1.217     0.898 -68.16   0
       450     11.0545    115.4621 307.9363955  +6.6320655       752906      2016536      2323764     88.14015      175.514      351.028      2.552     6.36     1096.852     61.88055     61300.19       411     2.426     1.877 -42.04  28
       451    698.9259    122.6067 307.6501682  +6.6521582     2179.042     4308.464     4465.146      87.5823     175.0946     350.9233      2.119     5.12     1066.172     61.88055     273.5891        27     1.660     1.112 -44.74   0
       452    440.5335    113.6870 307.7579010  +6.6472046     2683.867     5811.989     6443.904     88.00102     175.7931     351.0978      2.209     5.66     1068.947     61.88055     290.1129        40     1.925     1.311 -29.86   0
       453    894.9000    109.9260 307.5691134  +6.6639291     1633.442      3207.52     3186.261     87.44228     175.7233     350.9582      2.010     6.99     1059.968     61.88055     216.1448        22     1.643     0.929 -36.07   0
       454    913.0653    108.8991 307.5615950  +6.6649581     2987.431     5320.413     5515.077     88.00102     175.7233     351.0629      1.870     4.80     1059.484     61.88055     353.2134        28     1.667     1.023 -31.57   0
       455    605.1989    107.9488 307.6896323  +6.6550805     1095.179     2094.781     2296.449     87.30203     175.1646     350.5739      2.065     6.70     1065.848     61.88055     148.2523        17     1.514     1.045 -15.51   0
       456    404.1628    105.5331 307.7732984  +6.6493539     1130.014     2402.837     2843.939     87.86167      175.514     351.1676      2.328     8.06     1071.366     61.88055     126.9391        21     1.802     1.007 -24.52   0
       457    152.2297    102.4912 307.8781438  +6.6421637     2202.222     4517.308      5160.12     88.14016     175.3045     350.9931      2.132     6.08     1087.642     61.88055     242.5518        35     1.823     1.337 -42.46   0
       458     33.9153    100.2137 307.9274094  +6.6391299     8132.652     17521.22     20157.26      87.5823     175.3743     350.9233      2.252     5.31     1094.943     61.88055     910.7034        59     2.004     1.432 -38.72   0
       459    301.1722    100.7996 307.8162780  +6.6478582     914.7443     2128.812     2614.227      87.5823     175.3044     350.8535      2.459     7.44     1083.868     61.88055     101.3147        14     1.319     1.175   8.25   2
       460    714.8091    126.2158 307.6434427  +6.6511981     558.8404     870.7142     776.7228      87.7221     175.3044     350.9233      1.967     4.36     1066.325     61.88055     77.01636         5     0.760     0.711  48.75   0
       461    835.4885     94.4956 307.5943357  +6.6683208     4724.166     9079.797     10142.85     88.00102      176.002     351.0978      2.082     4.90     1061.553     61.88055     536.6503        41     1.852     1.243 -26.93   0
       462    780.4893     94.9119 307.6171898  +6.6663151     2196.782     4313.546     4390.509      87.7221     176.1412     351.1676      2.042     5.86     1063.944     61.88055     278.2617        28     1.708     1.086 -39.14   0
       463    426.5616     95.8706 307.7643127  +6.6540935     707.4495     1435.668     1535.993     87.86167     175.5838     351.1328      2.204     5.17     1069.413     61.88055     97.32715         6     1.058     0.713  63.09   0
       464     74.1480     92.2581 307.9109531  +6.6437666     2110.287     4507.833     4610.697     88.00102     175.5838     351.0629      2.195     6.06     1091.582     61.88055     251.2328        33     1.919     1.225 -38.76   0
       465     58.8522     94.1332 307.9172486  +6.6424785     563.6694     944.2825     511.4897     87.86167      175.514      351.028      1.786     3.80     1092.817     61.88055     91.23792         5     0.962     0.431 -44.59   0
       466    543.7874     92.8993 307.7156740  +6.6592420     931.3149     1742.263     2184.788      87.7221     175.3044     350.8185      2.175     4.39     1065.979     61.88055     123.8889        10     0.949     0.872  46.32   0
       467    597.9493     88.3098 307.6933097  +6.6629474     840.4305     1668.056     1194.012     88.00102     175.3743     351.2025      1.935     5.79     1065.191     61.88055     120.2806        10     1.401     0.674 -67.36   0
       468     16.8535     87.5687 307.9349321  +6.6437774     1773.713     3842.956     5280.542     87.86167     175.6536     350.9582      2.562     6.13     1095.453     61.88055     198.3694        27     1.674     1.148 -34.59   0
       469    775.4390     82.3776 307.6197122  +6.6713223     1349.827     2636.101     2523.251     87.58231     175.3045     350.8185      1.886     7.11     1062.897     61.88055     164.2698        18     1.602     1.079 -28.91   0
       470    101.9518     76.3679 307.8999331  +6.6512616     6158.197     13314.06     15260.86      87.7221     175.5838     350.9931      2.282     5.39     1088.962     61.88055     683.5009        56     2.023     1.442 -42.14   0
       471    431.2501     76.0327 307.7630345  +6.6624415     1671.459     3437.278      3409.02     87.86167     175.5838     350.9931      2.216     6.97     1069.158     61.88055     205.5509        29     1.943     1.122 -37.21   0
       472    268.7128     70.6858 307.8307936  +6.6592040     941.5008     1931.382     2754.848      87.7221     175.7931     351.1328      2.505     6.79     1086.033     61.88055      144.874        13     1.454     0.964 -54.53   0
       473    644.5499     68.2573 307.6746111  +6.6727840     12593.02      25720.2     28789.74     88.00102     175.5838     351.0629      2.172     4.98     1064.003     61.88055     1414.141        61     1.995     1.395 -36.04   0
       474    544.5345     64.3778 307.7163272  +6.6710437     3429.562     7049.246     8057.502     87.58231     175.5838     350.9582      2.196     5.45     1064.809     61.88055     447.6965        38     1.855     1.248 -40.59   0
       475    262.9054     64.6601 307.8334123  +6.6614972     1329.165     3062.646     4967.202     87.86167     175.5838     351.1676      2.981     8.37     1086.108     61.88055     146.6158        24     1.722     1.138 -36.71   3
       476    270.5882     60.4584 307.8303604  +6.6634897     5872.762     13191.17     16351.81     87.30204      175.514     350.7487      2.500     5.54      1086.04     61.88055     644.0013        56     2.055     1.492 -33.27   2
       477    449.9106     60.0033 307.7558181  +6.6696847     14307.72      32054.2     35987.98     87.44228     175.2345     350.7137      2.308     5.48     1068.004     61.88055     1557.562        68     2.082     1.508 -33.32   0
       478     12.1704     62.9434 307.9377155  +6.6537874     891.9155     1889.631     3130.247      87.7221     175.6536     350.9582      2.831     7.03     1093.676     61.88055     124.8102        13     1.530     0.905 -39.25   0
       479    927.7040     60.0069 307.5571543  +6.6856340     1540.656     3039.602     3173.612      87.7221     175.1646     350.8535      2.094     6.03     1056.372     61.88055     224.1716        21     1.721     0.965 -34.31   0
       480    630.7906     58.7703 307.6806523  +6.6762417     2199.116     5031.639     6450.435     87.44228     175.3743     350.8535      2.654     7.55     1063.874     61.88055     239.1625        40     1.944     1.669  52.74   0
       481     36.2417     60.2360 307.9277999  +6.6557144     1692.232     3254.275     3170.185      87.7221     175.5838     350.9233      1.949     6.15     1091.996     61.88055      213.838        22     1.626     1.076 -43.32   0
       482    277.0178   1020.1479 307.7951958  +6.2674430      754.639     1438.029     1714.062     87.44228     175.6536     319.2557      2.271     6.86     1114.846     61.88055     108.2904        11     1.472     0.896 -25.72  16
       483    700.3644     49.4885 307.6520372  +6.6823975     1403.743     2709.012     2491.534     88.00102      175.514     351.0629      2.014     5.33     1062.388     61.88055     188.6143        20     1.458     1.036 -39.32   0
       484    948.7720     50.1038 307.5487274  +6.6904247     739.8965      1418.21     1658.003     88.14015     175.3044     350.9931      1.994     5.93     1054.451     61.88055     91.60071        10     1.210     0.819   6.95   0
       485    312.0535     55.5191 307.8132877  +6.6669192     755.5654     1484.018     1757.016     88.00102     175.5838     351.1328      2.246     6.07     1082.445     61.88055     114.4779         8     1.049     0.986  29.98   0
       486    188.1804     42.5417 307.8652304  +6.6681231     7009.593     15126.87     16899.29      87.5823     175.4442     350.8535      2.242     5.44     1086.634     61.88055     799.9652        54     2.035     1.399 -38.76   0
       487    532.2117     40.6327 307.7222534  +6.6804361     2041.425      4277.41     4586.658     87.44228     175.3044     350.9582      2.135     6.27     1064.318     61.88055     218.4191        33     1.731     1.376 -43.40   0
       488    933.5761     40.0434 307.5553847  +6.6940728     3146.752     5579.264     6002.738     87.44228     175.4442     350.8535      1.876     4.74     1054.872     61.88055     425.3809        27     1.580     1.009 -26.15   0
       489    470.2939     38.9936 307.7480536  +6.6790418     1128.693      2429.22     2908.918      87.5823     175.2345     350.8535      2.339     7.21     1066.678     61.88055     140.8453        20     1.458     1.215  -2.90   0
       490    734.4150     38.8852 307.6382366  +6.6879121     1364.633     2535.729     2945.364      87.5823     175.3044     350.9582      1.914     6.12     1060.503     61.88055     175.3131        19     1.683     0.827 -28.37   0
       491    998.3095     36.4251 307.5285894  +6.6977217     1650.714     2958.365     2778.264     88.14016     175.3743     350.8884      1.905     5.46     1049.575     61.88055     238.7437        21     1.666     0.821 -33.08   0
       492    717.8571     32.7961 307.6453269  +6.6898738     5134.602     10273.95     11078.06     87.30203     175.4442     350.7137      2.119     5.09     1060.892     61.88055     657.7653        43     1.925     1.234 -35.63   0
       493    638.1600     32.0013 307.6784920  +6.6875410     2539.669     5117.773      4899.97     87.02087     175.3044     350.7137      2.073     4.97     1063.068     61.88055      290.667        31     1.658     1.175 -31.47   0
       494    438.1230     28.5235 307.7617841  +6.6822882     4085.228     9085.898     10232.01     88.27907     175.8627     351.1676      2.319     5.88     1068.633     61.88055     439.8699        50     2.035     1.434 -35.85   0
       495     39.2893     28.1068 307.9276240  +6.6690827     5780.004     11796.01     12858.43     88.00102     176.1412     351.1328      2.147     5.26     1089.472     61.88055     672.8173        48     1.973     1.324 -40.10   0
       496    920.6058   1016.9617 307.5279118  +6.2902481     8886.567     14074.78      14237.8     87.02087     175.3044     349.4186      1.676     4.40     1106.784     61.88055     1250.595        36     1.643     0.970 -30.93  16
       497    108.6095     24.0583 307.8989405  +6.6730833      1685.78     3483.956     4236.148     87.30203      175.514     350.7487      2.287     6.69     1086.667     61.88055      200.423        28     1.837     1.090 -37.13   0
       498     99.9735     22.6651 307.9025784  +6.6733685     1028.713     2132.271      2381.21      87.5823      175.514     350.9582      2.402     7.01     1086.631     61.88055     134.5229        14     1.537     1.117 -33.65   0
       499    401.0895     21.3947 307.7774235  +6.6839919     1628.649     3475.266     3449.923     87.44228     175.2345     350.7836      2.199     6.52      1071.55     61.88055     186.1371        27     1.786     1.099 -33.32   0
       500    638.9897   1018.0125 307.6448822  +6.2804277     482.9155     751.5637     770.1006      87.7221     175.3743     342.4405      1.492     3.71     1112.437     61.88055     76.21692         5     0.642     0.615  89.79  16
       501    552.0215   1016.3887 307.6810697  +6.2781943     7594.816     12584.59     13950.78      87.5823     175.3044     350.9233      1.773     4.41     1112.176     61.88055     1012.802        35     1.688     1.021 -34.88  16
       502    539.5960     16.5614 307.7199966  +6.6906222     897.7414     1956.081     2800.646     87.02087     175.3045     350.7836      2.351     5.65     1063.149     61.88055     100.8352        11     1.413     0.637 -40.35   0
       503    894.1509   1013.2023 307.5390298  +6.2909198     11914.36     19476.46     20454.05     87.30203     175.1646     350.6089      1.731     4.46      1107.42     61.88055       1644.3        42     1.736     0.983 -31.44  16
       504   1015.9611   1012.6124 307.4884389  +6.2952164     5042.882     7854.641     8687.965     87.44228     175.3743     350.8185      1.638     4.31     1097.476     61.88055      730.127        29     1.633     0.843 -33.18  16
       505    607.2463   1013.3823 307.6582268  +6.2812799     1300.405     2201.609     2521.053     87.44228     175.4442     350.7836      1.829     5.16     1112.308     61.88055     197.2767        12     1.422     0.635 -27.47   0
       506    538.4734   1012.2596 307.6868378  +6.2794466     3792.575     6424.019     7857.106     88.14016     175.5838     351.0629      2.014     4.90     1112.165     61.88055     507.6976        29     1.770     0.969 -23.49   0
       507    648.1111   1011.6796 307.6413060  +6.2833472     1446.426     2018.549      1673.03      87.7221     175.8627     351.1676      1.559     4.15     1112.225     61.88055     232.0831        15     1.339     0.729 -31.97   0
       508    803.3281   1010.2887 307.5768633  +6.2890977     538.0801     629.8862     785.4915     88.00102     175.8627     351.0978      1.557     4.44     1109.101     61.88055      113.783         6     1.632     0.344 -31.04   0
       509     74.0482   1011.0338 307.8798272  +6.2644011     820.0546     1337.045      1309.37      87.7221     175.5838     350.9931      1.765     6.68     1115.148     61.88055     142.9755         9     1.443     0.868 -11.31   0
       510    491.6729   1008.7423 307.7064007  +6.2793350     1978.094     3157.596     3558.767     88.14016     175.5838      351.028      1.779     5.30     1112.497     61.88055     245.9088        20     1.508     0.855 -34.79   0
       511    925.9680   1000.7477 307.5262289  +6.2971218      43167.9     68251.74     71453.76     87.86167     175.5838     350.9582      1.670     4.45     1105.768     61.88055     5918.953        61     1.727     1.024 -32.56   0
       512    232.9543    999.5266 307.8141999  +6.2744815     1572.149     2593.379     2839.643     87.86167     175.6536     351.0629      1.855     5.40     1114.285     61.88055      225.631        16     1.486     0.736 -27.43   0
       513    632.3225    997.1434 307.6483558  +6.2888225     752.0938     1228.765     973.4854     88.00102     175.5838      351.028      1.696     4.48     1111.807     61.88055     115.8204         8     1.390     0.410 -26.82   0
