#   1 NUMBER                 Running object number                                     
#   2 X_IMAGE                Object position along x                                    [pixel]
#   3 Y_IMAGE                Object position along y                                    [pixel]
#   4 ALPHA_J2000            Right ascension of barycenter (J2000)                      [deg]
#   5 DELTA_J2000            Declination of barycenter (J2000)                          [deg]
#   6 FLUX_APER              Flux vector within fixed circular aperture(s)              [count]
#   9 FLUXERR_APER           RMS error vector for aperture flux(es)                     [count]
#  12 FLUX_RADIUS            Fraction-of-light radii                                    [pixel]
#  13 FWHM_IMAGE             FWHM assuming a gaussian core                              [pixel]
#  14 BACKGROUND             Background at centroid position                            [count]
#  15 THRESHOLD              Detection threshold above background                       [count]
#  16 FLUX_MAX               Peak flux above background                                 [count]
#  17 ISOAREA_IMAGE          Isophotal area above Analysis threshold                    [pixel**2]
#  18 A_IMAGE                Profile RMS along major axis                               [pixel]
#  19 B_IMAGE                Profile RMS along minor axis                               [pixel]
#  20 THETA_IMAGE            Position angle (CCW/x)                                     [deg]
#  21 FLAGS                  Extraction flags                                          
         1    611.3733     20.7402 307.6835758  +6.7066523     10361.75     18736.39      19746.7     80.74545     161.9417     323.5295      1.899     6.29     897.6472     57.05003     1450.397        42     1.863     0.973  30.20   0
         2    750.7512     15.6014 307.6258459  +6.7134611      4296.18     7665.464     8027.386     80.48706     161.4909     323.2074      1.901     6.93     897.3326     57.05003     646.1861        30     1.778     0.880  30.39   0
         3    237.6618     10.6276 307.8391614  +6.6982264     9052.909     16722.11     17853.32     80.74545     161.9417     323.6261      1.943     5.48     918.5895     57.05003     1148.538        42     1.865     1.044  31.68  16
         4     12.7276      8.4198 307.9326735  +6.6915299      16522.2     30154.12     31511.28     80.74545     161.7487     323.6261      1.922     5.98     920.9198     57.05003      2231.38        52     1.916     1.034  30.95  16
         5    753.7354      7.0011 307.6248937  +6.7171121     1404.062      2410.83      2478.22     80.48706     161.6198     315.7749      1.813     6.40      896.995     57.05003     205.4468        17     1.556     0.739  29.56  16
         6    330.6674      5.9807 307.8006819  +6.7032854     898.3872      1508.51     1813.884     80.74545     161.8774     306.8083      1.815     6.23     914.2415     57.05003     145.7423        14     1.580     0.692  28.24  16
         7    489.5704      1.4786 307.7348213  +6.7105030     4784.891     6471.989     7051.179     72.45129      130.932     245.9908      1.394     4.82     898.9633     57.05003      893.299        22     1.672     0.627   3.34  24
         8    459.3596   1009.6246 307.7135916  +6.2932562     788.3704     1501.527     1649.235     80.74545     161.7487     323.4329      1.968     6.51     940.6013     57.05003     120.0596        14     1.792     0.665  37.60   0
         9    942.3693   1022.9515 307.5126503  +6.3039831     4964.731     7990.372     7950.447     78.38931     139.3329     255.2987      1.704     5.70     930.2985     57.05003     672.5221        27     1.800     0.849  18.49  24
        10     47.5285   1023.7865 307.8840567  +6.2735112     799.0805     1013.513     1074.276     68.76363     126.8103     241.5043      1.283     3.51     942.1143     57.05003     213.5475         7     1.209     0.372   8.59  24
        11     18.3860   1008.8555 307.8966546  +6.2786900     1755.735      3379.23     3634.403     80.48706      161.813     323.3685      2.132     6.76     942.0253     57.05003     241.8442        24     1.833     0.886  32.46   0
        12    870.3576   1009.3367 307.5429965  +6.3071896     764.1014     1284.859     1498.581     81.13148      161.813     323.7226      1.893     5.11       933.03     57.05003     111.7073         7     1.037     0.712 -53.60   0
        13    868.2646   1006.8796 307.5439473  +6.3081339      646.605     1127.431     1507.091     81.38783     161.9417     323.6261      1.638     3.07     933.0436     57.05003     139.7097         5     1.057     0.444 -32.12   0
        14    941.4293   1004.8558 307.5136434  +6.3114229     575.0107     914.9139     911.6219     80.87433     161.9417     323.5617      1.577     5.04     929.6832     57.05003       83.703         7     1.602     0.449  27.72   0
        15    563.3840   1004.2958 307.6705901  +6.2989580     968.0231     1434.688     1839.802     80.87433     161.6842     323.5295      1.478     3.29     939.2272     57.05003     176.1729         7     0.902     0.687  65.34   3
        16    560.5491   1003.0262 307.6718093  +6.2993868     1152.483     1726.156     2217.918     80.74545     161.9417     323.5617      1.634     3.73     939.2791     57.05003     190.4017        10     1.046     0.674  58.32   2
        17    284.8371   1004.6290 307.7862005  +6.2894358     666.4997     1366.049      1647.63     80.74545     161.6198     323.4973      2.540     4.68     942.4966     57.05003     106.1029         7     1.443     0.430  33.68   0
        18    993.4724   1003.6127 307.4920811  +6.3136802     666.9671     1734.514     2416.132     80.61636     161.4909     323.4651      3.096     7.67     926.7664     57.05003     88.47491        12     1.627     1.012  -5.85   0
        19    601.2568    999.9641 307.6550141  +6.3020205     1065.146     2007.992     2058.543     81.00301     161.8774     323.6904      1.995     6.89     937.9537     57.05003     164.0494        15     1.614     0.825  38.64   0
        20     50.7253   1000.7327 307.8835049  +6.2831372      646.412     1400.004     2252.536     81.25976      162.006     323.6261      2.542     6.90     941.9716     57.05003      94.6571         9     1.707     0.781  24.45   0
        21    281.2699    997.8506 307.7879085  +6.2921140     1083.269     2187.035     2465.756     81.00301      161.813     323.6904      2.140     6.37     942.4835     57.05003     139.8914        15     1.735     0.656  21.93   0
        22    748.2805    994.0587 307.5941814  +6.3094000     684.2643     1579.331     2149.934     81.25976     161.9417     323.6583      2.698     6.24     934.9135     57.05003     93.15308        11     1.623     0.674  30.20   0
        23    885.5920    990.5662 307.5372984  +6.3154505     5663.805      10827.2        10966     80.61636     161.6842     323.4651      1.991     5.89     931.6822     57.05003     712.8887        40     1.956     1.047  31.46   0
        24    421.2948    987.7158 307.7301256  +6.3010193     1859.581     3383.094     4070.291     81.00301      162.263     323.7869      1.992     5.89     941.7635     57.05003     251.1953        24     1.668     0.947  33.96   0
        25    323.0424    985.9583 307.7709682  +6.2984330      7955.53     14681.99     15931.56     80.87433     161.8774     323.5295      1.960     6.22     942.3653     57.05003     1040.698        39     1.879     0.973  32.37   0
        26    243.1190    984.8262 307.8041812  +6.2962039     5763.635        10925     11620.45     81.00301     161.6842     323.6904      1.979     6.49        942.4     57.05003     809.4813        40     1.927     1.021  31.26   0
        27    571.5588    979.5078 307.6680258  +6.3094673     1032.709     2095.922     2319.405     81.13148      161.813     323.7548      2.108     7.60     938.6433     57.05003     154.5009        16     1.825     0.884  28.14   0
        28    755.5066    978.8217 307.5916904  +6.3159337     681.5362     966.9172     1176.618     81.13148     161.6842     323.4651      1.608     4.27     934.3485     57.05003     89.82556         6     1.096     0.473  29.44   0
        29    901.9253    976.0071 307.5310035  +6.3220094     794.7329     1292.048      1192.28     80.74545     161.4264     323.5295      1.611     4.40     930.4205     57.05003     135.5988         8     1.406     0.392  28.84   0
        30    859.0281    975.3075 307.5488343  +6.3208594     622.1391     868.9222     622.0371     81.25975     161.6198     323.5295      1.475     4.13     932.1392     57.05003      91.4353         5     0.821     0.594  86.53   0
        31    968.5733    971.3918 307.5034903  +6.3261493     765.7777     1315.441     1692.106     80.74545     161.6842     323.4973      1.640     4.68     926.9711     57.05003     103.7394         8     1.153     0.538  37.20   0
        32    737.5366    968.6564 307.5994894  +6.3195271     1387.167      2747.29     3279.832     81.25976      161.813     323.6583      2.016     6.18     934.4941     57.05003     197.5021        21     1.887     0.864  24.45   0
        33    561.1185    969.0869 307.6727082  +6.3134185     533.9855     897.7808     1059.053     80.87433     162.1345     323.7869      2.157     5.37     938.8292     57.05003     95.06482         6     1.590     0.512  52.44   0
        34    523.3578    964.6252 307.6885322  +6.3139898     962.0537     1943.939     1925.028     80.74545      161.813     323.4329      2.155     7.15      939.383     57.05003     139.3531        18     2.020     0.710  26.80   0
        35    968.7460    963.8926 307.5036685  +6.3292513     1010.051     2202.568     2605.941     81.00301      161.813     323.8191      2.540     7.06     926.7326     57.05003      130.985        16     1.632     0.855  48.73   0
        36    612.4797    964.3829 307.6515450  +6.3170884     558.7738     1048.943     551.1277     80.74545     161.5554     323.5617      1.886     6.23     937.3098     57.05003      131.448         9     1.249     0.873  14.87   0
        37    656.1255    961.9860 307.6335072  +6.3195456     2073.423     3804.543      3853.44     80.61636     161.6198     323.4651      1.874     6.19     936.0472     57.05003     249.4117        23     1.787     0.838  26.88   0
        38    945.8033    960.0308 307.5133212  +6.3300768     473.4095      658.697     684.6937     80.61636     161.6842     323.4329      1.561     4.31     927.7501     57.05003     77.77435         5     1.044     0.506  55.02   0
        39     52.6186    958.0375 307.8841543  +6.3008282     2368.462      4499.95     4826.452     80.74545     161.7487     323.4007      2.094     5.92     941.7069     57.05003     309.6387        25     1.789     0.912  34.85   0
        40    817.9976    959.2152 307.5664036  +6.3261267      668.453     1143.997      1029.99     80.74545     161.4909     323.4973      1.830     3.85     932.5967     57.05003     93.83563         5     0.829     0.513  57.50   2
        41     70.2334    957.3531 307.8768657  +6.3017063     1481.487     2749.386     2872.418     80.87433     161.8774     323.5939      1.936     6.83     941.7058     57.05003     244.8278        19     1.869     0.700  32.39   0
        42    932.6534    956.7977 307.5188878  +6.3309709     620.0109     1204.375     1780.059     80.48706     161.6198     323.2719      2.348     5.91     928.2871     57.05003     83.43439         7     1.120     0.877  71.63   0
        43    196.1541    956.8638 307.8246143  +6.3061630     1748.512     3442.371     3325.972     81.00301      161.813     323.6904      2.029     6.86     942.0081     57.05003     254.8604        22     1.793     0.843  29.44   0
        44    335.3838    952.9371 307.7669524  +6.3124824      782.389     1602.048     1918.207     80.61636      161.813     323.4973      2.060     6.75     942.0569     57.05003     126.5237        13     1.888     0.676  28.50   0
        45    650.7714    951.1003 307.6360935  +6.3238600     5781.052     10740.61     11427.52     81.13148     161.6198     323.5939      1.944     6.33     936.0461     57.05003     745.5029        31     1.829     0.905  28.77   0
        46    229.4841    953.3232 307.8108981  +6.3087500     660.4546     851.9969     1332.396     81.25976     162.1988     323.7548      1.174     3.41     942.0393     57.05003     133.7053         5     0.790     0.426  66.81   0
        47     10.8963    949.1055 307.9017728  +6.3031047     944.0215      1748.74     1548.493     81.13148     162.4554     323.5295      1.938     5.87     941.6362     57.05003     143.7634        12     1.614     0.602  37.65   0
        48    763.4031    948.2793 307.5894320  +6.3288091     606.0275     827.2896      886.123     80.48706     161.3618     323.4007      1.876     4.33     933.4964     57.05003     104.9775         6     1.118     0.610  40.34   0
        49    888.5518    947.2851 307.5375127  +6.3334196     2300.805     4141.339     4326.599     81.13148     161.8774     323.6583      1.888     5.86     929.9248     57.05003     307.9986        24     1.741     0.880  26.39   0
        50     25.7267    948.2747 307.8956449  +6.3039493     663.4095     691.9583     738.5405     81.38783     162.1345     323.7226      1.521     3.79     941.6353     57.05003     122.2214         5     1.004     0.412  -6.09   3
        51     22.3309    947.6233 307.8970763  +6.3041035     741.9477     1111.558     870.1323     80.74545     161.7487     323.6261      1.551     5.18     941.6339     57.05003     135.7682         8     1.203     0.630 -71.20   2
        52    333.8278    944.2219 307.7678905  +6.3160282     13345.95     25175.55     27080.84     80.61636     161.6842     323.5939      1.957     6.19     941.9904     57.05003     1777.312        47     1.886     1.025  29.78   0
        53    204.7486    943.8492 307.8214836  +6.3118264     1116.236     1919.329     2156.178     81.25976     161.7487     323.5939      1.779     6.37     941.8937     57.05003     147.8872        14     1.598     0.714  41.85   0
        54     68.3090    945.1042 307.8780762  +6.3066983     1038.302     2047.071     2419.548     81.13148     162.3913     323.6261      2.251     6.68     941.6329     57.05003     123.0787        15     1.823     0.687  31.45   0
        55     96.6656    934.6237 307.8666580  +6.3119839     1419.078     2880.307     3325.577     80.74545     161.8774     323.5939      2.059     7.52     941.5865     57.05003     196.8137        23     1.891     0.894  38.31   0
        56    411.7082    935.1541 307.7358656  +6.3223973      933.076     1397.491     1192.037     81.13148      161.813     323.7869      1.630     5.13     940.9095     57.05003     126.8108        10     1.404     0.530  25.62   0
        57    663.5752    930.4863 307.6314673  +6.3328014     643.7448     1094.723     1920.257     81.25976     161.6842     323.4973      2.298     3.50     935.3608     57.05003     115.6952         6     0.846     0.500   1.55   2
        58    491.6677    931.5363 307.7027945  +6.3265844     769.5302     1318.728     1159.984     81.13148     161.8774     323.7226      1.758     5.89     939.4953     57.05003     135.8212        10     1.610     0.607  48.30   0
        59    878.6229    928.9748 307.5422450  +6.3406465     1738.703     3244.081     3286.808     80.61636     161.7487     323.6261      1.824     6.48     929.7244     57.05003     214.1697        21     1.797     0.832  26.74   0
        60    849.4067    928.6165 307.5543856  +6.3398143     1661.314     3029.425     3381.757     80.74545     161.6198     323.4973      1.929     6.46     930.9249     57.05003     207.7074        25     1.864     0.879  35.76   0
        61     80.8799    928.4542 307.8734179  +6.3139974     2010.025     3886.439     3967.224     81.13148     161.8774     323.7226      1.977     6.48     941.5393     57.05003     248.3505        27     1.786     0.992  26.04   0
        62    812.9241    928.0902 307.5695483  +6.3388072     2416.646     4492.063     5000.236     81.13148     162.1345     323.6904      1.995     5.93     932.1259     57.05003     296.3255        24     1.817     0.824  28.13   0
        63    548.8998    919.4703 307.6794401  +6.3334926       277157       512345     543868.1     81.00301      162.006     323.6904      1.967     6.27     938.3398     57.05003     38853.81       178     2.037     1.238  31.78   0
        64    327.3973    925.4000 307.7711908  +6.3235822     509.0979     717.4197     541.1986     80.48706     161.4264     323.4007      1.408     3.85     941.8913     57.05003     97.25397         5     1.000     0.424  74.39   0
        65    393.1474    922.0665 307.7440089  +6.3271753     6415.465     11952.72      13270.6     81.13148      161.813     323.5939      1.964     6.83     940.9009     57.05003     877.8308        37     1.920     0.932  30.13   0
        66    636.9291    922.5729 307.6427932  +6.3351728       1009.1     1815.938     1363.668     80.74545     161.7487     323.5939      1.897     5.74     935.9825     57.05003     136.8262        11     1.562     0.593  29.29   0
        67    336.2985    920.4425 307.7676620  +6.3259292     10519.74     19208.13     20137.38     81.13148     161.7487     323.8834      1.936     6.05      941.722     57.05003     1348.659        44     1.888     1.012  33.82   0
        68    887.0323    915.6520 307.5391982  +6.3464292     4156.521     8063.757     8884.291     81.00301     161.8774     323.5617      2.118     5.84     928.9065     57.05003     554.2069        40     2.034     1.104  28.14   0
        69    654.7413    916.7580 307.6355932  +6.3381724     2989.211     5485.114     5635.101     81.13148     161.8774     323.7226      1.881     5.46     935.2119     57.05003     404.3997        25     1.780     0.839  31.26   0
        70    629.6022    910.8156 307.6462278  +6.3397807     2836.233     5189.344     5656.444     80.74545     161.4909     323.4651      2.033     6.03     935.7402     57.05003     378.6269        28     1.900     0.930  37.93   0
        71   1020.6180    909.8592 307.4839341  +6.3532986     3594.738     7068.412     7654.055     80.74545     161.4909     288.6168      2.029     5.68     923.0651     57.05003     435.7053        36     1.918     1.041  30.58  24
        72    818.0689    910.2637 307.5680073  +6.3463401     1205.605     2544.675     2342.431     81.13148     161.9417     323.7226      2.081     7.45     931.3024     57.05003     174.9705        21     1.981     0.783  39.03   0
        73    725.0978    912.0220 307.6065442  +6.3424922     697.8937     1112.789     567.5425     81.00301     161.6198     323.4651      1.866     3.67     933.4378     57.05003     107.7329         5     0.999     0.388  31.02   0
        74    737.8361    910.2594 307.6013150  +6.3436479      459.561     703.4749     662.5508     81.13148     161.8774     323.6261      1.207     3.50     933.1465     57.05003     80.57446         5     1.011     0.349  44.93   0
        75    619.8735    909.5912 307.6503074  +6.3399590      767.832     1441.782     1696.356     80.74545     161.4264     323.4973      2.168     4.91     935.9962     57.05003     115.5569         9     1.540     0.443  26.63   0
        76    944.4591    908.5334 307.5155952  +6.3512940     669.6678     1212.821     1514.182     81.25976      161.813     323.6583      1.967     4.12     926.3395     57.05003     115.0389         6     1.077     0.451  12.60   0
        77    906.3275    903.4887 307.5315935  +6.3520983     2661.127     4891.102     5004.899     81.13148     162.1345     323.6904      1.975     6.02     927.7327     57.05003     382.4633        28     2.005     0.847  33.96   0
        78    622.3785    905.3298 307.6494100  +6.3418027     1883.391     3271.508     4273.815     80.74545     161.7487     323.6261      1.874     5.75     935.7405     57.05003     248.7017        20     1.777     0.726  29.68   1
        79    316.3050    904.1059 307.7765094  +6.3319997     740.5934     1487.856     1547.357     81.13148     162.5195     323.5939      1.882     6.53     941.7514     57.05003     125.8683        13     1.762     0.680  26.18   0
        80    364.3391    899.4603 307.7567253  +6.3355375     2183.953     4111.144     4452.405     81.13148     161.8774     323.6904      1.934     5.73     940.9767     57.05003     289.2944        24     1.790     0.890  32.65   0
        81    500.4243    889.1365 307.7005787  +6.3443848     2642.968     4686.086     5036.412     80.74545     161.8774     323.6261      1.968     5.63     938.6534     57.05003     346.9255        26     1.757     0.924  32.35   0
        82    844.3139    887.6179 307.5578673  +6.3565708     753.0325     1416.548     1512.929     80.74545     161.6198     323.5939      2.190     4.44     929.4988     57.05003     131.7109         7     1.133     0.506  48.58   2
        83    547.2672    885.2737 307.6812619  +6.3475565     5040.389     9314.306     9828.681     81.25976      162.006     323.6261      1.939     6.66     937.5278     57.05003     661.4055        30     1.893     0.859  29.53   2
        84    553.8851    884.6042 307.6785370  +6.3480556     1296.396     2466.266     2793.862     80.61636     161.4909     323.3685      2.040     5.35     937.2756     57.05003     176.3977        16     1.470     0.909  27.91   3
        85    259.0773    885.4697 307.8008907  +6.3377631     641.2665     1069.906     1070.409     81.38783     162.1345     323.6261      1.742     5.72     941.7531     57.05003     94.99463         7     1.455     0.634  29.47   0
        86    464.8296    884.1079 307.7155235  +6.3452623     1437.582     2354.562     2090.091     81.25975     161.6198     323.5617      1.756     6.86     939.0753     57.05003       214.99        18     1.563     0.843  32.23   0
        87    883.2001    883.3378 307.5418665  +6.3596426     1160.609     2036.797     1713.378     80.35756     161.6198     323.3041      1.797     6.41     927.9025     57.05003     159.0404        16     1.700     0.731  30.15   0
        88    106.7194    883.4550 307.8642042  +6.3334491     1265.963     2268.812     2019.781     81.13148     161.8774     323.6904      1.860     6.43     941.5544     57.05003     161.9116        15     1.404     0.826  26.57   0
        89    518.0772    879.1689 307.6935840  +6.3490945     16140.47     29879.19     31826.25     81.00301     161.9417     323.6261      1.943     6.54     938.0649     57.05003     2157.669        51     1.935     1.007  29.15   0
        90    931.6118    877.4745 307.5219638  +6.3636868     3032.001     5604.402     6002.546     80.61636     161.5554     323.4329      1.992     6.38     926.1945     57.05003     394.4971        27     1.789     0.900  33.03   0
        91    163.1758    878.2260 307.8409441  +6.3375156     527.5278     706.2262      965.808     80.61636     161.6842     323.5295      1.425     3.98     941.6921     57.05003     76.01526         6     0.782     0.579  44.56   0
        92     28.3479    869.5873 307.8972030  +6.3365245     1286.894     2465.831     2497.048     80.48706      161.813     323.3685      1.926     6.80     940.6046     57.05003     204.1245        19     1.716     0.757  34.97   0
        93    573.5677    868.6962 307.6708982  +6.3552859     652.5783     1073.045     1262.383     81.25976     161.7487     323.7548      2.015     5.75     936.0387     57.05003     105.5403         8     1.393     0.668  38.15   0
        94    310.7123    867.8505 307.7800469  +6.3467796     2712.985     5074.348     5270.005     81.13148     161.7487     323.7869      1.988     6.43     941.3728     57.05003     378.8772        26     1.814     0.871  31.05   0
        95    776.1962    863.7692 307.5869422  +6.3641309     44907.01     83188.48     88316.08     80.61636     161.7487     323.4329      1.928     6.61      931.195     57.05003     6375.552        75     1.950     1.090  30.82   0
        96     10.4627    865.8253 307.9047538  +6.3374726     1905.783     3431.107      3409.76     80.74545     161.8774     323.5617      1.887     5.66     940.2885     57.05003     259.7026        22     1.782     0.878  40.81  16
        97    233.3778    861.3896 307.8123672  +6.3468374     4473.917      8620.96     10972.32     80.74545     161.6198     323.5295      2.302     5.55     941.4434     57.05003     626.9348        40     1.927     1.100  35.06   0
        98    418.4767    861.7363 307.7355154  +6.3529372      582.015     755.4778     595.0235     81.38783     161.8774     323.6261      1.168     3.41     938.7124     57.05003     99.42767         5     0.747     0.449 -68.57   0
        99    901.4684    859.0345 307.5350927  +6.3702896     6846.114     12622.62     13447.93     81.00301     161.9417     323.7548      1.940     6.16     926.6226     57.05003     894.7487        38     1.882     0.986  31.51   0
       100    699.3334    855.4965 307.6191282  +6.3649646     64341.56       129091     169431.6     81.13148     161.9417     323.6904      2.600    11.70     932.4733     57.05003     10386.32       123     3.446     1.106  29.59   0
       101    342.9819    855.6364 307.7670603  +6.3529108     17085.62      31916.4     33837.39     80.61636     161.6842     323.4329      1.965     6.08     940.4666     57.05003     2363.301        56     1.945     1.051  31.10   0
       102    392.1675    855.7904 307.7466365  +6.3545054     1201.124     2247.281     2273.907     80.61636     161.6198     323.4973      1.909     6.43     939.2559     57.05003     170.5751        19     1.637     0.906  30.48   0
       103    404.8856    853.4911 307.7414338  +6.3558834     18154.44     33954.42     36066.23     80.87433     162.3271     323.7869      1.955     6.51     938.8298     57.05003     2507.766        51     1.876     1.047  30.48   0
       104    631.5274    855.3328 307.6472834  +6.3627528     731.4805     1380.524     2091.848     81.25976      162.006     323.6583      1.765     4.50     933.6627     57.05003     145.2783         8     1.360     0.423  23.60   0
       105    233.0192    839.9927 307.8132342  +6.3556593     737543.4      1845417      2079674     80.74545     161.5554     323.4651      2.448     8.58     940.8043     57.05003     62838.34       555     2.545     1.989  37.17   4
       106    941.9719    852.5917 307.5184921  +6.3743078      1695.36     3273.652     3386.568     80.74545     161.6842     323.4651      2.058     6.03      925.225     57.05003     207.0403        21     1.639     0.862  27.84   0
       107    898.3828    850.4614 307.5366596  +6.3737258     5621.484      10257.3     11442.51     80.74545      161.813     323.4651      1.947     5.67     926.4637     57.05003     834.3868        34     1.912     0.916  30.03   0
       108    638.9553    849.4066 307.6443978  +6.3654493     5238.284     10029.57     10962.69     80.61636     161.6842     323.3041      2.020     6.64     933.3226     57.05003      770.947        31     1.853     0.881  31.24   0
       109    427.5000    847.2927 307.7322533  +6.3592046     1304.158     2416.602     2081.203     81.13148     162.3913     323.6261      1.832     5.84     938.2653     57.05003     202.1409        14     1.683     0.571  27.96   0
       110    592.8460    841.3283 307.6638102  +6.3672339     646.0775     1134.065     1224.077     81.13148     161.8774     323.6583      1.969     7.38     934.3774     57.05003     113.0281        12     1.715     0.890  32.49   0
       111    866.7774    841.3898 307.5500835  +6.3764111     595.1483     1178.493     1216.293     80.74545     161.6198     323.4973      1.826     5.12     927.2073     57.05003     118.0087         6     1.390     0.533  22.61   0
       112    673.9558    839.6285 307.6301940  +6.3706631     2040.573     3942.782     4221.608     80.74545     161.9417     323.5617      1.940     6.59     932.1522     57.05003     281.6254        26     1.800     0.853  34.49   0
       113    143.0769    840.3815 307.8505588  +6.3524610     767.0375      1443.52     1336.164     80.61636     161.6198     323.6261      1.856     5.60     941.3946     57.05003     114.1259        10     1.521     0.581  34.60   0
       114    407.8223    836.1843 307.7407946  +6.3631278     44173.76     81889.63     87316.71     80.87433     161.6842     323.5939      1.939     6.23     938.3292     57.05003     5795.075        79     1.975     1.119  28.06   0
       115    120.3305    840.6691 307.8599917  +6.3515737      645.475      1282.55      1520.58     81.13148      162.006     323.6261      2.082     4.67      941.215     57.05003     125.6212         7     0.854     0.725 -23.00   2
       116    950.8466    837.7603 307.5153019  +6.3807289     702.5667     1262.342     1629.283     81.00301     161.8774     323.4651      1.899     4.42     924.4757     57.05003     121.8411         7     1.325     0.419  22.23   0
       117    525.5860    835.1929 307.6919385  +6.3675036     5841.726     10632.08     10645.69     80.74545     161.6198     323.4973      1.880     6.22     935.9016     57.05003     830.3823        32     1.845     0.888  29.95   0
       118    442.2208    833.7552 307.7265956  +6.3652897     3760.023     6942.377     7346.843     80.61636     161.7487     323.4651      1.924     6.78      937.632     57.05003     525.9051        28     1.862     0.849  30.68   0
       119    770.7803    831.8926 307.5902548  +6.3771101     9520.139     17576.68     18465.86     81.00301     161.6842     323.4973      1.929     6.27     930.1381     57.05003     1220.144        43     1.902     0.967  29.18   0
       120      1.6015    828.7251 307.9096802  +6.3524899     665.3565     799.1765     1043.257     73.87483     132.4347     248.0568      1.061     2.42     940.1829     57.05003     138.1416         5     0.692     0.464  72.28  24
       121    439.1101    827.0585 307.7281113  +6.3679498     1832.815     3297.759     3561.925     81.00301     161.8774     323.7869      1.910     5.93     937.4505     57.05003     258.3951        22     1.626     0.938  27.62   0
       122    792.2717    825.8948 307.5815326  +6.3803081     1003.491     1863.546     2220.655     81.00301     161.9417     323.6583      2.224     5.85     929.0884     57.05003     173.0851        12     1.615     0.598  25.87   0
       123    136.5817    823.9880 307.8538059  +6.3590098     2512.808     4693.653     4613.027     80.87433     161.5554     323.5617      1.934     6.02     941.1662     57.05003     341.5673        26     1.779     0.921  28.73   1
       124    128.5414    823.7001 307.8571533  +6.3588569     9541.139     17785.62     19492.88     80.87433     161.8774     323.8191      1.969     6.02     941.0684     57.05003     1313.067        44     1.907     1.033  30.74   3
       125    120.7769    821.1730 307.8604615  +6.3596379     2483.059     4938.339      5822.96     80.61636     161.7487     323.5617      2.051     6.51     940.9259     57.05003     306.0458        25     1.910     0.874  34.68   3
       126    965.3494    820.4107 307.5098589  +6.3883783     1189.152     2127.289     2947.412     80.48706     161.7487     323.3685      2.035     6.52     923.5424     57.05003      160.627        18     1.770     0.781  33.17   0
       127    916.3163    820.4391 307.5302151  +6.3867227     5191.151     9757.525     10080.76     81.13148      161.813     323.5939      1.985     6.21     924.9985     57.05003     677.3485        35     1.877     0.954  31.24   0
       128    671.9948    818.1443 307.6317261  +6.3794675      1272.98     2363.228     2893.977     80.48706     161.6842     323.3685      1.892     6.20     931.4844     57.05003      238.608        18     1.894     0.650  31.02   0
       129    558.5190    817.2953 307.6788651  +6.3760014     1812.693     3572.676     3572.853     80.87433     162.1345     323.7548      2.000     7.19     934.2344     57.05003     286.0499        22     1.850     0.836  36.64   0
       130    405.4379    816.1544 307.7424556  +6.3713171     794.6846     1143.785     1371.402     80.87433      161.813     323.5617      1.801     4.44      937.863     57.05003     123.7131         8     1.129     0.496  88.86   0
       131    120.8402    814.7463 307.8606512  +6.3622933     1607.204     3082.366     3790.151     81.00301     161.8774     323.6261      2.017     7.23     940.8367     57.05003      264.726        20     1.733     0.845  29.65   0
       132    939.9488    811.9649 307.5206860  +6.3910139     2591.722     4803.869     4684.001     81.00301     161.8774     323.5617      1.958     6.05      923.965     57.05003     384.8741        25     1.859     0.836  33.12   0
       133    910.4775    812.3685 307.5329083  +6.3898591     2595.306     4736.714     4672.903     81.00301     161.8774     323.6261      1.941     5.43     924.9808     57.05003      365.512        29     1.834     0.957  30.37   0
       134    662.5582    811.5479 307.6358643  +6.3818737     1184.989     2306.644     2956.126     81.13148     161.9417     323.6583      2.224     6.88     931.5683     57.05003     162.1074        17     1.928     0.688  32.70   0
       135    970.5765    811.5407 307.5079843  +6.3922157     1471.159     2600.892     2574.078     80.74545     161.8774     323.4973      1.772     6.77     923.1573     57.05003      208.604        16     1.694     0.758  26.98   0
       136    810.1341    809.9062 307.5746503  +6.3875091     929.9655      1673.56      1515.91     81.13148     162.0703     323.6582      1.841     6.50      927.869     57.05003     127.1605        14     1.549     0.765  24.90   0
       137    235.4607    806.5386 307.8133435  +6.3695536     1540.267     3031.943     4191.342     81.13148     161.8774     323.6904      2.500     7.54     939.8004     57.05003     205.9565        21     1.737     0.986  28.17   0
       138    884.0857    806.3327 307.5440668  +6.3914660     547.5857     941.8438     1416.501     81.25976     162.1345     323.6904      1.533     3.75     925.8364     57.05003     110.1598         5     0.826     0.488  57.50   0
       139    287.8761    805.4490 307.7916201  +6.3717725     304.2393     616.8737     531.9604     81.00301     161.9417     323.6583      3.291     4.48     939.7449     57.05003     99.24353         5     1.210     0.472   8.03   0
       140    928.1248    802.0640 307.5259251  +6.3947054     859.7054     1508.448     1157.939     81.38783     161.8774     323.6261      1.711     6.06     923.9529     57.05003     117.1086        10     1.596     0.648  33.25   0
       141    902.0239    800.7859 307.5368042  +6.3943578     868.7451     1529.513     1295.599     80.87433     161.6842     323.5939      1.822     6.15      924.982     57.05003     149.2583        12     1.573     0.675  35.40   0
       142    255.1684    802.0225 307.8053136  +6.3720834      527.516     1058.466     1429.553     80.61636     161.6842     323.4651      2.009     4.01     939.6484     57.05003     111.0167         5     1.302     0.354  23.84   0
       143    954.7797    799.6761 307.5149381  +6.3965849     1990.068      3642.86     3438.859     80.74545     161.6198     323.5939      1.888     6.45     923.2376     57.05003     270.7765        22     1.793     0.775  34.52   0
       144    149.5786    800.7382 307.8491915  +6.3690478     646.4673     891.4188      154.483     80.74545     161.8774     323.5617      1.313     3.46     941.1403     57.05003      106.927         5     0.724     0.479  77.16   0
       145    673.9373    798.7841 307.6315667  +6.3875261     764.4113     1585.902     2404.874     80.61636      161.813     323.4973      2.731     6.94     930.8553     57.05003     132.7866        14     1.720     0.785  21.13   0
       146    243.6381    798.6577 307.8102132  +6.3730834     635.0898     1460.259     3894.156     81.13148     161.9417     323.6583      4.151     5.12     939.5507     57.05003      82.4624         5     1.030     0.720  30.71   0
       147    998.3251    793.6895 307.4970583  +6.4005160       1153.7     1291.444     1710.502     81.13148     162.1988     323.7548      1.194     3.16     922.1975     57.05003     179.8862         9     0.913     0.663  21.66   3
       148    995.4544    792.3601 307.4982944  +6.4009687     1162.508     1528.712     1740.099     81.00301     161.9417     323.6583      1.636     5.40     922.2679     57.05003     199.0306        10     1.254     0.656  69.21   2
       149    797.9199    791.4822 307.5803363  +6.3947059     984.9102     1991.897     2500.207     81.13148     162.1345     323.7548      2.032     6.50      927.616     57.05003     137.2455        15     1.660     0.715  25.85   0
       150    622.4483    792.5743 307.6531509  +6.3883588     515.6404     872.3428    -116.6552     80.74545     161.9417     323.5617      1.588     3.47     932.2446     57.05003     89.64215         5     1.115     0.312  20.99   0
       151    883.8387    788.5463 307.5447625  +6.3988014     1373.717     2431.831     2460.986     81.13148     161.9417     323.6583      1.917     6.56     925.3771     57.05003     202.6525        16     1.831     0.660  37.98   0
       152    858.3763    784.0729 307.5554832  +6.3997941     751.4086      1400.42     1720.829     80.74545     161.6842     323.5939      2.002     6.07     926.0411     57.05003     107.2279        11     1.508     0.687  45.04   0
       153    839.6656    779.3681 307.5634085  +6.4011088     920.8295     1739.788     2375.813     81.00301     161.9417     323.5939      2.271     4.82      926.314     57.05003     195.1064         9     1.123     0.587  49.94   2
       154    104.3484    778.0362 307.8687312  +6.3768920     933.6116      1987.94     2123.935     81.00301     161.8774     323.5939      2.345     6.35     939.9317     57.05003     104.4194        12     1.141     0.991 -47.38   2
       155     40.1594    779.0931 307.8953432  +6.3742851      2106.87     3614.875     3850.708     81.25975      161.813     323.7548      1.789     5.84     940.1373     57.05003     286.3342        21     1.598     0.869  28.04   0
       156    558.1023    774.5811 307.6804673  +6.3936229     555.2245     1045.628     1352.948     81.00301     161.7487     323.4007      2.044     4.87      932.389     57.05003     88.41071         6     1.230     0.547  24.76   0
       157    652.9261    767.7318 307.6413278  +6.3996404     5199.419     9453.541        10401     81.25976      162.006     323.6261      1.951     6.49     930.6074     57.05003     771.3351        32     1.804     0.936  29.36   0
       158    599.3120    766.8699 307.6636160  +6.3981932     1007.792     1956.228     2004.055     81.13148     162.1345     323.6583      1.928     6.51     931.6603     57.05003      147.411        14     1.781     0.669  23.60   0
       159    521.3922    767.0846 307.6959592  +6.3954824     494.9371     985.5929     938.7338     80.74545     161.5554     323.4973      1.796     4.50     932.7356     57.05003     113.9884         6     1.892     0.304  27.94   0
       160    509.4880    766.4504 307.7009227  +6.3953434     627.8188      699.605     1173.052     81.13148     161.6842     323.7869      1.411     3.69     932.9753     57.05003     119.4462         6     0.977     0.402  70.49   0
       161    989.9449    763.1901 307.5015537  +6.4128278     2010.193     4010.948     4400.859     80.48706      161.813     323.3363      2.058     6.25     922.3652     57.05003     304.5186        25     1.929     0.837  34.03   0
       162    238.5518    763.4051 307.8135081  +6.3874662     633.5294     1362.443     1886.553     80.48706     161.6842     323.3363      2.609     6.63     938.3501     57.05003     110.1124        10     1.832     0.673  37.79   0
       163    115.9120    763.5383 307.8644179  +6.3832684     3242.167     6122.578     6234.941     81.13148     162.0703     323.7226      1.962     5.67     939.7664     57.05003     388.3147        32     1.734     1.031  29.19   0
       164    626.6528    763.3980 307.6523809  +6.4005463     1526.761     2782.596     2643.965     80.48706     161.6198     323.2397      1.934     6.83     931.0175     57.05003     229.2085        18     1.728     0.757  27.46   0
       165    769.7777    759.8531 307.5930763  +6.4068198     16802.77     30764.57     32755.28     80.61636     161.8774     323.4651      1.929     6.22     927.7612     57.05003     2215.818        54     1.921     1.029  31.48   0
       166    469.0674    760.0911 307.7179172  +6.3966078     1170.141     2093.102     2427.323     81.25976      162.006     323.6582      1.784     6.85     933.7946     57.05003     164.8648        18     1.877     0.732  33.58   0
       167    899.8655    759.6959 307.5390705  +6.4112506     3139.879     5912.379     6508.983     81.13148      162.006     323.6904      2.018     6.14     924.1718     57.05003     416.0518        29     1.833     0.886  28.38   0
       168    498.7631    760.7283 307.7055670  +6.3973448      573.162     880.7921     871.2715     81.00301     161.8774     323.6904      1.527     3.46     933.0153     57.05003     119.3397         5     0.879     0.413  45.81   1
       169    495.5880    758.7470 307.7069515  +6.3980559     562.9797      661.071     703.2762     80.48706      161.813     323.3685      1.163     2.94     933.0096     57.05003     109.2831         5     0.731     0.441  68.00   0
       170    243.2970    753.4351 307.8118727  +6.3917426     5170.111     9492.936     10635.89     81.13148     161.7487     323.8191      1.975     5.91     938.0166     57.05003     652.2977        32     1.807     0.941  32.99   0
       171    650.2871    752.6334 307.6429283  +6.4057855     5819.981     10552.42     10827.95     81.13148     161.7487     323.6583      1.914     6.85      930.234     57.05003     844.3024        33     1.880     0.899  28.62   0
       172    631.8331    753.6543 307.6505559  +6.4047434     612.4822     1223.812     1014.575     81.00301      161.813     323.5939      1.974     4.37     930.6005     57.05003     85.20111         7     1.344     0.405  25.81   0
       173    910.5552    745.2851 307.5351127  +6.4175590     939.3652      1682.92     1390.051     81.13148      161.813     323.6583      1.878     6.28     923.6513     57.05003     147.4394        14     1.623     0.682  27.01   0
       174    988.3948    737.7619 307.5030445  +6.4232746     7404.975     13594.95     14433.41     80.22784     161.6198     323.4007      1.928     6.13     922.3796     57.05003     1003.948        37     1.888     0.982  32.94   0
       175    722.0758    741.0653 307.6135091  +6.4129745     3023.905     5653.854     5839.754     81.25976     161.8774     323.5939      1.932     6.70      928.249     57.05003     400.5974        27     1.748     0.900  28.10   0
       176    677.8722    741.7593 307.6318388  +6.4112025     832.0212     1602.756      1795.74     81.00301     161.8774     323.7226      1.855     6.15      929.428     57.05003     114.2987        13     1.518     0.700  23.68   0
       177    926.8018    738.0877 307.5286071  +6.4210755     2070.191     3750.753      3655.17     80.35756     161.4909     323.3685      1.855     6.32      923.295     57.05003     278.0362        21     1.751     0.742  32.67   0
       178      7.3040    737.3900 307.9103858  +6.3903909     1647.824      3014.16      3795.25     80.87433     161.4909      317.846      1.931     6.32     940.4539     57.05003     239.6756        19     1.658     0.761  27.52  16
       179    527.2081    733.5756 307.6946662  +6.4095130     1581.416     3036.531     3125.067     80.74545     161.6842     323.4973      1.991     5.88      931.304     57.05003     279.0763        21     1.947     0.761  28.29   0
       180    423.8311    735.6151 307.7375181  +6.4051891     538.2319     876.3832     1264.638     80.74545     161.6198     323.5939      2.094     3.51     934.1644     57.05003     79.51862         5     0.786     0.452  16.15   0
       181     65.7013    732.4104 307.8863094  +6.3944222     21136.97     38985.78     40820.27     80.87433     161.4909     323.4651      1.945     5.94     939.5486     57.05003     2781.784        53     1.902     1.059  31.50   0
       182    495.6000    730.6010 307.7078889  +6.4096769     1131.312     2145.258     1953.966     80.48706     161.4264     323.3363      1.893     6.51     931.9808     57.05003     160.6008        15     1.736     0.686  29.29   0
       183    916.5380    729.4809 307.5331556  +6.4242849     820.7024     1612.401     1415.251     81.25976     161.8774     323.6261      2.114     5.94     923.1362     57.05003     133.8928        12     1.797     0.552  35.48   0
       184    535.7335    727.4185 307.6913326  +6.4123422     946.2628     1811.454     1870.601     80.74545     161.8774     323.5617      1.997     6.46     930.9418     57.05003     122.8885        14     1.609     0.727  27.75   0
       185    711.6114    724.7437 307.6183991  +6.4193617     2864.955     5121.821     5151.607     80.48706      161.813     323.3363      1.934     5.83     927.9871     57.05003     356.2386        25     1.775     0.824  31.06   0
       186    733.6509    722.9902 307.6093070  +6.4208262     3483.795      6291.04     6332.227     80.61636     161.7487     323.3685      1.850     5.85     927.3571     57.05003     473.4948        26     1.760     0.837  33.54   0
       187    565.1299    720.8240 307.6793483  +6.4160542      2620.69     4771.516     5045.912     80.74545     161.7487     323.5939      1.862     6.97     930.3636     57.05003     406.2042        23     1.832     0.744  34.59   0
       188    401.5999    721.4614 307.7472223  +6.4102834     1189.816     2145.499     1944.017     80.35756     161.6198     323.3041      1.801     6.07     934.2261     57.05003     188.5063        15     1.590     0.651  30.16   0
       189   1006.4761    719.2184 307.4961548  +6.4315367     4111.483     7363.284     7088.784     80.61636     161.6198     323.6261      1.907     6.08     920.7125     57.05003     565.6235        29     1.865     0.862  30.65   0
       190    972.0521    718.1490 307.5104836  +6.4308247     6724.777     12288.54     12885.08     81.25976     161.7487     323.6904      1.961     5.78     921.4408     57.05003     878.6422        38     1.914     0.929  34.06   0
       191    309.3108    719.6838 307.7855984  +6.4079051     1159.173     2076.255     2059.493     80.87433     162.1345     323.7548      2.009     7.27     936.4587     57.05003     196.4884        17     1.764     0.840  34.29   0
       192    225.7354    720.2072 307.8202792  +6.4048683     1430.078     2609.992     2717.009     80.61636     161.6198     323.4651      1.922     7.18     937.1059     57.05003     179.8892        19     1.745     0.829  28.55   0
       193    691.7672    716.9733 307.6268980  +6.4219030     944.1366     1696.334     1649.846     80.61636     161.6198     323.4651      2.024     4.90     928.2293     57.05003     172.1526        12     1.542     0.709  26.91   0
       194   1021.2952    716.9432 307.4900776  +6.4329726     794.8179     1317.248     1118.009     81.00301     157.6399     280.0453      1.698     6.41     920.1946     57.05003      133.657        10     1.482     0.779  17.27  24
       195     85.2440    715.6619 307.8787592  +6.4019978     617.6539      1430.25     1827.261     81.13148      161.813     323.7869      2.840     4.72     938.7686     57.05003     122.7155         5     1.354     0.466  72.82   2
       196    417.2437    712.3008 307.7410343  +6.4145928     2382.821     4424.381       5136.6     81.13148     161.7487     323.8834      2.003     5.60     933.5816     57.05003     309.2822        24     1.679     0.951  32.54   0
       197    130.4475    711.3055 307.8601388  +6.4053245     19968.79     36886.01     38727.91     81.00301     161.7487     323.7869      1.941     6.26     938.1505     57.05003     2537.294        51     1.896     1.053  30.49   0
       198    798.8283    712.0863 307.5826094  +6.4275171     987.8253     1768.964     1940.363     81.25975     161.5554     323.5295      1.854     5.94     925.6315     57.05003     166.5117        13     1.604     0.620  28.38   0
       199    349.2545    705.9973 307.7694736  +6.4149032     728.9986     1226.585     1201.448     80.48706     161.6842     323.3041      1.882     4.69     935.0091     57.05003      88.1756         8     1.000     0.624  26.36   0
       200    966.9668    700.9946 307.5131667  +6.4377370     5894.708     11226.91     12314.06     80.48706     161.6842     323.4651      2.011     5.85     920.5468     57.05003     778.1074        37     2.013     0.918  33.33   0
       201     11.5064    700.1721 307.9098933  +6.4058987     1048.368     1680.296     1794.086     81.25976     161.6198     323.5617      1.644     6.48     940.4864     57.05003     146.8154        15     1.652     0.713  18.16   0
       202   1021.8613    696.0745 307.4905376  +6.4416078     75624.14     128081.5     132475.7     81.38783     152.4677     271.8935      1.787     7.37     918.3823     57.05003     9847.068        71     1.760     1.075  39.68  24
       203    560.4507    696.2227 307.6821143  +6.4260539     40252.69     72981.75     76851.27     80.61636     161.9417     323.5617      1.911     6.09     929.8919     57.05003     5405.303        66     1.921     1.052  30.91   0
       204    923.4270    697.4723 307.5313625  +6.4377316     442.8787     530.4528     296.3115     80.74545      161.813     323.5617      1.150     4.99     921.7753     57.05003     89.48376         6     1.196     0.589  46.20   0
       205    205.0204    698.7231 307.8296008  +6.4130387     485.7181     935.8769     1512.692     80.74545     161.6198     323.6261      2.572     3.51     936.9048     57.05003     90.89526         5     0.784     0.454  20.59   2
       206    167.9864    692.8776 307.8451728  +6.4142011     2227.672     4016.292     3958.873     80.74545     161.5554     323.4651      1.798     6.16     937.1403     57.05003      334.175        24     1.804     0.788  32.20   0
       207     60.6904    687.1277 307.8899125  +6.4129480     1159.662     2049.688      2234.45     81.13148     162.1345     323.6583      1.874     6.48     938.7602     57.05003     161.4016        16     1.691     0.698  34.60   0
       208    457.7336    680.0172 307.7253048  +6.4292861     51415.71     94687.09     100291.4     80.61636      161.813     323.5295      1.924     5.97     931.2795     57.05003      6586.88        73     1.926     1.093  30.40   0
       209      2.3178    681.8120 307.9143259  +6.4131678     1145.467      1720.41     1665.333     80.09792     142.5109     259.5068      1.597     5.40     940.9171     57.05003     161.2306        11     1.277     0.645  37.92  24
       210    643.2197    677.1425 307.6483865  +6.4367160     815.1193     1337.262     1006.955     80.74545     161.7487     323.4651      1.854     5.03     927.7018     57.05003     110.6844         8     1.181     0.606  40.23   0
       211    132.2645    675.0323 307.8606034  +6.4203616     1279.919     2362.705     1818.984     80.87433     161.9417     323.6261      1.953     6.19     936.7123     57.05003     193.4003        20     1.834     0.931  31.05   0
       212    410.9208    672.6034 307.7449898  +6.4307695     700.4492     1401.958     1933.726     80.48706     161.3618     323.4007      2.128     6.53     932.4537     57.05003     135.5286        10     1.679     0.712  38.63   0
       213    603.8734    671.9821 307.6648960  +6.4375232     733.5547     1390.219     1647.595     80.61636      161.813     323.5617      1.921     4.52     928.1905     57.05003     114.3723         8     1.362     0.426  29.13   0
       214    303.0887    669.3536 307.7898702  +6.4284748     1770.813      3379.86     3881.489     81.13148     161.7487     323.7548      2.053     6.25     934.9634     57.05003     239.4425        21     1.601     1.000  26.18   0
       215    455.2668    667.7081 307.7267414  +6.4342849       714.32     1404.669     2115.452     81.00301     162.0703     323.6904      2.145     4.97     931.0019     57.05003     107.7408         9     1.635     0.428  30.15   0
       216    729.8342    663.5941 307.6128758  +6.4452212     4272.855       7630.5     8066.986     80.35756     161.6842     323.4329      1.913     6.32     925.6044     57.05003      614.368        32     1.876     0.888  32.82   0
       217    783.3207    658.8734 307.5908249  +6.4489668     11598.08     20662.64      22072.3     81.38783     162.1345     323.6904      1.892     6.46     924.2239     57.05003     1756.648        42     1.913     0.920  31.35   0
       218   1022.4381    657.8793 307.4915704  +6.4573972     1755.047     2642.735     2872.673     81.00301     145.9767     263.2919      1.587     4.82     915.9057     57.05003     264.5901        18     1.480     0.818  43.52  24
       219   1000.6434    659.2274 307.5005752  +6.4561104     906.7219     1454.754     1914.671     80.74545     161.9417     323.5617      1.692     5.52     916.8997     57.05003     132.1426        12     1.498     0.574  25.66   0
       220    527.4879    659.5342 307.6970285  +6.4400920     806.1257     1254.711     1340.728     81.13148     162.0703     323.6904      2.171     4.12     929.5723     57.05003     122.7615         6     1.033     0.469  54.56   2
       221    607.3521    656.8992 307.6639562  +6.4438676     2430.328     4343.202     4762.333     81.13148     161.7487     323.8513      1.936     6.72     927.4418     57.05003     338.5403        24     1.745     0.850  33.30   0
       222    924.8490    653.3081 307.5322445  +6.4560138     972.0069     1985.979     2388.911     81.00301     161.7487     323.8191      2.399     6.51     920.1771     57.05003     175.6282        15     1.970     0.603  30.18   0
       223    219.7055    650.3589 307.8251279  +6.4335023     962.4017      1965.65     2389.321     81.13148      161.813     323.7869      2.399     6.97     935.6124     57.05003     143.6962        15     1.666     0.818  38.23   0
       224    365.3349    650.2772 307.7646655  +6.4384504     906.5434     1683.548     1552.097     81.25976     161.8774     323.6261      2.054     6.04     932.7496     57.05003     126.7767        12     1.439     0.714  24.06   0
       225    349.0736    649.9490 307.7714283  +6.4380375     482.2959      581.253     500.5897     81.13148     161.9417     323.6904      2.006     3.88     933.1295     57.05003     76.68982         5     1.252     0.344  25.51   0
       226    859.2190    641.9580 307.5598746  +6.4584985     2297.772     4211.138     4883.618     80.61636     161.6842     323.4329      1.931     6.51      922.131     57.05003      357.236        22     1.876     0.734  29.79   0
       227    154.0155    641.6050 307.8526960  +6.4348974     655.3712     995.0118      348.126     80.74545     161.5554     323.4973      1.626     5.61     936.0394     57.05003     89.24237         9     1.528     0.581  31.50   0
       228    817.9862    639.4424 307.5770796  +6.4581533     1994.224     3752.429     3757.813     80.48706     161.6842     323.4007      1.877     6.94     922.9028     57.05003     266.0558        24     1.842     0.842  33.40   0
       229    789.0405    635.4571 307.5892318  +6.4588269     2130.052     4050.335     5097.979     81.13148     161.9417     323.6904      2.119     5.91     923.3974     57.05003     315.0606        25     1.880     0.807  33.45   0
       230    798.7397    630.7570 307.5853613  +6.4610931     130151.8     236413.1     250567.1     81.13148     161.8774     323.7869      1.924     6.53     923.0995     57.05003     16770.39       117     1.988     1.144  30.43   0
       231    732.1166    636.3983 307.6128367  +6.4565263     515.7433     903.8452     1835.177     80.48706     161.4909     323.3685      2.301     5.12     924.4734     57.05003     107.8213         5     1.441     0.513  22.78   2
       232    729.6530    632.9827 307.6139738  +6.4578538      483.152     1501.851     2085.066     80.61636     161.9417     323.3685      2.846     6.08     924.3734     57.05003     129.4193         5     1.501     0.694 -88.65   2
       233    246.1299    634.4487 307.8146908  +6.4409633     6515.914     11893.09     12542.82     81.13148      161.813     323.6904      1.946     6.02     934.5629     57.05003     873.6434        36     1.816     0.984  29.60   0
       234    180.3149    628.9323 307.8422023  +6.4410181     47468.48     87961.46     93851.95     81.51569     162.1345     323.6904      1.973     6.15     935.5964     57.05003     6078.205        76     1.954     1.158  31.68   0
       235    104.3180    625.1465 307.8738832  +6.4400127     4969.871     9413.387     10048.64     81.13148     161.8774     323.7226      1.993     6.01     936.4244     57.05003     678.6754        36     1.863     1.017  32.78   0
       236    969.4266    622.5353 307.5147603  +6.4702137     1317.894     2238.958     2570.948     80.74545      161.813     323.5617      1.891     6.62     917.2603     57.05003     170.1069        17     1.631     0.754  27.99   0
       237    990.3206    620.9203 307.5061381  +6.4715807     573.0273     906.0265       537.03     81.38783     162.1345     323.8191      1.582     5.32     916.1801     57.05003     102.3769         7     1.255     0.637  43.98   0
       238    835.2833    617.9252 307.5706155  +6.4676178     3841.178      6929.08     7129.788     81.25976     162.1988     323.7226      1.886     6.11      921.787     57.05003     519.5176        30     1.832     0.898  27.47   0
       239    353.6774    616.0963 307.7706520  +6.4521694     13888.63     26448.37     27662.16     80.87433     162.0703     323.7226      1.965     6.19     931.8071     57.05003      1780.08        49     1.894     1.070  30.32   0
       240    443.5748    615.8445 307.7333336  +6.4553039     649.8464     1047.641       1297.8     80.61636     161.9417     323.5295      1.992     4.66      929.752     57.05003     105.9896         6     1.058     0.582  30.90   0
       241    155.5226    615.1176 307.8529603  +6.4458839     1490.645     2714.334     3064.983     81.25975     162.1345     323.7869      1.895     6.72     935.6823     57.05003     237.0597        17     1.888     0.671  30.19   0
       242    520.0157    610.9836 307.7017565  +6.4598855     5258.485     9646.224     9769.308     80.87433     161.5554     323.5939      1.892     6.55       928.33     57.05003      672.902        35     1.818     0.990  34.15   0
       243    789.2438    611.3152 307.5899535  +6.4688013     4841.203      8665.52     9036.929     81.13148      161.813     323.6261      1.884     6.27     922.7106     57.05003     636.2645        28     1.810     0.837  31.61   0
       244    230.4943    612.4305 307.8219219  +6.4495258     888.8809     1652.983     1773.282     81.25976     161.6198     323.6261      2.362     6.77     934.5278     57.05003     115.4737        14     1.631     0.788  30.37   0
       245     92.9680    611.8316 307.8790434  +6.4451261     689.5257     1321.901     1099.161     80.61636     161.6198     323.3685      1.962     6.75     936.4271     57.05003     108.3316        12     1.746     0.731  20.09   0
       246    378.3727    607.5689 307.7606841  +6.4565228     1066.181     2081.374     2387.766     80.61636     161.6198     323.4651      2.051     7.08     930.8406     57.05003     150.7556        17     1.772     0.793  29.27   0
       247    167.1019    604.0811 307.8485233  +6.4508318     5199.923      10086.8      11379.1     81.00301     162.1988     323.7226      2.049     6.05      935.361     57.05003     639.3757        37     1.946     0.998  30.50   0
       248    564.8452    604.0308 307.6833748  +6.4642652     1965.141     3851.318     4228.196     80.74545     161.9417     323.5295      2.096     6.12     926.6774     57.05003     288.5596        27     1.787     1.026  26.94   0
       249    262.3270    600.5821 307.8091025  +6.4554924     70147.14     130580.7     138856.1     80.61636      161.813     323.5939      1.966     6.10     932.5685     57.05003     9064.069        92     1.970     1.176  30.60   0
       250     38.7023    602.8200 307.9018774  +6.4470112     4099.955     7546.777     7844.834     81.00301     161.6842     323.4007      1.912     5.82     936.8859     57.05003     513.0222        33     1.847     0.949  35.54   0
       251    805.7044    603.6405 307.5833747  +6.4725227     1293.106     2315.807     2892.273     81.13148      161.813     323.8191      1.974     6.18     922.1832     57.05003     199.7291        16     1.583     0.679  31.52   0
       252    551.5175    598.1896 307.6891043  +6.4662283     645.0193     1044.934     1668.558     80.74545     161.5554     323.4973      1.783     6.05     926.8262     57.05003     94.74237        10     1.723     0.596  42.40   0
       253    246.3477    595.6722 307.8159021  +6.4569800     1333.425     2670.292     3860.209     81.00301     161.8774     323.6904      2.308     6.55     933.0488     57.05003     229.5056        19     1.762     0.788  35.65   0
       254    961.9230    594.5214 307.5188099  +6.4815285     1289.046     2402.833     2456.559     81.38783     162.1345     323.7548      2.038     6.99     916.6541     57.05003     190.6513        19     1.734     0.831  30.24   0
       255    785.4611    593.0993 307.5921325  +6.4761952     13334.33     23957.39     25344.79     80.87433      161.813     323.7869      1.913     6.29     922.2503     57.05003     1870.231        44     1.895     0.963  31.85   0
       256    489.1319    591.4675 307.7152338  +6.4669031     34796.03     64842.48     71123.03     81.13148      162.006     323.6904      2.008     5.78     927.6944     57.05003     4485.475        74     2.069     1.166  27.18   0
       257    638.6938    589.1902 307.6532069  +6.4728769      799.913      1379.55     1264.619     80.74545     161.4909     323.4651      1.864     3.91     923.9799     57.05003     136.6062         9     1.158     0.683  66.45   0
       258    201.3841    587.5264 307.8348452  +6.4588247     1596.429     3246.929      4699.56     80.61636     161.6198     323.5617      2.486     6.73      934.178     57.05003     230.6292        20     1.883     0.829  34.13   0
       259     38.4054    588.8911 307.9024693  +6.4527517     891.5451     1490.092     1509.114     80.74545     161.5554     323.4007      1.612     5.13     936.8381     57.05003      160.736         8     1.174     0.633  63.47   2
       260     35.6975    586.9875 307.9036577  +6.4534460     772.2421     1099.919     1533.484     80.87433     161.6198     323.4329      1.368     4.06     936.8587     57.05003     158.2081         7     1.016     0.520  66.55   3
       261    711.3303    585.8287 307.6231577  +6.4767068     1032.225       2130.5     2747.429     80.87433     161.8774     323.5939      2.253     6.90     922.9526     57.05003     158.8207        15     1.906     0.701  40.25   0
       262    648.9816    586.4629 307.6490262  +6.4743489     2454.928     4770.396     5024.305     80.74545      161.813     323.5295      1.975     7.36     923.6913     57.05003     332.0964        28     1.741     0.985  27.72   0
       263     87.5432    587.7134 307.8821067  +6.4549000     477.5178     751.9133     896.7535     81.13148     161.8774     323.7869      1.711     4.57     936.1208     57.05003     78.29041         6     1.210     0.490  43.61   0
       264    659.1783    586.2576 307.6447990  +6.4747766     1054.781     1945.621     2129.307     80.74545      161.813     323.4651      1.983     6.08     923.4714     57.05003     181.3759        12     1.649     0.629  31.47   0
       265     66.8027    583.4051 307.8908632  +6.4559773     764.5574     1522.487     1905.993     80.48706     161.4909     323.4973      2.127     7.42     936.3674     57.05003     94.59766        14     2.089     0.738  30.36   0
       266    386.7917    582.0880 307.7580426  +6.4673269     1394.788     2773.318     3162.809     80.74545     161.5554     323.4007      2.028     6.63     929.5064     57.05003     200.9954        22     1.833     0.883  28.91   0
       267    318.2896    580.3372 307.7865452  +6.4657394     3311.247     5703.248      6194.25     81.13148      162.006     323.7226      1.858     6.20     930.3203     57.05003     441.9107        24     1.695     0.869  32.85   0
       268    133.4240    578.9070 307.8633527  +6.4600869     21369.47     38798.23     40236.95     81.25975     161.6842     323.4973      1.925     5.93     935.3802     57.05003     2743.176        52     1.921     1.048  31.74   0
       269    498.2521    579.7870 307.7118380  +6.4720328     1867.523     3320.947     3427.058     80.48706      161.813     323.4007      1.866     6.13     926.7551     57.05003     262.1009        22     1.681     0.807  33.75   0
       270    861.8882    579.3050 307.5608568  +6.4844561     1250.885     2207.018     2656.852     81.13148      162.263     323.7226      2.022     6.77     919.8337     57.05003     177.3542        18     1.745     0.737  25.30   0
       271     98.6804    577.1848 307.8778365  +6.4596234     2226.777     4391.035     4397.688     80.74545     161.6198     323.4651      1.958     5.86      935.778     57.05003     296.4009        24     1.831     0.866  32.87   0
       272    335.6126    575.6525 307.7795094  +6.4682579     875.2857     1421.299     1719.587     80.48706      161.813     323.3685      1.790     5.34     930.1091     57.05003     169.5761        11     1.495     0.539  24.98   0
       273    959.0760    573.7080 307.5206859  +6.4900265     4099.584     7499.337     7653.785     81.00301     162.0703     323.6583      1.898     6.52     915.9783     57.05003     594.8975        28     1.860     0.807  28.65   0
       274    532.1372    566.2645 307.6982205  +6.4787568     1140.489     1969.204     2477.984     81.13148     161.8774     323.6904      1.972     6.50     925.3882     57.05003     205.5159        15     1.652     0.719  40.27   0
       275      1.1794    563.8229 307.9187692  +6.4618416     1797.765     2406.914     2474.633     68.00211     125.9036      240.943      1.058     2.90     937.4566     57.05003     578.9408        10     1.309     0.382  88.46  24
       276    430.4264    560.1074 307.7406610  +6.4778728      34835.2      64150.6     67534.17     81.25975     161.6198     323.4973      1.947     6.26     927.4261     57.05003     4494.511        63     1.923     1.094  30.96   0
       277    638.4813    559.8627 307.6542759  +6.4849783     10149.46     18146.47     19413.53     81.25975     161.9417     323.6904      1.891     6.30     923.3323     57.05003     1411.245        43     1.891     0.972  29.31   0
       278    277.9698    559.8193 307.8039755  +6.4728498     842.5891     1667.965     1637.765     80.74545     161.6842     323.5295      1.884     6.21     929.9036     57.05003     128.3325        13     1.721     0.818  36.38   0
       279    195.6288    557.6267 307.8382392  +6.4709747     15707.02     29857.72     33439.61     80.61636     161.6842     323.4973      2.023     5.52     933.1998     57.05003     2067.176        57     2.022     1.115  31.56   0
       280    161.0354    558.6227 307.8525697  +6.4693947     1320.747     2285.857     1667.509     80.61636     161.6198     323.4329      1.830     5.82     934.6775     57.05003     190.0646        19     1.701     0.871  30.83   0
       281   1004.4395    558.4888 307.5023555  +6.4978305     449.7538     517.2018      545.105     81.13148      161.813     323.6904      1.436     5.37     913.9726     57.05003     72.50873         6     1.163     0.700  42.37   0
       282    972.2435    558.2573 307.5157330  +6.4968472       1022.1     1893.922      1901.53     81.00301      161.813     323.6904      1.842     5.71     914.9606     57.05003     159.9617        16     1.613     0.736  15.83   0
       283    812.4984    557.8611 307.5820819  +6.4916520     714.1998     1387.792     1181.605     80.87433     161.8774     323.7869      1.806     5.33     920.6539     57.05003     120.8829         9     1.678     0.478  36.42   0
       284    560.4241    556.8022 307.6867913  +6.4836157     2289.573     4532.928     4762.494     80.74545     161.5554     323.4651      1.989     6.10     924.4996     57.05003     304.9664        25     1.813     0.909  31.84   0
       285    900.8578    557.6758 307.5453961  +6.4946936     633.9538      946.448     553.6013     81.25976     161.8774     323.6261      1.442     4.35     917.5482     57.05003     95.88245         7     1.178     0.457   5.42   0
       286    934.0543    553.7552 307.5317417  +6.4974257     4075.222       7094.4     7157.893     81.13148     161.8774     323.6904      1.838     6.93     915.9436     57.05003     564.2827        28     1.834     0.795  30.66   0
       287    607.2950    552.1797 307.6674829  +6.4871014     5235.011     9540.068     10195.86     81.00301     161.6842     323.4651      1.919     5.97     923.6301     57.05003     739.2034        37     1.865     0.937  29.09   0
       288     94.8390    552.5544 307.8802597  +6.4696623     858.2938     1657.979     1732.979     80.87433     161.8774     323.5617      2.108     5.81     935.4347     57.05003     122.2786        11     1.678     0.566  32.83   0
       289    506.5692    551.5903 307.7093287  +6.4839544      593.369     916.9133      1465.15     80.61636     161.6842     323.4651      1.761     4.68     924.7209     57.05003     105.2889         6     0.967     0.690  18.80   0
       290    956.7805    546.0677 307.5225606  +6.5013617     2847.956     4969.908     5269.956     80.74545      161.813     323.5617      1.833     6.12     914.9529     57.05003     403.9016        22     1.765     0.755  30.94   0
       291    519.4822    543.4561 307.7042390  +6.4877476     6057.363     10927.41     11485.81     81.13148     161.8774     323.7548      1.915     6.30     924.1223     57.05003     790.5204        34     1.882     0.920  29.89   0
       292    365.3493    543.4930 307.7682404  +6.4825384     2123.796     3917.566     4309.689     81.00301     161.6842     323.8513      2.001     6.10     928.3178     57.05003     268.5676        26     1.816     0.901  33.26   0
       293    733.8956    543.4426 307.6152038  +6.4949652     500.4273     602.7595     355.1909     81.13148      161.813     323.7869      1.342     4.22      921.714     57.05003     88.96472         5     0.922     0.550  45.29   0
       294    875.8898    539.3279 307.5563765  +6.5014315     2710.986     4858.029     5857.998     81.13148     162.1345     323.6583      1.956     6.30     917.9411     57.05003     394.3884        26     1.793     0.815  31.30   0
       295    528.9126    540.0490 307.7004372  +6.4894718     634.8936     1256.025     1541.932     81.13148     161.7487     323.7226      1.859     4.49     923.9693     57.05003     126.9328         6     1.529     0.374  34.16   0
       296    883.3819    533.7330 307.5534519  +6.5039928     1739.916     2837.766     2730.757     80.74545      161.813     323.5617      1.787     6.35     917.3586     57.05003     273.6719        17     1.748     0.648  32.95   0
       297    922.6138    533.0671 307.5371824  +6.5055837     1038.812       1770.3     1518.033     80.61636     161.6842     323.5939      1.719     6.19     915.5402     57.05003     160.1499        14     1.595     0.675  27.79   0
       298    102.5727    532.8171 307.8777122  +6.4780725     590.1036     1292.354      1034.34     80.74545     161.6198     323.5617      1.977     4.94     934.9808     57.05003     98.66846         8     1.667     0.415  36.53   0
       299    707.3945    529.7268 307.6266670  +6.4997375      2502.14     4270.917     5054.335     80.74545     161.4264     323.5617      1.901     6.84     921.6302     57.05003     355.9122        22     1.764     0.744  28.86   0
       300    418.7061    528.0456 307.7466023  +6.4907150     856.8207     1585.472     1751.269     81.00301      161.813     323.7869      2.022     6.58     926.4104     57.05003     114.4407        15     1.639     0.741  33.57   0
       301     69.2230    528.5364 307.8917037  +6.4787120     1487.599     2810.382     2809.168     80.74545     161.8774     323.5295      1.954     6.40     935.7809     57.05003     221.1617        16     1.596     0.721  29.27   0
       302    605.8948    524.3942 307.6689940  +6.4985261     8126.394     14925.62     15863.31     80.87433     161.5554     323.4329      1.930     6.16     922.6416     57.05003     1113.781        36     1.837     0.961  29.41   0
       303    768.6503    521.0400 307.6015199  +6.5053821     13423.79     24167.13     25156.51     81.13148     161.8774     323.5939      1.891     6.26      920.211     57.05003     1868.481        44     1.878     0.964  30.80   0
       304    288.3143    521.1390 307.8009784  +6.4891686     2240.141     4044.112     4000.282     81.13148      162.006     323.6904      1.924     5.68     927.8577     57.05003     303.5751        24     1.801     0.845  25.79   0
       305    797.7421    518.1436 307.5895358  +6.5075550      1058.81     2054.553     2082.623     81.25976     161.9417     323.6904      2.052     6.08     919.3973     57.05003     171.9171        13     1.778     0.584  29.27   0
       306    378.1948    527.7858 307.7634332  +6.4894566     3093.866     5536.661     5764.523     80.74545     161.5554     323.4973      1.909     6.84      927.269     57.05003     399.4628        26     1.735     0.872  28.65   0
       307    371.3712    517.5866 307.7666087  +6.4934373     1149.283     2203.753     2218.686     80.74545     161.6198     323.5617      2.023     6.43      926.886     57.05003      154.498        16     1.694     0.686  28.66   0
       308    953.7900    515.9663 307.5248060  +6.5136896     1655.011     2934.129      2701.31     80.61636     161.6842     323.4973      1.858     6.48     913.8194     57.05003     258.6716        18     1.618     0.729  30.08   0
       309    772.5801    516.1275 307.6000521  +6.5075424      1275.37     2397.145     2686.728     80.74545     161.7487     323.6261      1.920     6.45     919.9157     57.05003     170.2915        17     1.792     0.701  27.52   0
       310    105.9381    512.7578 307.8769892  +6.4864679     3409.262     6819.236     7052.401     81.13148      161.813     323.7548      2.018     6.00     934.5623     57.05003     470.3076        34     1.875     1.049  29.66   0
       311    744.1880    511.7584 307.6119884  +6.5083925     1843.656     3507.579     3430.258     80.48706     161.6842     323.3685      1.969     5.63      920.486     57.05003     304.2043        23     1.683     0.930  34.91   0
       312   1007.9176    510.7521 307.5025019  +6.5176566     3681.801     6159.861     6749.024     81.13148     161.8774     323.6904      1.821     5.60     911.5045     57.05003     533.8903        29     1.996     0.752  26.96   0
       313    265.4942    510.5391 307.8108101  +6.4927746     1074.132     1453.012     1853.239     81.00301     161.9417     323.6904      1.663     4.84      928.356     57.05003     148.8531        10     1.129     0.719 -10.33   2
       314    262.7271    508.7230 307.8120201  +6.4934310     999.4742     1290.205     1873.605     81.38783     162.1345     323.6904      1.394     3.08     928.3536     57.05003     188.8214         9     0.958     0.724 -88.60   3
       315    341.9511    507.4936 307.7791638  +6.4966121     2633.796     4662.964     4489.101     81.00301     161.7487     323.7869      1.874     6.05     926.7579     57.05003     340.1523        24     1.731     0.862  31.08   0
       316    697.9144    505.4210 307.6314161  +6.5094541     1259.855     2419.244     2848.881     80.87433     161.6198     323.5617      2.084     6.81     920.9945     57.05003     178.9833        16     1.656     0.785  28.65   0
       317    971.8895    504.1493 307.5176837  +6.5191753     433.7193     925.9028      1604.25     81.13148     161.6842     323.7869      2.052     4.48     912.5818     57.05003     88.60522         7     1.499     0.380  30.79   0
       318    229.3341    503.2389 307.8260705  +6.4945677     703.6894     1166.209     681.1332     81.00301      161.813     323.7548      1.881     6.27     929.4228     57.05003     111.7491         9     1.484     0.745  30.18   0
       319    539.1271    498.0891 307.6976004  +6.5071397     756.1553     1499.241     1580.937     81.13148     162.1345     323.6904      1.972     5.21     922.4764     57.05003      106.933         9     1.460     0.526  36.28   0
       320    441.0809    499.3765 307.7382720  +6.5033057      435.154     819.1497      1118.73     80.74545     161.5554     323.5939      2.487     4.48     924.3683     57.05003     98.19348         5     1.425     0.400  11.54   0
       321    461.6578    496.5651 307.7298215  +6.5051598     1083.434      2076.59     2861.528     81.00301     161.8774     323.6583      2.548     6.80      923.717     57.05003     164.6349        17     1.721     0.753  33.86   0
       322    824.0588    495.3871 307.5793669  +6.5178342     1257.501     2069.258     1944.114     80.48706      161.813     323.3363      1.764     5.98     917.4003     57.05003     179.9228        14     1.597     0.630  27.67   0
       323    809.7337    494.6047 307.5853420  +6.5176763     1639.652     3100.729     2895.876     80.61636     161.6198     323.4651      1.900     6.75     917.9238     57.05003     250.1611        21     1.802     0.836  34.50   0
       324    706.9499    492.5494 307.6280942  +6.5150721     12343.84     22371.98     23855.26     81.13148     161.7487     323.5939      1.940     6.86     920.4976     57.05003     1793.797        51     2.263     0.973  34.83   0
       325    627.6692    488.5941 307.6611496  +6.5140395     2139.765     4344.706      4785.06     80.61636     161.4909     323.4973      2.230     6.96     921.1697     57.05003      269.348        33     2.297     0.978  15.63   0
       326    600.6042    483.8322 307.6725482  +6.5150950     12242.87     24437.64     30614.79     80.48706     161.7487     323.4329      2.357     8.54     921.1942     57.05003      1768.38        66     2.746     1.025  32.40   0
       327    371.5432    478.4972 307.7678482  +6.5095818      23330.9     43640.13      46321.1     81.00301      161.813     323.8834      1.972     6.28     924.7535     57.05003     2815.583        59     1.943     1.097  30.71   0
       328    887.5242    477.7690 307.5535990  +6.5272381      1323.08     2532.758     3168.986     81.00301     161.9417     323.6261      2.299     7.27     914.4414     57.05003     214.0249        21     2.212     0.670  33.42   0
       329    117.5088    477.6899 307.8733637  +6.5013371     1956.416     3633.756     4000.136     81.13148     162.3913     323.7548      1.909     6.92     933.2832     57.05003     246.0103        20     1.769     0.768  33.37   0
       330    901.1578    473.0029 307.5480961  +6.5296632     4092.677     7339.614     7916.196     80.48706     161.5554     323.3685      1.917     6.72     913.9634     57.05003     653.5435        30     1.861     0.855  29.69   0
       331    932.3710    482.5279 307.5348160  +6.5267774     3230.482     5559.846     6064.515     81.00301     161.8774     323.6261      1.829     6.73     913.5807     57.05003      403.799        21     1.717     0.740  29.24   0
       332     51.0559    473.3123 307.9011051  +6.5008970     1364.175     2538.364     2869.685     81.13148     161.7487     323.7869      2.100     6.59     935.6893     57.05003     202.5453        15     1.644     0.740  30.65   0
       333    229.0683    469.0117 307.8273303  +6.5086897     10948.56     20776.93     21822.04     80.61636     161.6842     323.5295      1.969     6.30      928.069     57.05003     1439.767        45     1.866     1.072  30.87   0
       334    956.4155    470.6099 307.5252280  +6.5325043     571.9349     845.1794     858.2397     80.87433     161.6198     323.5617      1.732     3.37     911.7656     57.05003     107.3459         5     1.105     0.297  21.31   0
       335     65.3302    463.0519 307.8955229  +6.5056159     676.1885     1140.998     848.5159     81.00301     161.7487     323.6261      1.826     6.13     934.8249     57.05003     92.34277         8     1.535     0.689  30.46   0
       336    952.5043    461.3357 307.5271616  +6.5362022      889.389     1344.578      1451.76     81.00301      162.006     323.6904      1.873     6.23     911.4029     57.05003      128.478        13     1.532     0.711  25.54   0
       337    341.6140    458.7173 307.7809401  +6.5167387     1024.959     1762.737     1843.982     80.74545     161.6198     323.4651      1.814     6.40     924.2089     57.05003     147.2762        16     1.623     0.709  35.84   0
       338    176.1123    459.3368 307.8496456  +6.5108952     648.6631     1089.027     935.4382     81.00301     162.0703     323.6583      1.744     4.17     929.9224     57.05003     104.0922         6     0.756     0.656 -54.06   0
       339    129.2765    457.6309 307.8691516  +6.5100165       4121.4     7850.857      7819.04     81.00301     161.9417     323.6261      1.976     6.15     931.9945     57.05003     548.8865        31     1.867     0.930  32.07   0
       340    234.1194    456.3484 307.8256581  +6.5140885      1151.68     2048.239     1980.678     81.13148     161.8774     323.6583      1.937     6.59     927.3939     57.05003     159.2666        15     1.564     0.780  30.55   0
       341    151.3848    453.5966 307.8601067  +6.5124294     2004.663     4073.025     4434.973     80.74545     161.4909     323.4973      2.076     5.81     930.8449     57.05003     276.3602        26     1.744     1.013  36.36   0
       342    815.5381    454.1042 307.5842838  +6.5345928     733.1798     1304.005      1304.26     80.87433     161.9417     323.7226      1.785     4.86     915.6008     57.05003      128.646         8     1.559     0.430  25.96   0
       343    546.9693    452.3524 307.6958751  +6.5262870     930.1096     1829.916     1843.229     80.74545     161.8774     323.5617      1.915     6.08     920.4709     57.05003     128.0612        14     1.617     0.644  37.28   0
       344    374.6115    448.1307 307.7675924  +6.5222225     1693.847     3235.429     3548.532     80.61636     161.6842     323.5295      1.983     6.44     922.9026     57.05003     243.3828        21     1.684     0.960  32.21   0
       345    262.6694    448.3576 307.8140707  +6.5183516     537.6289     1002.924     980.0899     81.00301     161.8774     323.7226      1.712     5.22     926.0306     57.05003     83.88202         9     1.778     0.433  28.11   0
       346    963.1423    447.3444 307.5232101  +6.5423356     845.9225     1437.961     1937.054     81.25976     161.9417     323.6904      1.721     5.95     910.0316     57.05003     116.9169        13     1.429     0.697  31.82   0
       347    428.7639    441.8292 307.7453157  +6.5266499      5745.86     10812.66     11325.86     80.74545     161.6198     323.4651      1.957     5.87     921.5546     57.05003     693.7336        34     1.849     0.951  31.49   0
       348     24.9342    442.6292 307.9129844  +6.5126807     2491.137     4785.426     5129.047     80.87433     161.8774     323.5939      2.025     5.24     935.6113     57.05003     295.4925        28     1.781     1.066  28.60   0
       349    769.3041    439.2881 307.6039793  +6.5391574     10689.27     19154.56      19971.5     81.13148      162.263     323.6904      1.879     6.06     916.3185     57.05003     1461.804        42     1.864     0.958  29.39   2
       350    761.2449    440.8690 307.6072735  +6.5382339     1687.659     2719.539     2988.269     81.13148      161.813     323.6582      1.898     6.04     916.7174     57.05003     262.7739        18     1.810     0.721  22.39   2
       351    332.7796    437.6204 307.7853166  +6.5251508      868.838     1677.024     1305.191     80.87433      161.813     323.5939      1.861     5.91     923.3227     57.05003     157.2905        12     1.669     0.589  20.28   0
       352   1013.1298    434.4107 307.5028814  +6.5493509     3094.268     5709.785     6579.222     80.61636     161.6842     323.5295      1.938     6.65     905.8756     57.05003     442.2799        26     1.773     0.867  29.49  16
       353    176.7125    429.3807 307.8504030  +6.5232831     638.0698     1360.113     1261.146     80.87433     161.6198     323.5295      2.343     4.55     928.8367     57.05003      100.446         7     1.004     0.585  51.85   2
       354    905.5162    425.6319 307.5478665  +6.5493678     726.5413     1341.958     994.9557     81.13148     161.6842     323.5617      1.947     6.87     912.0049     57.05003     118.9479        13     1.699     0.779  36.85   0
       355    449.1196    426.0282 307.7373920  +6.5338596     1849.683     3450.585     3471.583     81.00301     161.6842     323.6261      1.939     6.94     920.1655     57.05003     253.6075        20     1.692     0.798  29.14   0
       356    476.8109    425.3397 307.7259153  +6.5350769     2454.967     4823.677     5205.867     80.48706     161.7487     323.3685      1.996     6.41      919.501     57.05003     331.8798        27     1.812     0.939  27.39   0
       357    834.6842    422.2032 307.5773977  +6.5484066     26461.51     50230.06      53581.4     80.48706     161.4909     323.3685      1.985     6.26     913.6368     57.05003     3270.286        62     1.932     1.137  33.35   0
       358    327.1546    417.7973 307.7883177  +6.5331452     609.4078     1271.335     1272.287     80.48706     161.4909     323.3041      2.412     5.32     922.5118     57.05003     113.1162         8     1.642     0.487  30.54   0
       359    606.2925    414.5616 307.6725039  +6.5438862     2179.244     4002.365     4385.105     81.25976      161.813     323.7226      1.940     6.18     917.7682     57.05003     293.0436        23     1.751     0.833  35.11   0
       360     14.5679    414.8470 307.9182241  +6.5237998     1002.212     1709.821     2239.963     80.74545     161.8774     323.5617      1.863     6.24     935.0826     57.05003     142.1749        12     1.512     0.723  32.26   0
       361    691.1274    408.1464 307.6374867  +6.5493879     64612.72     118078.7     125404.1     81.00301     161.7487     323.6261      1.935     6.32     916.2652     57.05003     8382.928        86     1.960     1.108  28.54   0
       362    849.1274    409.6922 307.5718170  +6.5540569     1077.203     2030.686     2284.163     81.00301      162.006     323.6904      2.002     6.48     912.9567     57.05003     167.3458        15     1.738     0.677  27.63   0
       363     70.7424    407.7904 307.8951345  +6.5286140     1125.411     2059.539     2609.067     80.48706      161.813     323.3685      2.156     6.26     932.6347     57.05003     148.9779        14     1.506     0.732  28.34   0
       364    932.9105    405.4863 307.5371615  +6.5586042     719.6466     1205.462     1328.013     80.87433     162.3271     323.7869      1.999     5.69     910.0158     57.05003     113.3466        12     1.565     0.583  30.29   0
       365    553.5792    404.8283 307.6947212  +6.5461307     2189.137     4019.398     4452.928     80.61636     161.6842     323.5939      1.958     6.06     917.7792     57.05003     278.6465        24     1.778     0.863  30.63   0
       366     90.8570    403.5697 307.8869236  +6.5310368     5097.872     9688.303     10142.29     81.00301     161.9417     323.5295      1.961     5.68     931.8296     57.05003     650.6112        34     1.840     0.981  29.32   0
       367    536.8080    401.0526 307.7018127  +6.5471250     5904.075     11041.52     11633.01     80.61636     161.7487     323.3685      1.930     6.05     917.6024     57.05003     715.7404        34     1.795     0.973  31.63   0
       368    265.7644    398.5728 307.8144571  +6.5390102     2187.628     4138.669     4217.793     80.61636     161.6198     323.4329      1.964     6.37     924.1041     57.05003     294.8702        23     1.771     0.874  28.49   0
       369    399.7440    396.1810 307.7588976  +6.5445181     20847.78     38971.68     41098.02     80.61636      161.813     323.4651      1.950     6.01     919.5212     57.05003     2557.843        57     1.926     1.099  29.08   0
       370    507.1956    394.6261 307.7143258  +6.5487810     1119.329     2196.333     2465.873     80.61636     161.6842     323.4973      2.052     6.02     917.3262     57.05003     150.5814        18     1.737     0.869  31.86   0
       371    379.9522    394.2538 307.7671815  +6.5446464     1007.886     2068.486     3194.919     81.13148     161.8774     323.6904      3.481     6.99     920.0067     57.05003     135.9051        15     1.934     0.708  44.73   2
       372    479.1106    391.5260 307.7260932  +6.5491149      1193.99      2142.75     2325.266     81.13148     162.1345     323.6904      1.956     6.66     917.3712     57.05003     137.7799        17     1.520     0.820  33.38   0
       373    793.8054    388.2859 307.5955076  +6.5610377     652.3812     1071.678      834.399     80.61636     161.5554     323.3685      1.633     3.41      912.778     57.05003     106.5529         7     0.793     0.763 -77.62   2
       374    632.0318    388.9622 307.6626709  +6.5553213     483.9549     856.2892     714.0695     80.74545     161.6198     323.4651      1.695     3.70     915.7354     57.05003     84.28656         5     1.021     0.385  31.97   0
       375    488.8092    386.5725 307.7222314  +6.5514868     6853.667     12988.29     14096.51     80.74545     161.6842     323.5295      2.007     6.18      916.924     57.05003       904.62        39     1.918     1.013  30.95   0
       376    757.9361    385.4128 307.6105005  +6.5610192     2610.753     4796.762     4896.191     80.61636     161.6842     323.4973      2.009     6.71     913.9646     57.05003     393.8256        24     1.872     0.746  30.76   0
       377    913.6926    385.6249 307.5458055  +6.5661600     804.4783     1138.304     1023.639     81.25976     161.6198     323.4973      1.666     5.82      909.946     57.05003      112.303        11     1.412     0.676  26.00   0
       378    315.3745    383.6665 307.7943551  +6.5468390     747.5235     1438.451      1737.82     80.74545     161.7487     323.5617      2.061     6.35     921.7961     57.05003     115.0089        12     1.629     0.694  16.41   0
       379    151.2266    377.2719 307.8627380  +6.5439352     766.6423     1313.006     1395.937     80.74545     161.7487     323.5617      1.808     6.43       929.46     57.05003     112.9776        10     1.346     0.862  22.73   0
       380    378.7126    370.7760 307.7684838  +6.5542977     6037.124     11336.94     11836.33     81.13148     161.6842     323.5295      1.989     5.77     919.0968     57.05003     765.0598        38     1.882     1.021  32.26   0
       381    234.5540    371.3198 307.8283335  +6.5492080     1669.748     3359.092     3264.486     81.13148     161.8774     323.6583      2.093     7.51     924.2295     57.05003      230.316        22     1.781     0.886  31.46   0
       382    746.6040    366.7188 307.6158316  +6.5683567     43711.46     79869.55     84715.27     80.61636     161.4264     323.3685      1.914     7.38     913.4764     57.05003     5871.997        72     1.958     1.049  29.70   0
       383    732.3817    370.6677 307.6216063  +6.5662484     847.3969     1550.569     1155.559     80.74545      161.813     323.5939      1.774     5.94     914.0659     57.05003     117.8959        11     1.755     0.566  37.14   0
       384    418.0527    366.0544 307.7523042  +6.5575736     2046.022     3517.654     4024.738     81.38783      161.813     323.6261      1.839     5.75     917.1849     57.05003     251.0288        22     1.668     0.829  29.73   0
       385    981.6010    363.8381 307.5183282  +6.5774321     1369.482     2366.882     2518.957     80.22784     161.6842     323.4329      1.864     6.52     905.6387     57.05003     184.9815        17     1.831     0.652  31.98   0
       386    922.4926    363.0547 307.5429036  +6.5757738     1927.973     3337.137     3000.413     81.00301      161.813     323.8191      1.845     6.60     908.5214     57.05003     328.4409        21     1.806     0.764  27.15   0
       387    564.6202    363.5863 307.6915167  +6.5635299     952.5757     1896.607     2250.596     80.87433     161.5554     323.5617      1.939     6.77     914.3358     57.05003     143.4293        14     1.846     0.697  25.05   0
       388    457.2549    363.3951 307.7361126  +6.5599928     775.4753     940.4069     1483.284     80.48706     161.6842     323.3363      1.332     4.90     916.0497     57.05003       122.05         8     1.353     0.502  25.81   3
       389    454.0000    361.9630 307.7375124  +6.5604744     629.9811     664.8966     949.3311     80.09792     161.6198     323.4329      1.119     3.75     916.0602     57.05003     121.6493         5     0.827     0.487  73.23   3
       390    404.9359    361.8878 307.7578914  +6.5588516     1595.651     2843.958     3147.252     81.13148     162.0703     323.6582      1.874     6.71     917.5223     57.05003     192.1674        18     1.655     0.762  26.30   0
       391    284.5850    360.9706 307.8079036  +6.5551701     494.9297     905.5504     952.2065     80.74545     161.6198     323.5939      1.956     5.06     921.9016     57.05003     84.01056         6     1.602     0.451  25.60   0
       392    825.7216    356.1163 307.5833266  +6.5753913     1008.527     1604.615     1493.208     81.25976     162.1988     323.7869      1.700     5.84      910.941     57.05003     151.0449        12     1.510     0.635  34.39   0
       393    454.9902    356.6028 307.7372808  +6.5627208     694.0119     1128.062     1454.621     80.61636     161.5554     323.4973      1.929     5.65     915.7213     57.05003     108.7375         8     1.280     0.704  30.88   0
       394    181.3395    353.0597 307.8510464  +6.5549491      1950.28      3568.79     3902.431     81.13148     161.8774     323.6904      1.956     5.76      927.494     57.05003     245.5243        23     1.779     0.866  38.50   0
       395    435.1470    352.9266 307.7456450  +6.5635698     881.9498     1759.149     2161.212     81.00301     161.9417     323.6904      2.224     6.73     915.9681     57.05003     169.6287        15     1.854     0.686  39.37   0
       396    745.0439    351.2610 307.6169961  +6.5746863     4895.382     9069.506     9757.505     81.13148     161.8774     323.7869      1.909     6.18     912.7222     57.05003     688.8782        31     1.889     0.847  31.88   0
       397     78.1029    350.4981 307.8940053  +6.5525163     947.9085     1616.777     1693.053     81.13148     162.3913     323.4973      1.959     6.40      931.319     57.05003     131.6815        13     1.573     0.732  35.67   0
       398    761.4139    349.1387 307.6102682  +6.5761125     2277.707     3951.308     4607.029     80.61636     161.7487     323.4329      1.919     5.82     912.0607     57.05003     324.7567        21     1.783     0.719  29.14   0
       399    463.1357    347.3582 307.7342078  +6.5668120     496.2338     765.8444     1050.727     81.13148      161.813     323.7226      1.581     4.41     914.9822     57.05003     75.65204         5     1.137     0.487  55.30   0
       400     64.5315    344.4455 307.8998450  +6.5545560     1031.852     2046.133     2415.222     81.13148      161.813     323.6261      2.309     6.57     931.4621     57.05003     183.6189        13     1.573     0.770  33.64   0
       401    351.0313    344.0219 307.7808774  +6.5644098     1408.922     3250.848      3628.41     80.61636     161.6842     323.4651      2.282     8.23     919.3003     57.05003     178.0804        24     2.137     0.886  10.81   0
       402    999.7476    340.1479 307.5115811  +6.5878214     4932.541     8741.047     9302.584     81.38783     161.7487     323.6904      1.882     6.37     904.2698     57.05003     749.3181        27     1.851     0.793  31.88   0
       403    477.9568    339.9705 307.7282999  +6.5703616     1708.512     3111.783     3346.725     80.74545     161.8774     323.5295      1.926     5.66     914.1866     57.05003     223.4265        24     1.763     0.853  25.81   0
       404    240.2595    335.5475 307.8271656  +6.5641696     4868.484     8968.975     9583.705     81.13148      161.813     323.6583      1.951     6.01     923.1089     57.05003     589.7349        33     1.902     0.929  31.87   0
       405    804.4374    333.8315 307.5929107  +6.5838775     515.6785     692.3897     798.9424     80.74545     161.6198     323.4651      1.616     3.38     910.1234     57.05003     99.34125         5     1.140     0.290  35.21   0
       406    757.9991    327.9694 307.6123938  +6.5847381     668.5259       780.38     1164.188     80.48706     161.6842     323.4651      1.233     3.32     910.9274     57.05003      117.743         5     0.673     0.540  -0.01   0
       407    374.6877    326.3857 307.7716444  +6.5724891     1350.703     2642.538     2395.451     80.74545     161.6842     323.5295      1.991     6.72     917.4008     57.05003     175.5568        18     1.622     0.780  38.18   0
       408    144.2676    322.1420 307.8674814  +6.5664606     1578.294      2850.88     3190.328     81.25976      161.813     323.6583      1.949     5.90     929.0093     57.05003     205.7129        20     1.609     0.893  31.75   0
       409    296.7811    322.1953 307.8041403  +6.5715905     846.0535     1591.477     1230.137     80.74545     161.4909     323.4651      1.815     6.57     921.0104     57.05003     134.9722        13     1.668     0.726  25.49   0
       410    897.4505    316.8868 307.5548448  +6.5939953     1552.848     2812.437     3433.711     81.13148     161.7487     323.7548      1.959     6.90     907.3506     57.05003     229.7702        19     1.793     0.745  33.77   0
       411    553.7437    317.8705 307.6975646  +6.5820383     1723.032     3216.213     3118.267     81.25976      161.813     323.6261      1.861     6.64     911.1611     57.05003     213.9067        20     1.722     0.773  31.09   0
       412    717.4691    315.4408 307.6296460  +6.5885488       4452.8     7869.901     8540.465     81.00301     161.8774     323.7548      1.892     6.35     910.6838     57.05003     627.9806        29     1.849     0.831  29.44   0
       413    658.3826    315.2529 307.6541928  +6.5866399     1796.228     3151.775     2910.995     80.61636     161.9417     323.3685      1.880     5.92     910.9442     57.05003     253.1337        21     1.743     0.811  32.11   0
       414    954.3809    314.1358 307.5312910  +6.5970405     510.1639     511.5616     647.3634     80.74545     161.8774     323.4973      1.078     3.35     904.8574     57.05003     110.4097         5     0.763     0.427  68.58   0
       415    960.9034    324.9445 307.5282215  +6.5927966     858.8934     1418.094     1569.113     81.00301      161.813     323.8513      1.777     5.61     905.1328     57.05003     130.0336        12     1.637     0.542  28.09   0
       416    913.9003    307.7675 307.5483168  +6.5983123     881.1355     1644.256     2186.762     81.13148     161.7487     323.8191      1.786     5.02     905.9769     57.05003     162.2643         9     1.622     0.439  30.02   0
       417    216.8159    300.3478 307.8380844  +6.5779102     1805.331     3469.129     4154.657     80.48706     161.9417     323.3685      2.105     6.33     923.4825     57.05003     220.4628        24     1.704     0.980  35.14   0
       418    859.5834    299.6574 307.5711477  +6.5998383     1401.779     2642.541     2639.473     80.48706      161.813     323.4007      1.887     6.84     908.2714     57.05003     207.4113        19     1.729     0.758  29.14   0
       419    750.0079    298.9532 307.6166825  +6.5964495     1281.781     2235.982     2082.683     80.61636     161.7487     323.3041      1.830     6.37      909.311     57.05003     197.6246        16     1.718     0.662  29.16   0
       420    450.9190    290.5610 307.7411853  +6.5898499     18580.41     34772.68     37565.47     81.13148     161.9417     323.5939      1.972     5.94     912.9172     57.05003      2364.49        51     1.912     1.088  31.65   0
       421    776.9952    289.6958 307.6057829  +6.6011782     10741.66     20224.63     22238.37     80.87433     161.5554     323.4007      1.982     6.12     908.5671     57.05003     1522.492        54     1.997     1.107  25.29   0
       422    456.7108    285.1080 307.7389626  +6.5922964     1201.818     2248.097     2501.059     81.13148     162.3913     323.7226      1.916     6.47     912.2341     57.05003     156.2894        16     1.822     0.645  31.99   0
       423    139.1036    283.6429 307.8709206  +6.5821806      2069.87     3921.417     3964.086     81.13148      161.813     323.8191      1.916     5.32     928.4411     57.05003     293.7941        25     1.731     0.934  29.25   0
       424    113.9787    282.6987 307.8813869  +6.5817208     872.6437     1632.073     1704.299     81.00301     161.6842     323.4329      1.917     6.59     929.7226     57.05003     125.0834        14     1.722     0.709  31.85   0
       425    166.4117    281.8183 307.8596405  +6.5838570     679.2151     911.6192     964.5054     80.74545     161.5554     323.5617      1.711     4.39     926.8528     57.05003     95.20532         7     1.234     0.444  20.60   0
       426    913.5255    280.0410 307.5493976  +6.6097472     1235.476     2132.291     2291.935     81.00301     161.8774     323.6904      1.815     5.53     904.4661     57.05003     208.8046        12     1.637     0.526  31.73   0
       427    574.9452    276.3355 307.6901496  +6.5999004     3696.816     6760.077     6813.243     81.25975      161.813     323.6261      1.922     6.19     908.5764     57.05003     475.1168        31     1.873     0.917  31.03   0
       428    295.4543    277.0384 307.8062074  +6.5901892     831.5258     1484.347      727.499     81.13148     161.9417     323.6583      1.888     5.53     920.8213     57.05003     133.1376        13     1.516     0.828  33.31   0
       429    537.4902    276.1556 307.7057121  +6.5987137     1706.308     3074.672     3069.131     81.13148      161.813     323.7548      1.859     6.19     908.8116     57.05003     195.5552        20     1.723     0.782  29.79   0
       430    379.5034    275.6062 307.7713477  +6.5936164     1329.113     2417.774     2410.682     80.87433     161.5554     323.4651      1.882     6.78     915.1863     57.05003     175.7967        16     1.517     0.850  35.41   0
       431    881.9890    272.9075 307.5627345  +6.6116345     9382.501     16903.34      17736.3     80.87433     161.5554     323.4651      1.895     6.88     905.8193     57.05003     1361.606        39     1.843     0.923  32.06   0
       432    936.0320    273.4141 307.5402706  +6.6132382     2336.361     4256.874     4640.914     80.74545     161.6198     323.5939      1.905     6.85     903.1788     57.05003     312.3844        21     1.691     0.779  30.49   0
       433    680.0374    270.8398 307.6466842  +6.6057049     2292.239     4192.466     4652.096     80.87433     161.8774     323.5295      1.965     6.97     908.7619     57.05003     320.2614        22     1.747     0.917  34.91   0
       434    309.0319    273.2792 307.8006945  +6.5921995      638.395     1227.599     1258.902     81.00301     161.8774     323.6261      1.972     6.49     919.6279     57.05003     97.83612        10     1.603     0.738  31.69   0
       435    968.6987    270.7199 307.5267920  +6.6154458     8132.016     14574.54     15404.71     81.00301      162.263     323.6904      1.897     6.43     902.5942     57.05003     1091.586        39     1.905     0.905  31.61   0
       436    556.7141    272.5648 307.6978480  +6.6008435     792.6012     1355.364     1505.892     81.13148     161.7487     323.6583      1.927     5.88     908.4492     57.05003     90.88428        12     1.579     0.617  29.67   0
       437      8.1683    269.3460 307.9257801  +6.5836533     21259.36     39343.12     42113.26     81.00301     161.9417      322.756      1.967     5.80     932.5161     57.05003     2620.259        59     1.936     1.097  31.08  16
       438    254.4888    270.3144 307.8234471  +6.5915821     972.4571     1937.583     2265.832     80.87433     162.1345     323.7869      2.188     6.53     921.9309     57.05003     127.1196        16     1.720     0.696  34.45   0
       439    487.5875    264.8285 307.7268181  +6.6017095     1459.028     2795.819     3008.596     80.61636     161.6842     323.5617      2.092     5.66     909.1775     57.05003     195.5667        15     1.204     0.860  52.99   2
       440    872.8810    261.3258 307.5669041  +6.6161106     1640.332     2982.011      3065.29     81.38783     162.1345     323.7226      1.951     6.21     905.5877     57.05003     269.6892        20     1.800     0.747  33.18   0
       441    820.6343    262.2250 307.5885751  +6.6139856     1712.216     2842.001     3281.948     80.61636     161.6842     323.4329      1.778     6.26     906.9977     57.05003     284.5479        16     1.697     0.649  31.10   0
       442    500.4801    261.2625 307.7215828  +6.6036161     2068.056     3656.007     4018.578     81.25976     161.9417     323.6583      1.837     6.67     908.6443     57.05003     246.1631        20     1.719     0.762  30.12   0
       443    335.3401    258.1761 307.7902749  +6.5993227     4286.613     11635.86     13352.34     80.74545     161.8774     323.5295      2.524     7.11     917.1848     57.05003     476.5302        57     2.042     1.671  62.28   0
       444    732.2316    258.8667 307.6254058  +6.6124027     33010.51     59487.07        62398     81.00301     161.8774     323.5939      1.902     6.72     908.1979     57.05003     4518.096        61     1.930     1.026  28.71   0
       445    965.8491    257.6278 307.5284123  +6.6207557     2428.343     4524.547     5126.769     80.74545     161.9417     323.5939      1.897     7.26      901.974     57.05003     348.2691        25     1.802     0.861  32.89   0
       446    900.0995    255.9844 307.5557770  +6.6192292     6249.328     11358.63     11684.66     81.13148     161.6198     323.4007      1.896     6.77     903.9005     57.05003     868.9803        33     1.852     0.879  31.34   0
       447   1004.2175    256.2419 307.5125217  +6.6226140     1374.511     2384.451      2098.25     80.61636     161.6842     323.4329      1.772     6.26     901.3196     57.05003     219.0302        16     1.655     0.664  27.55   0
       448    443.6829    255.0593 307.7453809  +6.6042633     4096.255      7697.22     7869.653     81.25975     161.9417     323.6904      1.958     6.23     911.0121     57.05003     555.7527        30     1.845     0.894  29.20   0
       449    219.8608    252.1416 307.8384395  +6.5979153      590.189     823.1288     1049.763     81.13148      161.813     323.6904      1.384     3.90     922.6731     57.05003     108.6992         5     0.812     0.535  48.33   0
       450    100.9893    246.1830 307.8880099  +6.5963571     3936.612     7187.567     7534.801     80.87433     161.5554     323.5295      1.910     5.68     928.5852     57.05003     494.3671        31     1.809     0.994  31.83   0
       451    920.6863    245.8329 307.5475647  +6.6241110     859.9774     1423.707     1477.648     81.13148     161.6842     323.6583      1.841     5.87     902.2959     57.05003     140.4868        11     1.436     0.675  32.98   0
       452    271.2881    242.9468 307.8173891  +6.6034483     27538.58     51512.66     54746.51     81.13148     161.7487     323.7869      1.970     5.82     921.3464     57.05003     3332.606        61     1.942     1.112  31.14   0
       453    246.5853    243.9699 307.8276146  +6.6021917      5339.38     10108.69     10822.67     80.74545     161.6198     323.5939      1.968     5.83     921.8499     57.05003     647.8079        37     1.877     1.027  32.92   0
       454    700.2097    242.2762 307.6392610  +6.6181761     833.6398     1501.132     1600.397     80.74545     161.4264     323.4651      1.820     6.66     907.9218     57.05003     129.3281        13     1.684     0.740  27.64   0
       455    395.3632    238.4821 307.7660059  +6.6094784     40799.66      75725.3     80867.88     81.13148     161.8774     323.6261      1.969     5.96     913.0361     57.05003     4919.291        70     1.956     1.127  29.18   0
       456    151.3616    239.6208 307.8673098  +6.6007697       3305.7      6071.97     6342.088     80.74545     161.6198     323.4007      1.933     5.75     926.3392     57.05003     395.7084        29     1.770     0.952  32.22   0
       457    412.7768    239.2247 307.7587484  +6.6097590     1024.329     2069.337     1909.385     80.61636     161.7487     323.6261      1.981     6.48     912.1832     57.05003     140.0574        14     1.637     0.720  19.31   0
       458    734.6627    234.7394 307.6252026  +6.6224458     27438.42     49771.32     52616.38     81.13148     161.8774     323.6904      1.918     6.80      907.702     57.05003     3519.568        60     1.929     1.033  30.83   0
       459    299.3654    236.1250 307.8059567  +6.6072126     15020.33     27830.59     29677.47     81.00301     161.8774     323.6261      1.953     5.96     919.9986     57.05003     1783.562        49     1.994     1.043  29.46   2
       460    306.6188    236.2437 307.8029401  +6.6074084     1604.817     3034.647      3931.89     80.61636     161.7487     323.4329      2.124     6.15     919.2723     57.05003     230.2945        19     1.659     0.780  24.92   3
       461    682.4961    236.0956 307.6468251  +6.6201323     867.6753     1575.925     1399.437     81.13148     162.5195     323.4973      1.882     6.09     907.7996     57.05003     143.3062        13     1.671     0.625  30.50   0
       462    783.0288    235.0547 307.6051026  +6.6239406     1007.017     1870.755     2207.529     80.87433     161.9417     323.5617      1.941     6.34     906.8209     57.05003     150.1538        14     1.696     0.665  35.73   0
       463     51.5329    231.8632 307.9090320  +6.6005959     7768.632      14282.1     15398.21     81.13148     161.8774     323.6904      1.932     5.58     930.7227     57.05003      927.499        38     1.834     1.020  29.95   0
       464     84.1500    229.7736 307.8955557  +6.6025621     1134.198     1910.922     2607.836     80.74545     161.9417     323.5617      2.079     7.49     928.7361     57.05003     176.4249        13     1.665     0.943  21.40   2
       465    992.7517    228.6245 307.5182050  +6.6336322     957.1808     1560.548     2207.211     80.74545     161.8774     323.5617      1.995     5.61     900.1041     57.05003     133.4105        12     1.483     0.599  36.52   0
       466    993.9424    215.2739 307.5181556  +6.6391842      1835.68      3480.37     4363.721     81.13148     161.8774     323.6261      1.974     5.67     899.3354     57.05003     279.1613        19     1.845     0.683  31.54   0
       467    577.1097    212.7215 307.6913806  +6.6262373      748.394     1336.584     1456.985     80.87433     162.1345     323.7226      1.846     6.11     906.0811     57.05003     111.5239        10     1.516     0.692  26.52   0
       468    270.1808    209.2510 307.8189807  +6.6173225     24790.81     46612.33     50380.24     80.61636     161.9417     323.4651      1.979     6.01     921.1831     57.05003     3086.568        68     1.948     1.270  26.29   0
       469    585.4658    211.0767 307.6879648  +6.6271976     1446.445     2780.055     2808.995     81.25975     161.8774     323.6261      2.076     6.72     906.1332     57.05003     235.5905        17     1.762     0.720  31.04   0
       470    330.1023    211.1711 307.7940281  +6.6185524     870.8265     1470.767     1443.662     81.25975     161.6198     323.6582      1.858     5.23     916.8237     57.05003     126.1865        10     1.340     0.577  22.71   0
       471     15.4495    207.6207 307.9248344  +6.6093830     3771.933     6855.342     7538.478     80.61636     161.9417     323.5295      1.858     5.56     932.8177     57.05003     460.4083        30     1.793     0.944  32.76   0
       472    701.8452    205.8627 307.6397993  +6.6332650     6695.663     12146.88     12813.16     81.13148      161.813     323.6904      1.921     6.12     905.9873     57.05003     878.8925        34     1.841     0.912  29.95   0
       473    179.5173    207.0733 307.8567101  +6.6151587     915.1985      1677.29     2023.937     81.38783     162.1988     323.6904      2.252     6.66      923.944     57.05003     167.7842        13     1.759     0.707  37.37   0
       474    255.7630    204.3841 307.8251325  +6.6188449     778.7227     1369.765     1653.181     80.74545     161.6842     323.4007      1.940     7.06     921.4338     57.05003     115.1761        13     1.657     0.842  28.34   0
       475    112.6767    202.8829 307.8846124  +6.6146289     4075.371     7768.189     8712.839     81.25976     162.1988     323.7869      2.064     5.86     926.5833     57.05003     494.1927        33     1.797     1.010  27.63   0
       476    574.0723    201.0748 307.6930322  +6.6309436     683.3201     1115.036     1636.277     81.38783     162.1345     323.6904      2.072     5.16      905.738     57.05003     114.0549         7     1.332     0.565  17.39   0
       477    451.5905    200.2225 307.7439349  +6.6271699     966.9324     1885.895     1940.321     80.74545     161.6198     323.4973      1.958     6.19       907.47     57.05003     177.2166        13     1.638     0.658  30.52   0
       478    383.1488    199.1689 307.7723979  +6.6252973     3177.143      6272.84     7018.669     81.00301      162.006     323.5939      2.071     6.40     912.0939     57.05003     397.1664        33     1.927     1.016  32.84   0
       479    640.3268    200.2067 307.6655413  +6.6335315     702.1119     1300.095     772.3181     80.74545     161.4264     323.5617      1.687     5.81     905.8199     57.05003     104.4981        10     1.522     0.624  15.54   0
       480    347.6745    197.8119 307.7871778  +6.6246608     2798.187     5200.725     5188.252     80.61636     161.5554     323.4329      1.910     6.25     914.8662     57.05003     343.9745        29     1.735     0.954  32.39   0
       481    102.2930    197.7854 307.8890966  +6.6163822     1286.998     2405.001     2596.474     80.87433     161.6198     323.4973      2.065     6.57     926.9319     57.05003     196.5369        16     1.670     0.724  32.52   0
       482    663.7269    195.7829 307.6559697  +6.6361449     692.8294      1118.13     880.3342     80.61636      161.813     323.5617      1.856     7.51     905.3413     57.05003     95.98291        11     1.890     0.836  40.48   0
       483    995.9747    193.0000 307.5180541  +6.6484486     943.0342     1866.603     2353.568     80.61636     161.4909     323.4329      2.366     3.69      898.076     57.05003     189.8682         8     1.000     0.555  17.59   2
       484    720.0394    191.6260 307.6327180  +6.6397545     388.6721     820.8729      813.235     80.74545     161.6842     323.4973      2.608     4.24     904.8336     57.05003     79.11218         5     1.601     0.320  28.66   0
       485    199.6090    186.7628 307.8490479  +6.6242230     4519.537     8620.752     9398.609     80.35756     161.6198     323.4007      1.992     5.78     922.6785     57.05003     571.7554        32     1.811     0.976  31.45   0
       486    661.4537    185.6323 307.6572535  +6.6402594     5074.472      9156.31     9629.178     81.00301     161.8774     323.5939      1.904     6.09     904.6769     57.05003     648.0403        33     1.870     0.894  31.31   0
       487     82.2803    186.4637 307.8977896  +6.6203794      1842.85     3380.993     3697.654     81.38783     161.9417     323.6261      2.006     7.12     927.9356     57.05003     259.1946        22     1.820     0.817  30.39   0
       488    809.4829    185.2805 307.5957773  +6.6453793     803.3506     1286.806     1416.938     81.13148     162.1345     323.7226      1.787     6.06     903.4484     57.05003     157.3026        11     1.815     0.569  27.35   0
       489    613.5432    182.8660 307.6772468  +6.6397897      7835.14     14061.96     14899.34     81.25976      161.813     323.6583      1.900     6.03     905.3868     57.05003     985.5491        36     1.825     0.946  30.67   0
       490    247.8808    183.0918 307.8291216  +6.6273693     672.1171     1019.834      1158.83     80.87433     162.1345     323.7226      1.755     5.43     921.4922     57.05003     101.4899         7     1.327     0.626  30.00   0
       491     12.7585    181.6308 307.9268272  +6.6200217     867.4702     1918.292     2270.607     80.61636     161.6842     323.4973      2.167     7.55     932.6093     57.05003      123.934        14     1.753     1.093  -9.92   0
       492    522.5712    177.8139 307.7152031  +6.6388130     1408.681     2462.405     2520.371     80.74545     161.6842     323.5617      1.984     6.75     905.1525     57.05003     210.4178        21     1.892     0.812  36.67   0
       493    340.5469    178.5458 307.7907849  +6.6323745     2884.706     5892.532     6369.937     81.38783      161.813     323.6261      2.127     5.96     915.3158     57.05003     354.3793        37     1.823     1.267  33.02   0
       494    617.1342    174.4073 307.6760383  +6.6434028      43093.3     80187.53     85234.81     80.61636     161.6198     323.4973      1.957     6.62     904.9703     57.05003     5747.036        72     1.968     1.088  31.20   0
       495    986.9999    177.2783 307.5223064  +6.6546388     537.7625      1034.68     851.8862     80.35756     161.2327     323.3685      1.996     5.02     897.4447     57.05003     105.5825         7     1.815     0.394  33.56   0
       496    296.1445    168.0246 307.8095811  +6.6352196     2833.535     5457.302     5390.008     80.74545     161.8774     323.4651      1.967     6.36     920.1117     57.05003     329.1392        24     1.777     0.859  28.70   0
       497    697.5073    163.5422 307.6430166  +6.6505919     594.6884     1132.239     1503.467     81.00301      161.813     323.7869      2.569     4.06     902.6569     57.05003     121.2008         6     1.017     0.463  36.82   2
       498    667.4259    161.6369 307.6555756  +6.6503671     1175.972     1970.212     2323.866     80.74545     161.6842     323.4651      1.982     6.16     902.8026     57.05003      172.356        16     1.640     0.710  27.77   0
       499    681.4676    158.3636 307.6498524  +6.6521907     2645.274     4929.376     5308.982     81.00301     161.8774     323.7548      1.950     7.66     902.3357     57.05003     361.1188        28     1.838     0.893  34.40   0
       500      2.2540    150.9444 307.9322235  +6.6323348     3256.241     7270.015     11895.56     80.35756     142.0718     258.7431      3.974    10.97     932.5041     57.05003     494.3218        67     3.468     1.485  89.84  24
       501    423.2966    149.3044 307.7573946  +6.6472381     3385.308     6186.856     6411.992     81.13148     162.4554     323.4973      1.920     5.71     906.6189     57.05003      434.936        29     1.926     0.869  34.03   0
       502    895.8181    144.8635 307.5612643  +6.6649642     3366.386      6082.38     6316.641     80.74545      161.813     323.5295      1.850     6.24     898.6265     57.05003     445.7614        29     1.779     0.901  30.83   0
       503    877.9049    145.9029 307.5686707  +6.6639339     1701.617      2892.31      2829.92     81.13148     162.4554     323.4973      1.796     6.47     899.0861     57.05003     267.6616        18     1.738     0.676  33.49   0
       504    587.7712    143.1404 307.6892819  +6.6553237     1352.245     2532.164     2309.198     80.74545     161.9417     323.5939      1.940     7.19     903.7952     57.05003     164.5571        19     1.723     0.841  37.54   0
       505    234.2119    142.7540 307.8361544  +6.6435613      738.062     1226.872     1227.386     80.61636     161.6842     323.3685      1.737     5.92     921.2978     57.05003     91.86963        10     1.209     0.816  37.54   0
       506    386.4991    141.0540 307.7729561  +6.6494035     1789.086     3033.641     3300.235     81.00301     161.8774     323.9156      1.897     6.71     910.0707     57.05003      222.257        18     1.499     0.842  32.58   0
       507    134.5843    137.9680 307.8776967  +6.6421699     2540.002     4611.552     4970.245     80.74545     161.6198     323.5617      1.952     5.96     923.3616     57.05003     305.8335        25     1.741     0.923  27.94   0
       508     16.4578    135.8663 307.9268318  +6.6390407     10512.85     19655.27     21531.71     81.25976      161.813     323.6583      1.970     5.68     930.6277     57.05003     1240.731        47     1.916     1.083  31.53   0
       509    282.7836    136.5205 307.8161887  +6.6477752     1025.874     2003.413     2185.799     80.74545     161.6198     323.4973      1.945     6.80     920.4062     57.05003     123.6095        16     1.740     0.745  28.18   0
       510    544.0564    136.1114 307.7076758  +6.6567540     584.0106     1245.786     1509.389     81.13148     161.7487     323.7869      2.113     5.83     903.5573     57.05003     90.50995         7     1.451     0.660  32.69   0
       511      3.0502    132.0620 307.9325288  +6.6401573     631.2902      1896.66     3502.507     81.13148     151.5771     270.8573      8.661    11.02     931.2858     57.05003     115.6747        19     2.601     1.300 -88.20  25
       512    884.8796    131.4422 307.5662562  +6.6701384     568.9651      1065.57     999.8318     81.13148     161.8774     323.6261      1.978     7.31     898.0919     57.05003     117.2119        10     1.861     0.804  37.29   0
       513    818.1979    130.5820 307.5939845  +6.6682552     5065.043     9181.227     10108.59     80.74545     161.4264     323.4007      1.927     7.07     899.9374     57.05003     803.8157        31     1.830     0.872  28.81   0
       514    763.2548    130.8575 307.6167986  +6.6662960     2658.466     4909.656     5067.789     81.25976     161.9417     323.6904      1.934     6.47     900.4921     57.05003     401.0173        23     1.783     0.761  33.25   0
       515    407.9025    131.2510 307.7643945  +6.6541726     848.5487     1380.149      806.197     81.00301      161.813     323.8513      1.833     5.61     907.5603     57.05003     130.5409        11     1.653     0.537  26.24   0
       516    749.7634    129.9515 307.6224331  +6.6662168     495.3311     1218.976     2241.389     81.00301      161.813     323.5295      2.557     5.11     900.4386     57.05003     114.1623         8     1.745     0.422  41.15   0
       517    527.0000    130.0175 307.7149649  +6.6586955     696.2566     1047.705     1803.671     80.61636     161.3618     323.3041      1.822     4.41     903.5397     57.05003     117.9564         7     1.046     0.530 -58.96   2
       518    524.6625    128.3286 307.7159924  +6.6593140     718.1882     957.6048     1573.503     81.25976     161.8774     323.7226      1.452     3.43     903.4882     57.05003     101.2717         5     0.866     0.447  15.02   3
       519     56.8946    127.7587 307.9103092  +6.6437567     2565.174     4809.027       5165.9     81.13148      161.813     323.7869      2.018     6.25      927.329     57.05003      364.894        27     1.729     1.021  28.50   0
       520     41.3131    128.5721 307.9167537  +6.6428935     1043.836     1644.142     1405.048     81.25976     161.6198     323.5295      1.774     6.01     928.4882     57.05003     140.1826        13     1.491     0.693  35.36   0
       521    419.5281    127.9944 307.7596747  +6.6559091     637.3498     782.7966     650.2897     80.74545     161.4264     323.5617      1.251     3.40     906.4194     57.05003      101.616         6     0.787     0.497  85.34   0
       522    580.4186    124.3446 307.6929655  +6.6628363     1009.031     1920.772     2069.855     80.61636     161.8774     323.4651      1.912     6.64     902.8396     57.05003      133.064        14     1.497     0.827  34.60   0
       523      1.7999    124.1104 307.9333159  +6.6433978     1196.994     1936.556     3163.582     75.82291     135.4671     251.1446      1.926     3.16      930.871     57.05003     253.5385        11     1.017     0.759 -76.09  25
       524    757.8766    118.3615 307.6194503  +6.6712745     1554.814     2999.377     2940.023     81.00301     161.9417     323.6583      1.984     6.42       899.73     57.05003     227.5037        24     2.060     0.777  26.27   0
       525    398.7742    118.4234 307.7686166  +6.6591607     737.3127     1442.371     1103.109     80.61636     161.7487     323.5617      1.900     6.00     908.4148     57.05003     139.7668        11     1.692     0.598  31.35   0
       526     70.6980    118.5260 307.9048866  +6.6480355     737.5363      1383.22     1073.486     80.74545      162.006     323.6261      1.915     5.26     925.8541     57.05003     108.7465         8     1.168     0.670 -12.20   0
       527     84.5332    112.0034 307.8993595  +6.6511964     7941.708     14580.83     15673.17     80.48706     161.5554     323.4329      1.949     5.61     924.5046     57.05003     960.2864        42     1.867     1.040  34.42   0
       528    413.5697    111.8896 307.7626899  +6.6623572     1995.722         3657     3818.184     81.25975     161.6842     323.6261      1.956     7.06     906.6546     57.05003     285.3348        21     1.650     0.845  27.13   0
       529    251.0025    106.0098 307.8304147  +6.6592984     1214.775     2259.452     3318.355     80.48706     161.5554     323.4651      2.414     6.83     920.3677     57.05003     176.5767        17     1.669     0.783  33.23   1
       530    627.3093    104.1324 307.6741640  +6.6727592     15196.71      27591.8     29146.26     81.25976      162.006     323.6583      1.912     6.28     901.0913     57.05003     1987.461        45     1.868     1.000  30.43   0
       531    656.9642    105.3781 307.6618037  +6.6732425     594.2801     982.5286     870.9343     80.61636     161.6198     323.4007      1.835     4.76     900.2173     57.05003     87.59058         7     1.175     0.546  31.15   0
       532    527.0823    100.2007 307.7159297  +6.6710085     4372.691     8105.793     8467.979     80.35756     161.3618     323.3363      1.953     5.96     902.2811     57.05003     559.5506        33     1.844     0.969  30.25   0
       533    245.4760    100.8379 307.8328840  +6.6612469     1619.869      3200.86      4587.61     81.00301     161.9417     323.6583      2.705     6.48     920.4104     57.05003     228.5765        22     1.699     0.966  27.15   1
       534    432.6585     95.7692 307.7553014  +6.6696562     18498.14     34326.09     36319.11     80.87433     161.8774     323.5939      1.956     5.77     905.4062     57.05003     2228.932        51     1.899     1.069  29.78   0
       535    613.7565     94.5410 307.6801149  +6.6762631     2644.634     5500.949     6103.061     81.00301      161.813     323.7548      2.246     7.08      901.025     57.05003     366.8975        38     2.098     1.262  45.39   0
       536    253.1834     96.0637 307.8298429  +6.6634783     7334.593     14145.65     15565.33     80.61636      161.813     323.4973      2.023     5.94     920.1376     57.05003     930.2131        42     1.885     1.046  30.64   0
       537     18.4367     95.6370 307.9273646  +6.6557162     1921.163     3620.267     4030.263     80.87433     161.7487     323.4651      2.056     6.55     928.0805     57.05003     253.4091        24     1.895     0.849  36.07   0
       538    910.3690     95.8400 307.5568561  +6.6856926     1675.609     3127.291     3683.004     80.74545     161.6842     323.4973      2.049     6.98     895.9886     57.05003     253.2338        19     1.762     0.776  32.86   0
       539    313.2958     96.4300 307.8048610  +6.6653568     963.3744     1926.072      2309.41     81.25976     161.6198     323.6904      1.944     6.15     917.1324     57.05003     116.3005        14     1.607     0.662  24.19   0
       540    240.9644     92.6858 307.8350320  +6.6644601      2485.81     4754.326     6111.309     81.13148     161.7487     323.6583      2.237     5.38     920.3449     57.05003     352.7639        28     1.822     0.995  32.28   0
       541    294.4040     91.1119 307.8128869  +6.6669146     889.8108      1697.37     2306.203     80.61636     161.5554     323.3363      2.259     6.57     918.7661     57.05003      130.773        17     1.547     0.904  35.22   0
       542    931.3555     86.0545 307.5484646  +6.6904367     841.7429     1449.984     1204.876     81.13148     161.8774     323.6904      1.848     6.36     895.2207     57.05003     130.8499        15     1.752     0.649  36.33   0
       543    682.5105     85.3607 307.6518614  +6.6823661     1644.673     2759.032      2779.13     81.13148     161.8774     323.6904      1.868     6.45     899.0229     57.05003     215.0527        18     1.647     0.709  30.62   0
       544    170.7166     78.1128 307.8647014  +6.6681028     8745.741     16449.24     17631.13     80.87433     162.0703     323.6904      1.961     6.03     920.5284     57.05003     1054.085        44     1.898     1.045  29.95   0
       545    246.9117     80.0791 307.8329852  +6.6698657     630.8619     1014.925     1688.224     80.87433     162.1345     323.7869      1.465     4.09     919.9254     57.05003     95.09235         6     0.804     0.596 -45.67   0
       546    514.7532     76.4210 307.7218481  +6.6804109     2428.752     4561.688     5010.625     80.74545     161.8774     323.4973      1.944     6.18     901.4492     57.05003     337.5183        27     1.856     0.856  28.65   0
       547    916.3268     75.9688 307.5550444  +6.6940967     3315.171     5995.414      5980.76     81.00301     161.8774     323.6583      1.897     6.27     894.9285     57.05003     549.7152        25     1.798     0.797  33.04   0
       548    717.1798     74.6405 307.6378180  +6.6879577     1713.548     3017.926     3069.506     80.74545     161.6842     323.4007      1.871     6.43      898.596     57.05003      220.493        19     1.706     0.732  35.26   0
       549    453.2820     74.7328 307.7474399  +6.6790365      1531.26     2830.656     3019.884     81.25976     162.1345     323.7226      1.917     6.89     903.9899     57.05003     221.0234        21     1.711     0.848  29.27   0
       550    980.9268     72.2623 307.5283317  +6.6977933     1669.436     3130.214     2803.002     81.25976     161.8774     323.6904      1.891     5.61     892.0079     57.05003     253.5398        19     1.734     0.744  31.35   0
       551    700.5026     68.6495 307.6449463  +6.6898705     6305.771     11196.02     12047.79     81.00301      161.813     323.8191      1.889     6.40     898.6635     57.05003     875.2119        33     1.795     0.911  30.34   0
       552    620.7369     67.9274 307.6781062  +6.6874857     3177.291       5638.5     5921.319     81.13148     161.8774     323.7226      1.899     5.69     899.6869     57.05003     399.8872        26     1.787     0.849  29.70   0
       553    324.6407     67.9573 307.8011045  +6.6774948     771.9009     1577.277      2097.38     80.87433     161.8774     323.5295      2.420     5.57     915.6266     57.05003     135.0275         9     0.969     0.903  73.08   2
       554    420.8076     64.1587 307.7612844  +6.6823073     4988.811     9218.681     9283.713     80.48706     161.6842     323.3685      1.895     6.02      905.692     57.05003     625.1784        30     1.805     0.906  28.24   0
       555     21.8809     63.6972 307.9270096  +6.6690189      7062.27     13115.82     13714.29     81.00301     162.1988     323.7226      1.952     5.73     925.2376     57.05003     960.4915        38     1.831     1.005  27.10   0
       556    667.7983     62.6912 307.6587315  +6.6912307      675.303     1240.102     1546.665     80.35756     161.5554     323.4007      2.456     5.85     898.8326     57.05003     94.46808        12     1.508     0.638  22.80   0
       557    496.2148     61.1110 307.7300622  +6.6861072     715.7852     1359.563     1738.345     80.87433     161.6842     323.5295      2.277     5.49     901.3534     57.05003     127.9947        11     1.591     0.535  44.56   0
       558    317.4691     59.0543 307.8043825  +6.6809284     10930.91     19596.49     21604.99     81.13148      161.813     323.5939      1.906     6.05     916.1802     57.05003     1390.255        43     1.925     0.983  29.72   0
       559     91.0690     59.3223 307.8984177  +6.6731668     2165.906     3994.067     4500.267     81.25976     162.0703     323.6261      1.888     5.33      921.555     57.05003     292.3203        23     1.667     0.879  25.72   0
       560    411.5537     59.3847 307.7652886  +6.6839662     716.3477     1212.835     1453.979     80.61636     161.6842     323.4007      2.007     4.36     906.4741     57.05003      123.331         8     1.065     0.622  10.79   0
       561     82.7303     58.3944 307.9019126  +6.6732677     1348.272     2363.042     2930.333     80.61636     161.4909     323.4973      1.973     6.60     921.8863     57.05003     177.7065        18     1.725     0.709  23.53   0
       562    785.8630     57.8532 307.6098470  +6.6971965     710.1441     1090.079     915.7665     81.13148      161.813     323.6261      1.663     3.99     896.8716     57.05003     114.0536         6     1.468     0.310  25.28   0
       563    451.9974     57.4965 307.7485515  +6.6861093     557.3304     1003.876     975.0406     80.74545     161.5554     323.3363      1.817     6.28     903.5958     57.05003     73.90662         6     1.373     0.808  26.14   0
       564    383.7233     57.0437 307.7769280  +6.6839941     1917.875     3554.714      3789.93     81.00301     161.8774     323.6904      1.909     6.79     909.5983     57.05003     250.8682        21     1.748     0.793  31.64   0
       565    977.6302     53.4150 307.5303299  +6.7054642     628.7652     822.0276     905.6161     80.74545     161.6198     323.5939      1.373     3.38     891.0169     57.05003     102.5707         5     1.016     0.325  68.24   0
       566    809.1468     52.0198 307.6003693  +6.7003870     1396.563     2575.248     2909.062     80.61636     161.8774     323.4651      1.956     7.18     895.9214     57.05003      262.007        19     1.913     0.755  37.03   0
       567    644.4216     52.6126 307.6687799  +6.6946055     9555.858     16879.52     18336.85     80.87433     161.6842     323.5617      1.911     6.65     898.8552     57.05003     1309.743        41     1.905     0.930  30.11   3
       568    636.0306     48.0593 307.6724180  +6.6962031     7578.706     13758.42      15019.1     80.87433     161.8774     323.6261      1.917     6.40     898.7527     57.05003     1010.436        38     1.856     0.959  29.52   3
       569    521.9361     52.3143 307.7196721  +6.6906055     1268.737     2236.493     2486.923     81.25975      162.006     323.6583      1.940     7.27     900.0457     57.05003     142.2155        19     1.720     0.860  29.57   0
       570    879.4995     50.0896 307.5712074  +6.7035457     1306.541     2126.626     2194.759     81.13148     162.3271     323.6261      1.715     5.53     894.3265     57.05003     169.1257        16     1.639     0.704  32.34   0
       571    244.8690     49.3674 307.8348657  +6.6824761     5178.889     10528.59     12258.92     81.00301     161.8774     323.6904      2.215     6.26     919.2903     57.05003     664.9659        52     2.162     1.320   8.71   0
       572    405.8591     47.9766 307.7680369  +6.6884841     6611.691     12598.53     12611.93     80.74545     161.8774     323.5295      1.966     6.07     907.0782     57.05003     855.0853        37     1.830     1.032  32.26   0
       573    665.7669     47.2993 307.6600904  +6.6975171     6805.894     12565.75     14114.94     81.13148     161.7487     323.8191      1.949     5.92     898.5421     57.05003     896.2335        31     1.828     0.952  29.00   3
       574    669.2836     44.6437 307.6587184  +6.6987318     11271.36     20440.19     22386.86     81.13148     161.8774     323.6583      1.931     6.38     898.4877     57.05003     1599.689        39     1.931     0.933  30.17   3
       575    721.4933     46.8145 307.6369567  +6.6995910     1638.401     2759.776     2869.643     80.87433     161.6198     323.4973      1.857     6.32     898.3682     57.05003     241.5585        17     1.679     0.668  30.85   0
       576    184.3427     44.6676 307.8601659  +6.6823712     975.2353     2102.273     2370.375     81.25976      161.813     323.6261      2.292     7.17     919.8483     57.05003     131.6868        16     1.736     0.829  29.40   0
       577    645.3879     43.9753 307.6686675  +6.6982040     2673.908     4711.664     5585.506     80.74545     161.6842     323.5939      1.880     5.95     898.5748     57.05003     338.2223        21     1.701     0.786  32.16   0
       578     52.1890     40.9863 307.9151849  +6.6794210     2827.289     5194.624     5459.854     80.87433     161.6198     323.5939      1.929     6.10     922.2388     57.05003      356.277        26     1.775     0.855  29.50   0
       579    142.9050     38.4665 307.8775874  +6.6835304     4348.995     7986.541     8517.187     81.13148     162.0703     323.6904      1.942     5.94      920.009     57.05003     582.9479        32     1.796     0.984  28.49   0
       580     72.9793     37.7433 307.9066581  +6.6814635     521.6599     955.7004     1087.484     80.74545     161.8774     323.4651      2.555     4.47     921.2733     57.05003     88.19244         6     1.141     0.497  38.78   2
       581    770.1219     36.8701 307.6170876  +6.7053309     1046.228     1903.392     2531.712     81.38783     162.1345     323.6261      2.253     6.14     896.7531     57.05003     143.3622        13     1.433     0.739   7.46   0
       582    877.1014     34.8177 307.5727136  +6.7097705     1613.461     2701.473     3189.964     81.13148     161.7487     323.4007      1.650     6.00     893.7648     57.05003     263.6507        14     1.637     0.618  35.52   0
       583    623.3228     34.2308 307.6781600  +6.7014848     1002.984     1690.916     1937.233     81.00301     161.9417     323.6583      2.108     6.95     898.2621     57.05003      173.473        15     1.732     0.781  33.79   0
       584    214.3398     34.7748 307.8480378  +6.6874692     834.4748      1499.36     1228.107     80.74545     161.8774     323.5295      1.706     6.19     919.4553     57.05003       120.92        14     1.580     0.681  27.95   0
       585    961.5901     31.2944 307.5377315  +6.7140593     555.7838     1056.347     1504.875     80.74545     161.4909     323.4329      2.169     4.73     890.5518     57.05003     131.1279         7     1.309     0.484  56.86   2
       586    829.6437     32.7843 307.5924970  +6.7090169     683.8754     1150.979     1138.754     80.61636     161.6842     323.4329      1.845     5.64     894.5929     57.05003     100.4716        10     1.363     0.658  27.24   0
       587    729.8591     32.3102 307.6339664  +6.7058605      1133.83      2062.44     2224.175     81.00301     161.8774     323.7869      1.850     5.88     898.2656     57.05003     180.1639        13     1.655     0.588  33.98   0
       588    786.0837     25.8406 307.6108253  +6.7104208      2458.87     4317.173     4975.211     81.13148      161.813     323.5939      1.844     7.25     895.5585     57.05003     385.1179        25     1.767     0.857  30.22   0
       589    212.7240     24.2623 307.8490624  +6.6917547     668.5314     912.0562     925.5189     81.38783     161.8774     323.6583      1.743     5.34     919.2217     57.05003     95.38843         8     1.457     0.552  26.26   0
       590    656.9880     21.4055 307.6646039  +6.7079124     816.6324      1586.44     1668.945     80.74545     161.6198     323.5617      2.016     6.97     897.9635     57.05003     125.1902        15     1.699     0.801  47.12   0
       591    199.4644   1019.8832 307.8211247  +6.2802565     635.1909      1215.45     1716.927     81.25975     162.0703     297.6415      2.263     5.24     942.6224     57.05003     85.52991         9     1.719     0.452  55.76  16
       592    295.7789     18.8751 307.8147420  +6.6967842     546.4875     1005.692     1576.473     80.74545     161.7487     323.5939      2.035     5.67     917.2273     57.05003     84.66083         6     1.351     0.671  11.39   0
       593    625.7706   1017.9796 307.6442363  +6.2954067     642.5229     1314.813     1268.319     80.61636     161.6842     315.9727      1.845     3.55     937.4702     57.05003     119.6661         5     1.265     0.287  36.53  18
       594    916.2966   1015.2017 307.5237315  +6.3063087     1641.459     3179.701     3034.132     80.61636     161.6198     323.3041      2.003     7.22     931.2901     57.05003     189.2042        23     1.789     0.976  26.17  16
       595    637.2531   1011.2128 307.6396961  +6.2985867     3688.273     6886.566     7452.021     80.48706      161.813     323.3685      1.972     6.01     937.1457     57.05003     491.6732        29     1.807     0.957  34.85   0
       596    776.1794   1011.9498 307.5820032  +6.3029500     1067.728     1893.252     2261.678     80.61636     161.9417     323.5295      1.834     6.41     934.5311     57.05003     148.2314        14     1.581     0.730  38.11   0
       597    249.6036   1011.2763 307.8006022  +6.2855025     3371.585     6615.752     6488.915     80.61636     161.3618     323.5295      1.988     6.42     942.6054     57.05003     435.7308        29     1.890     0.904  31.53   0
