#   1 NUMBER                 Running object number                                     
#   2 X_IMAGE                Object position along x                                    [pixel]
#   3 Y_IMAGE                Object position along y                                    [pixel]
#   4 ALPHA_J2000            Right ascension of barycenter (J2000)                      [deg]
#   5 DELTA_J2000            Declination of barycenter (J2000)                          [deg]
#   6 FLUX_APER              Flux vector within fixed circular aperture(s)              [count]
#   9 FLUXERR_APER           RMS error vector for aperture flux(es)                     [count]
#  12 FLUX_RADIUS            Fraction-of-light radii                                    [pixel]
#  13 FWHM_IMAGE             FWHM assuming a gaussian core                              [pixel]
#  14 BACKGROUND             Background at centroid position                            [count]
#  15 THRESHOLD              Detection threshold above background                       [count]
#  16 FLUX_MAX               Peak flux above background                                 [count]
#  17 ISOAREA_IMAGE          Isophotal area above Analysis threshold                    [pixel**2]
#  18 A_IMAGE                Profile RMS along major axis                               [pixel]
#  19 B_IMAGE                Profile RMS along minor axis                               [pixel]
#  20 THETA_IMAGE            Position angle (CCW/x)                                     [deg]
#  21 FLAGS                  Extraction flags                                          
         1     68.1975     26.5686 307.9004273  +6.6507346     2973.476     10553.62     14811.96      81.8393     164.4007     328.8668      3.163     8.40     932.8921     58.00851     346.2416        81     2.430     2.123  78.50   0
         2    610.7794     18.1293 307.6747430  +6.6723159     5883.131     20385.25     27837.03     82.10203     164.4662     329.0632      3.107     7.74     918.5557     58.00851     595.0547        93     2.407     2.173  59.55   0
         3    510.1443     15.1307 307.7167572  +6.6702050     1738.625     5513.772     7618.193     82.49455     164.4662     329.0632      3.104    10.74      919.142     58.00851     185.4226        55     2.252     2.122 -84.55   2
         4    224.7821      7.7863 307.8358521  +6.6637219     908.5722     3313.683     6048.267     82.23308     164.2696     326.3689      5.789    19.75     929.5535     58.00851     121.1152        56     5.007     2.163  55.42  19
         5    235.9068     12.0703 307.8310740  +6.6623247     3015.677     7736.177     12101.29     82.49455     164.7278     329.0959      3.502     9.85     929.8742     58.00851     289.4413        53     2.646     1.454  70.12  19
         6    239.0128     10.0313 307.8298495  +6.6632702     2623.562     5246.151     6353.016     81.97077     164.3352     329.0305      2.169     7.24     929.8148     58.00851     298.0461        26     2.091     0.900  63.55  19
         7    416.2479      9.9679 307.7560376  +6.6692087     6602.737     24635.42     34530.03     82.23308      164.597     329.0305      3.212     8.55     920.7233     58.00851     653.9923       100     2.447     2.286  60.10  16
         8    595.7623      9.6810 307.6812823  +6.6753042     1311.489     3354.566     6092.642     82.49455     164.6625     329.0305      3.771    10.76     918.2847     58.00851     180.0004        34     2.471     1.990 -71.17  18
         9      2.8171     10.3873 307.9282039  +6.6552272     730.3372     2101.614      2073.81     82.23308     151.2321     271.6682      2.466     9.26     935.5113     58.00851     109.0164        20     1.789     1.338  82.31  24
        10    893.1921      9.7951 307.5574003  +6.6851355     940.5473     1814.645     2224.583      81.8393     164.3352     328.9323      2.284     5.65     914.3109     58.00851     130.1184        13     1.388     0.721  88.81   0
        11    693.0013    998.3140 307.6075052  +6.2703704     4387.808     10147.56     12768.54     81.70763     164.1385     328.8013      2.596     5.33     969.5673     58.00851     464.9471        57     2.085     1.741  23.84   2
        12     45.7832   1019.0940 307.8761394  +6.2402281     4519.731     10560.25     12139.79     82.23308     164.4007     311.0988      2.414     5.52     965.9976     58.00851     578.7531        52     1.993     1.518  52.81  24
        13    725.6984    993.4995 307.5940597  +6.2734438     676.4405     1433.125     2265.745     82.49455     164.9891     328.9323      1.913     4.55     969.2302     58.00851     122.0309         7     1.190     0.494  -4.21   0
        14    932.5930    987.8519 307.5081462  +6.2826374      4751.08     9490.646     10684.22     81.97077     164.4007     328.7031      2.122     4.43     966.3407     58.00851     524.4506        45     1.765     1.432  55.26   0
        15    691.7808    986.4559 307.6084120  +6.2752256     1592.442     4211.532      6005.04     81.97077      164.597     328.8996      3.140     9.86     969.1081     58.00851     171.7738        43     2.325     1.686 -20.59   0
        16    217.6942    988.1507 307.8056483  +6.2587439     812.9682     1770.762     1943.091     82.36392     164.4662     329.2268      2.319     6.36     968.5731     58.00851     108.3005        10     1.186     0.957 -49.55   0
        17    339.1467    984.0873 307.7552435  +6.2644715     1021.703     2770.039     3397.127     82.49455     164.4662     329.2268      2.570     9.12      969.686     58.00851     115.1273        21     1.732     1.340 -49.70   0
        18    271.7070    972.6874 307.7836934  +6.2669296     7654.959     19461.98     24493.25     82.49455     165.0544     329.1941      2.687     5.91     968.8667     58.00851     798.4561        82     2.135     1.982  55.81   0
        19    521.7203    973.5690 307.6796189  +6.2748933     2222.682     5384.912     7219.669     82.36392     164.5316     329.0632      2.730     6.11     969.8691     58.00851     233.4323        37     1.656     1.608 -74.04   3
        20    518.8333    966.0872 307.6810725  +6.2778862     4299.858     10915.96      13347.1     82.49455     164.4662     329.0959      2.643     6.23     969.7748     58.00851     449.0549        64     2.175     1.726  66.18   3
        21    787.0923    972.9825 307.5691991  +6.2839522     733.6713     1417.727     1140.624     82.23308     164.3352     328.9651      1.902     8.26      967.557     58.00851     102.0312        13     1.635     1.166 -21.54   0
        22    725.9404    972.9599 307.5946496  +6.2819319     4553.119     10869.31     12355.24     82.49455      164.597     329.1614      2.455     5.36     968.3472     58.00851     518.9458        53     1.857     1.642  33.79   0
        23    887.1287    966.3630 307.5277886  +6.2900027     5791.629     12521.89     13924.92     82.36392      164.597     329.1287      2.270     4.90     966.1853     58.00851     650.4978        53     1.752     1.608  63.87   0
        24    860.7253    962.4902 307.5389072  +6.2907263     8042.334     17852.63     20218.17     82.49455     164.8585     329.1614      2.361     4.90     966.3242     58.00851     876.3964        65     1.860     1.711  39.52   0
        25    982.5966    961.8611 307.4882077  +6.2950244     3407.056     6988.727     7280.236      81.8393     164.3352     328.8013      2.107     4.75     964.9338     58.00851     442.6931        38     1.689     1.339  51.71   0
        26    505.1388    961.7906 307.6869165  +6.2792045     2088.145     5348.617     6317.146      81.8393     164.4662     328.8341      2.620     7.06     969.7849     58.00851     239.0964        44     1.966     1.622  20.67   0
        27    574.0882    963.1593 307.6581758  +6.2809328      758.478     1405.998     1800.815     82.49455     164.5316     329.1287      1.835     5.66     969.2906     58.00851     96.40906        10     1.202     0.752   2.73   0
        28    615.5803    961.0474 307.6409792  +6.2831841     735.1298     1580.381     2136.615     82.10203      164.597     328.8996      2.313     6.32     968.8043     58.00851     100.2193        10     1.231     0.911  68.38   0
        29    458.3560    958.1694 307.7065079  +6.2791425     989.9382     2271.198     2502.378     82.10204      164.597     328.9651      2.298     6.47     969.7239     58.00851     150.3048        19     1.501     1.140  -2.18   0
        30    892.4802    950.0069 307.5261105  +6.2969330     28382.37     61710.95     70147.24     82.10203     164.1385     328.8996      2.307     4.80     965.6598     58.00851     3150.123        94     1.949     1.762  57.22   0
        31    200.6338    948.6151 307.8140841  +6.2744968     941.3182     1886.903      2557.57     82.10204     164.3352     328.9651      2.329     6.00     968.1721     58.00851     130.2172        10     1.304     0.776  28.57   0
        32    790.4124    943.9348 307.5687935  +6.2960551     1360.822     3073.435     3592.666     81.97077     164.4007     328.9978      2.281     7.64     966.1519     58.00851     156.4618        26     1.653     1.336  56.43   0
        33    738.6584    941.8832 307.5904016  +6.2951845     3642.457     9013.301     10947.23     82.62498      164.597     329.1614      2.598     5.70     966.8089     58.00851     408.6237        53     1.906     1.692  55.56   0
        34     33.4448    939.6376 307.8839636  +6.2726188     1452.204     3552.287     4015.494     82.23309      164.597     328.9978      2.470     6.85     965.6938     58.00851     204.2212        34     1.935     1.322  64.29   0
        35    208.4770    941.3073 307.8110671  +6.2777756     787.0537     1828.403     2241.957     82.23309     164.8585     329.1287      2.853     5.27     968.2166     58.00851     102.1554         8     1.108     0.815  -6.79   0
        36    926.7632    936.7686 307.5122867  +6.3035348     4466.983     9495.468     10444.58     82.10204     164.3352     328.8341      2.204     4.71     964.9481     58.00851     508.1804        48     1.719     1.562  57.35   0
        37    900.7130    928.3417 307.5234114  +6.3061506     1348.933     2835.071     3155.766     82.49455      164.597     329.2268      2.130     6.17     964.9187     58.00851     185.2537        24     1.451     1.309  12.74   0
        38    621.4886    924.9446 307.6397355  +6.2982858     2279.155     5711.299      6665.25     82.49455     164.4662     329.2595      2.571     6.19     967.7833     58.00851     249.8593        44     1.850     1.601  38.73   0
        39    234.0073    925.1842 307.8009873  +6.2852839     2237.076      5692.86     6526.137     82.10204     164.3352     328.9323      2.516     6.07     968.5211     58.00851     246.5697        48     1.918     1.638  42.72   0
        40      3.2456    922.5368 307.8971100  +6.2786690     1279.349       2529.8     2955.243     82.36392     156.1367     278.2474      2.047     5.62     965.3811     58.00851     157.0424        21     1.525     1.036  51.97  26
        41    760.0909    924.4825 307.5820667  +6.3030800     753.1805     1557.112     1909.478     82.23308     164.8585     329.1614      2.411     7.05     965.7201     58.00851     99.82434        12     1.507     0.924  67.49   0
        42    443.5732    922.9034 307.7138492  +6.2932101      732.998      1594.17     1771.015     82.62498     164.3352     329.0305      2.350     5.43     969.1887     58.00851     115.2222         9     1.298     0.640   2.58   0
        43    546.2278    917.2673 307.6713163  +6.2989531      890.194     2047.222     2087.458     82.10204     164.5316     328.9978      2.287     7.48     968.8244     58.00851     107.5685        14     1.332     1.176 -33.47   0
        44    977.1748    916.5322 307.4919846  +6.3135596     755.1236     1499.351       1833.1     82.10204     164.4662     328.9978      2.090     5.82     963.0127     58.00851     84.15814        10     1.140     0.836 -49.33   0
        45    923.4654    917.5620 307.5143038  +6.3113552     487.1055     967.0106     1050.512     82.36392     164.5316     329.1614      1.827     4.20     964.3698     58.00851     96.21625         5     1.024     0.492  -3.88   0
        46    585.8946    912.8574 307.6549562  +6.3020929     651.1033     1334.909     922.9087     82.36392      164.597     329.2922      1.955     3.95     968.0042     58.00851     109.0991         6     1.279     0.349  -0.57   0
        47    266.5009    911.1575 307.7879384  +6.2921587     709.2234      1692.13     2493.652     82.49455     164.4662     329.3249      3.099     5.93     968.6888     58.00851     92.16681         9     1.428     0.693  59.25   2
        48    869.5511    903.7318 307.5372071  +6.3152782     4208.016      9333.59     10720.93     82.49455     164.5316     329.0959      2.367     5.12     964.2237     58.00851     450.8147        49     1.867     1.532  52.35   0
        49    307.3400    899.8239 307.7713250  +6.2981997     4336.376     11829.51     14553.66     82.10204     164.5316     328.9651      2.717     6.39     968.7612     58.00851     503.9671        62     2.110     1.763  52.36   0
        50    405.2132    901.0720 307.7305501  +6.3009459      945.379      2554.05     3308.425     81.97077     164.2696     328.8996      2.687     8.49     968.9338     58.00851     100.7393        19     1.661     1.213  -8.26   0
        51    227.4293    898.7281 307.8046189  +6.2959868     3359.437     8977.346     10756.88     82.36392      164.597     329.0632      2.669     6.29     968.3593     58.00851     367.4315        60     2.089     1.788  64.85   0
        52    555.2679    892.7164 307.6683810  +6.3093899     628.9059     1388.605     1492.045      82.7552     164.8585     329.1287      2.141     5.50     967.8753     58.00851     135.0476         6     1.253     0.681 -26.71   0
        53    883.6450    889.2258 307.5318282  +6.3217345     507.5486     1189.163     1246.385     81.97077     164.6625     328.9651      2.592     5.24     963.5454     58.00851     83.56067         5     1.044     0.743  -9.92   0
        54    722.8409    881.4354 307.5990173  +6.3196160     657.9861     1723.871     2457.344     82.23308      164.597     328.9323      2.233     3.42     964.6241     58.00851     139.6211         5     0.795     0.425  24.06   2
        55    952.5297    877.0538 307.5035664  +6.3290426     728.1889     1641.795      2214.43     82.36392     164.5316     329.0305      2.435     7.79     961.5872     58.00851     99.17883        16     1.432     1.186 -18.88   0
        56    640.4613    875.3961 307.6335070  +6.3193730     1210.687      2962.83     3411.578     81.83931     164.3352     328.8013      2.418     7.73     965.9187     58.00851     144.0812        24     1.674     1.271   2.19   0
        57     37.2994    871.9023 307.8846529  +6.3007117     1620.046       3980.3     4424.615     82.49455     164.9891     328.9323      2.630     7.29     963.8512     58.00851     183.5074        37     1.902     1.565  84.76   0
        58     54.8046    871.3660 307.8773859  +6.3015183     945.5898     2586.246     3400.323     81.70763     164.4662     328.8668      2.831     9.31     964.1956     58.00851     104.7465        22     1.637     1.477  52.81   0
        59    181.1467    870.5232 307.8248340  +6.3060865     1034.992      2700.02     3140.593     82.62498      164.597     329.0959      2.493     8.31     966.8376     58.00851     130.7012        22     1.681     1.287  47.61   0
        60    918.0880    870.5334 307.5181203  +6.3305935     560.9985     998.1088     1320.851     82.49455     164.7932     329.0959      1.816     3.97     962.7323     58.00851     109.4474         5     0.912     0.493  -5.58   0
        61    634.9135    864.6575 307.6361775  +6.3236221     3125.166     8585.182     10123.22     82.49455      164.597     329.2595      2.682     6.42     965.7028     58.00851     334.3376        57     2.044     1.774  39.88   0
        62    318.0291    858.1901 307.7682823  +6.3157447     6969.377     19908.08     26209.62     81.97077     164.4007     328.9323      2.886     6.45     968.3657     58.00851     784.7996        92     2.474     2.045  67.49   0
        63    772.7076    865.2470 307.5788068  +6.3279549     685.8321      1305.05     807.9382     82.49455     164.5316     329.2268      1.896     6.08     963.5699     58.00851     89.15515         8     1.092     0.952  83.81   0
        64    872.5093    861.0106 307.5374104  +6.3330144     1569.215     3696.872      4615.01     82.23308     164.2041     328.8668      2.503     6.84     962.3912     58.00851     179.4824        30     1.583     1.538 -85.68   0
        65      8.2748    860.8317 307.8971069  +6.3043117     533.8811     1073.099      1389.43     82.36392     164.6625     328.6048      2.233     5.91     962.8195     58.00851      84.5304         7     1.357     0.725  19.13  16
        66    189.7356    857.2588 307.8217079  +6.3118494     689.5716     1515.087     2273.662     82.62498     164.5316     329.1287      2.714     5.19     966.8947     58.00851     94.94739         6     1.060     0.749  88.01   0
        67     81.4350    848.7277 307.8670693  +6.3117544     936.8221     2412.814     3251.817     82.36392      164.597     329.0959      2.636     9.19     964.2686     58.00851     125.1376        20     1.990     1.184  -8.52   0
        68     62.9768    843.7001 307.8749214  +6.3132132     680.0117     1288.038     2489.258      82.7552     164.3352     328.8668      1.815     3.79     963.6792     58.00851     99.75977         5     1.476     0.280  49.51   2
        69     65.2969    841.7134 307.8740231  +6.3141109      1267.04     2754.922     3835.274     82.49455     164.9891     329.1287      2.592     7.50     963.6812     58.00851     178.0828        22     1.958     0.960  48.61   2
        70    863.0110    842.3171 307.5419916  +6.3404174     1133.553     2630.589      2819.99     82.10203     164.2696     328.9323      2.345     7.51     961.3281     58.00851     124.0974        21     1.430     1.230 -17.52   0
        71    833.6157    842.1740 307.5542313  +6.3395017     1180.781     2623.869     2896.128     82.23308     164.4662     329.0305      2.242     6.33     961.8292     58.00851     157.7138        20     1.485     1.185 -63.71   0
        72    797.0591    841.3132 307.5694757  +6.3386444     1509.956     3950.177     5201.551     82.49455     164.6625     329.2268      2.694     7.77     962.3799     58.00851      158.739        36     1.773     1.577  53.63   0
        73    532.9404    833.0428 307.6796842  +6.3332840     144178.5     404978.1     507836.1     82.49455      164.597     329.1941      2.790     6.34     966.0427     58.00851     14687.83       204     2.361     2.161  53.18   0
        74    377.3286    835.8475 307.7443562  +6.3269453     3187.335      9176.99     11691.87     82.49455      164.597     329.0959      2.820     6.81     967.3734     58.00851     360.6896        64     2.183     1.854  52.93   0
        75    320.4621    834.1546 307.7680813  +6.3257489     5211.544     15389.29     19383.43     82.36392     164.5316     329.1614      2.859     6.96     967.8823     58.00851     560.0015        74     2.213     1.955  41.65   0
        76    871.0716    828.8387 307.5390893  +6.3462494     2727.034     7187.346     8521.632     82.36392      164.597     329.1614      2.607     6.13      960.461     58.00851     282.0499        52     1.835     1.801  23.99   0
        77    638.6209    830.2491 307.6357926  +6.3379512     1582.609     4490.522     5043.778     81.97077     164.6625     328.9651      2.584     7.99     964.0059     58.00851     167.5983        38     1.774     1.626 -25.22   0
        78    606.3208    819.3631 307.6496030  +6.3413721      1138.55     3085.994     4683.659     82.36392     164.6625     329.0959      3.731    10.57     964.0349     58.00851     129.9857        27     1.888     1.650  34.65   2
        79    614.0659    823.4722 307.6462410  +6.3399331     1485.778     3832.648     5271.426     82.49455     164.6625     329.1287      2.987     7.85     964.0858     58.00851     159.1558        29     1.915     1.360  42.12   2
        80   1004.4019    822.8478 307.4837945  +6.3531404     2964.381     6495.688     7240.813      81.8393     164.2696     328.6703      2.260     5.02     956.8055     58.00851     340.4231        43     1.813     1.458  73.13   0
        81    802.1340    823.7937 307.5679523  +6.3460459     800.5135     2203.675     2817.521     81.97077     164.3352     328.8996      2.505     8.77     961.5797     58.00851     141.3841        18     1.867     1.151  -0.92   0
        82    890.0710    816.8502 307.5315837  +6.3518289     1817.975      4375.34      5146.97     82.49455      164.597     329.1287      2.473     6.02     959.4871     58.00851     186.5999        32     1.640     1.404  89.12   0
        83    346.5990    813.7039 307.7578935  +6.3350633     901.1989     1492.701     2831.732     81.97077     164.2041     328.7031      2.037     4.75     967.1451     58.00851      149.863         8     1.063     0.811  66.78   3
        84    349.8303    812.5066 307.7565890  +6.3356653     980.8204     2201.761     3134.135     82.62498     164.3352     329.0305      2.960     7.44     967.0803     58.00851     173.4744        17     1.911     1.218  79.77   2
        85    485.3478    802.0724 307.7005368  +6.3444867     1360.758     3485.719     4998.871     82.36392      164.597     329.1287      2.957     8.48     964.7744     58.00851     155.7125        33     2.125     1.400  -6.11   2
        86    531.6071    798.9034 307.6813896  +6.3473344     2458.606     7392.367     10705.72     82.23308     164.2041     328.8668      3.264     8.43     964.5997     58.00851     263.7247        64     2.343     1.968  19.78   2
        87    829.4196    800.8377 307.5573666  +6.3564288     582.0259     1165.038     1844.011     82.10204     164.3352     328.7686      2.220     3.51     959.8303     58.00851     83.00598         5     0.791     0.450 -71.88   0
        88    866.9165    797.4105 307.5418742  +6.3590873     757.3588         1769     1888.031     82.10203     164.3352     328.9323      2.322     7.03      958.712     58.00851     83.14673        12     1.357     1.021 -63.20   0
        89    502.0421    792.7623 307.6939021  +6.3488861     8121.441     23417.46     29260.75     82.23308      164.597     328.9651      2.798     6.55     964.3811     58.00851     836.8957        88     2.219     2.045  47.10   0
        90    448.5731    797.2788 307.7160048  +6.3452415     633.0914     1488.705     2246.683     82.36392     164.5316     329.0959      2.323     5.08     964.6375     58.00851     83.55566         7     1.627     0.448  -0.38   0
        91     90.5964    796.5703 307.8650217  +6.3335935     607.5446      1398.74      1467.45     81.97077     164.4007     328.9323      2.275     4.18     963.3858     58.00851     86.41394         5     1.176     0.424  35.34   0
        92    915.6138    790.8532 307.5218248  +6.3634088      2109.81     4859.396     5389.538      81.8393     164.5316     328.8341      2.315     5.96     957.7897     58.00851     245.9473        35     1.695     1.472  59.57   0
        93    296.3327    780.9824 307.7799199  +6.3468967     1350.379     3288.001     4830.031     81.97077     164.5316     328.9978      3.147    10.08     966.7195     58.00851     158.1716        29     2.054     1.380  79.33   2
        94     14.2742    782.8066 307.8972529  +6.3367245     830.5602     1561.357     1593.555     82.10204     164.1385     328.9323      2.078     4.10      960.897     58.00851     126.6738         9     1.027     0.868  48.52   0
        95    760.0839    777.0644 307.5870256  +6.3639433     26057.75     68175.22     83516.07     82.62498     164.7278     329.1614      2.686     5.94     959.7537     58.00851     2603.766       114     2.198     2.022  53.02   0
        96    217.6665    775.5171 307.8128465  +6.3465287      2283.73     7026.492     10711.63      82.7552     164.8585     329.1614      3.872     8.36     965.8069     58.00851     238.1562        69     2.310     2.040  72.95   1
        97    683.2892    768.9512 307.6192635  +6.3647429     33963.85     103371.7     157187.9     82.49455     164.4662     329.1941      3.335     8.49     960.4194     58.00851     3683.479       197     3.621     2.137  29.96   0
        98    885.4302    772.3104 307.5350110  +6.3700640      4616.29     11058.05     13601.86     82.62498     164.4007     329.0632      2.569     5.55     957.7358     58.00851     498.6509        57     1.880     1.744  58.51   3
        99    882.2053    763.7337 307.5366414  +6.3734982     3516.917     8600.154     10770.36     81.97077     164.2696     328.8996      2.669     6.18     957.5498     58.00851     414.0326        54     2.104     1.609  71.13   3
       100    327.1375    769.4958 307.7674863  +6.3526661     7580.548     24029.62     31482.93     82.36392     164.7278     329.1614      2.978     7.26     965.8791     58.00851     866.9596        91     2.335     2.097  52.67   0
       101    388.9686    767.2643 307.7418261  +6.3556480     8462.772      26179.5     34514.17     82.23308     164.6625     329.0632      2.966     6.94     964.9255     58.00851      904.989        94     2.373     2.077  61.38   0
       102    925.5978    765.4775 307.5185208  +6.3742164     1159.743      2886.91     3242.484     81.83931     164.0729     328.8996      2.610     7.63     957.0654     58.00851     163.4988        25     1.779     1.431  67.41   0
       103    217.0228    753.9609 307.8138432  +6.3554067     750041.2      2531581      3427259     82.10204     164.3352     328.8996      3.092     8.12     965.1608     58.00851     63524.93       622     2.740     2.503  59.85   4
       104    656.4913    753.3870 307.6309417  +6.3702785      845.177     2690.243     3965.219     82.23309     164.3352     328.8668      3.232     9.29     960.1686     58.00851     125.6439        15     2.474     0.974  78.90   2
       105    391.8932    749.9407 307.7411934  +6.3628976     19953.43     61905.76     82002.73     82.36392     164.5316     329.2268      2.982     6.98     964.5643     58.00851     2222.304       123     2.382     2.210  52.22   0
       106    509.5515    748.8345 307.6922572  +6.3672719     2772.268     8083.671     10325.92     82.23308      164.597     329.0305      2.869     7.33     962.3258     58.00851      309.012        63     2.101     2.006  36.29   0
       107    425.7427    745.9552 307.7272386  +6.3656706      1543.58     4694.608     9485.454     82.49455      164.597     329.1614      4.184    15.40     964.0974     58.00851     213.0396        80     3.796     1.866  60.56   0
       108    754.6761    745.2596 307.5903460  +6.3768949     5369.053     14315.35     17565.73     82.62498     164.6625     329.0632      2.698     6.21     958.2421     58.00851     523.0521        68     2.030     1.890  40.79   0
       109    111.7857    737.3724 307.8582061  +6.3587412      4207.42     13299.77     22278.89     82.10204     164.4007     328.9978      4.189    11.93     962.0679     58.00851     558.8883       148     4.631     2.253  32.94   2
       110    121.6424    737.2021 307.8541092  +6.3591408     1252.352     2747.182     3671.146      81.8393     164.2696     328.8013      2.481     8.07     962.4034     58.00851     161.9457        21     1.712     1.064  24.90   3
       111    776.3922    738.6901 307.5815276  +6.3803280     727.7455     1627.795     1334.286     82.10204     164.2696     328.8341      2.102     8.12     957.9272     58.00851     90.66974        13     1.919     0.960  32.43   0
       112    622.9229    762.9779 307.6445913  +6.3652032     2674.298     7527.002     9587.979     82.10204     164.4007     329.0305      2.820     6.77     961.3158     58.00851      292.947        57     2.004     1.880  63.64   0
       113    900.0846    733.6030 307.5302109  +6.3865308     3388.938      8448.68      9869.41      81.8393     164.2041     328.8013      2.510     5.94     956.4861     58.00851     398.8636        52     1.945     1.648  57.80   2
       114    894.4786    725.7298 307.5328088  +6.3895956     1643.231     4257.124     5162.782      82.7552     164.8585     329.0632      2.691     7.44     956.1237     58.00851     294.7781        37     1.941     1.478  45.63   3
       115    411.8841    760.9487 307.7325011  +6.3590188     739.8693     1931.325     2656.377     82.49455     164.5316     329.1941      2.898     7.98     964.4671     58.00851     104.4207        13     1.452     1.227  73.15   0
       116    949.9438    733.6219 307.5094559  +6.3881752     891.3257     1961.167     2523.375     82.10203      164.597     328.8996      2.324     6.94     955.2854     58.00851     102.5243        14     1.336     1.011  13.13   0
       117    544.0364    730.1725 307.6785322  +6.3761241     793.1364     2376.888     3288.121     81.97077     164.2696     328.8996      3.088    11.93     960.3745     58.00851      117.564        20     2.145     1.847 -38.48   2
       118    655.1814    730.9413 307.6322424  +6.3795019     849.7064     1948.289     2458.872     82.10203     164.4662     328.8668      2.557     5.50     959.0189     58.00851     115.3519        12     1.373     1.002 -19.36   0
       119    923.8104    725.1951 307.5206171  +6.3907885     1744.682     4052.668     4726.174     81.97077     164.3352     328.9978      2.405     6.44       955.64     58.00851     193.8351        36     1.835     1.439  89.56   0
       120    954.9948    724.8179 307.5076489  +6.3919774     1137.396     2542.436     2835.983     82.10204     164.2041     328.9323      2.260     6.76     954.5916     58.00851     136.9457        20     1.449     1.250  88.31   0
       121   1006.3145    754.8813 307.4852780  +6.3812649     517.9553     972.8792     1647.396     82.23308     164.9238     329.1614      2.545     4.82     953.8253     58.00851     98.88348         5     1.197     0.551  41.57   0
       122    217.5904    722.0158 307.8146869  +6.3686142     613.0665     1248.839     2439.031     82.23308     164.3352     328.9978      2.555     2.15      963.632     58.00851     121.0283         5     0.842     0.522  88.71   3
       123    220.1252    719.4454 307.8137187  +6.3697600     747.2279      1811.74     3292.142     82.36392     164.6625     329.1287      4.038     7.81     963.4451     58.00851     108.1874        11     1.860     0.917  44.65   2
       124    938.5477    712.9446 307.5148937  +6.3963346      1244.92     3047.981     3375.375     82.49455      164.597     329.0632      2.478     8.15     954.4224     58.00851     144.1506        23     1.507     1.390   8.16   0
       125    912.1537    714.9361 307.5258138  +6.3946378     590.7373     1338.446     1129.195     82.36392     164.5316     329.1287      2.253     3.81     955.1907     58.00851     100.9854         5     1.029     0.404 -31.03   0
       126   1012.5889    706.9272 307.4842747  +6.4012714     4194.725     9746.943     10716.86     81.97077     164.2041     328.9651      2.407     5.27       952.22     58.00851     493.5699        52     1.854     1.632  46.90  16
       127    980.7701    706.6465 307.4975293  +6.4003336     1021.057     2230.047     2279.312     81.97077     164.7278     328.9978      2.218     6.76     953.0059     58.00851     147.1094        14     1.417     0.904 -16.21   0
       128    867.5515    702.8367 307.5447865  +6.3981546     798.7628     1717.071     2039.417     82.36392     164.5316     328.9978      2.244     7.42     955.6017     58.00851     99.12769        14     1.365     1.131 -85.00   0
       129    824.0585    694.2892 307.5631785  +6.4002411      741.618     1598.906     1701.945     82.36392     164.5316     329.2268      2.395     5.75     955.5354     58.00851     83.35712        10     1.110     0.838  83.65   0
       130     24.0026    691.5402 307.8962952  +6.3747287     847.0071     2289.335     3881.747      81.8393     164.3352     328.8013      3.497     6.65     961.0625     58.00851     105.6757        13     1.468     0.846  49.47   2
       131    637.0568    681.3429 307.6414567  +6.3993769     2346.683     7002.176      9623.89     82.62498     164.6625     329.1287      3.059     7.21      956.583     58.00851     290.4739        60     2.084     1.969 -11.12   0
       132    100.4786    677.5489 307.8649371  +6.3830613     1549.441     4461.613     6075.159     82.49455     164.6625     329.0959      2.937     8.45     960.1526     58.00851     185.3334        48     2.161     1.749  75.32   0
       133    585.3135    679.8344 307.6630464  +6.3982795     702.2486     1355.768     1302.756     82.49455     164.4662     329.0959      1.786     5.85     958.3229     58.00851     111.9134         9     1.528     0.630  16.65   0
       134    973.8530    676.2040 307.5014302  +6.4126732     1519.523      3560.47     4009.431      81.8393     164.3352     328.7031      2.409     5.77     951.9722     58.00851     211.3162        28     1.624     1.377  35.89   0
       135    753.6305    673.2839 307.5932017  +6.4065763      8509.74     23954.26     30311.13     82.49455     164.4007     328.9651      2.819     6.42     954.0243     58.00851     792.0898        85     2.178     2.029  59.01   0
       136    609.1869    677.7557 307.6531788  +6.3999315     648.2285     1867.304     2678.563      81.8393     164.4007     328.8341      2.969     6.37     958.1008     58.00851     109.3752         8     1.431     0.796 -85.51   2
       137    883.7671    672.7886 307.5390457  +6.4110981     1678.588     4453.442     5656.892     81.97077     164.2696     328.9323      2.729     7.46     953.7708     58.00851     180.7034        41     1.953     1.621  87.24   0
       138    227.5171    667.4939 307.8123983  +6.3914549     2061.734     7010.003     9311.696     82.23309     164.9238     329.2268      3.133     7.99     959.8998     58.00851     248.0589        63     2.197     1.962  84.43   0
       139    634.4064    666.3061 307.6430662  +6.4054969      2631.92     8027.233     9883.058     82.10204     164.2696     328.8996      2.811     7.27     955.8265     58.00851     283.6601        62     2.086     1.982  48.80   0
       140    893.1736    658.5875 307.5356069  +6.4172731     756.0586     1477.637     1423.571     82.10204     164.4007     329.0305      1.903     4.90     952.5421     58.00851     120.1926         8     1.030     0.661 -55.84   0
       141    706.0804    654.4144 307.6136305  +6.4127879      1677.96     4881.433     7503.225     82.10203     164.3352     328.8996      3.384     9.50       952.93     58.00851     192.5834        53     2.204     1.977  74.56   0
       142    972.1417    650.9739 307.5029893  +6.4230332     4737.244     11700.35     13181.53     82.10204      164.597     328.9323      2.478     5.67     950.6906     58.00851      500.825        58     1.924     1.744  65.84   0
       143    910.5305    651.4202 307.5286222  +6.4208076     1273.504      3123.53     3366.881     82.10204     164.4662     329.0305      2.347     6.24     951.3748     58.00851     156.3687        25     1.603     1.246 -52.45   0
       144     49.8233    646.5752 307.8870707  +6.3941556     9079.021     29387.78     38541.35     81.97077     164.4662     329.0632      2.975     7.52     959.3051     58.00851     1037.077        99     2.468     2.064  61.48   0
       145    511.4674    646.3088 307.6949160  +6.4096643     787.2016     2012.549      2359.53     82.62498     164.7278     329.1287      2.688     7.38     957.9404     58.00851     112.1605        12     1.714     0.890  -7.68   0
       146    695.6188    638.0609 307.6185357  +6.4191922     1404.223     4150.727     5107.477     82.10203     164.5316     328.9323      2.784     8.64     952.2607     58.00851     169.5736        45     2.040     1.765 -32.52   0
       147    717.3760    636.6329 307.6095266  +6.4205044     1625.611     4836.767     6466.718     81.97077     164.4662     328.8996      2.905     9.98     952.0366     58.00851     155.8055        43     1.943     1.693  -8.44   0
       148    548.6849    635.6230 307.6797835  +6.4153143     1037.663     3078.358     4457.958     82.36392     164.3352     328.9651      2.995     7.48      956.293     58.00851     117.6329        14     1.318     1.188  68.55   3
       149    549.5524    632.5311 307.6795266  +6.4166197     950.2437     2421.615     3857.611     82.49455     164.5316     329.1287      3.024     7.98      956.104     58.00851     128.9027        17     2.226     0.800  14.36   2
       150    990.1501    632.4537 307.4961140  +6.4312760     2650.481     6455.279     7545.391     82.62498      164.597     329.1287      2.585     6.29     949.6846     58.00851     281.7388        55     2.116     1.652  55.99   0
       151    210.2970    633.4807 307.8207162  +6.4049225     637.9025     1855.031     3294.257     82.36392     164.9238     329.1287      3.828     8.05     958.2886     58.00851      116.183        12     1.453     1.246  29.95   0
       152    955.7717    631.2459 307.5104661  +6.4306360     4143.427     10428.81     11560.14     81.97077     164.6625     328.9978      2.474     5.77     949.6317     58.00851     453.9626        55     1.844     1.742  60.95   0
       153    295.2105    632.6702 307.7853973  +6.4080904     577.3124      1434.12     2076.569     81.97077     164.3352     328.9323      3.065     4.68      958.444     58.00851     92.36859         6     1.026     0.605  67.35   0
       154    114.5235    625.3833 307.8608567  +6.4050671     8204.825      27071.3     36739.66     81.97077     164.3352     328.9651      3.052     7.64     957.9679     58.00851     921.4254       102     2.450     2.166  54.87   0
       155    401.5657    624.2451 307.7414094  +6.4151140     1104.319     2686.523     4332.785     82.10204     164.5316     328.9651      3.203     6.14     958.0124     58.00851     136.6312        14     1.229     0.863  -4.01   2
       156    950.7350    614.2936 307.5131319  +6.4374681     3476.633     9314.989     12102.26     82.36392     164.7932     329.1287      2.819     6.41     948.7316     58.00851      371.168        60     2.109     1.719  47.55   0
       157    544.3433    609.8495 307.6824595  +6.4258108     16482.77      53131.3     72468.59     82.49455      164.597     329.1941      3.075     7.52     955.0901     58.00851     1693.969       118     2.440     2.249  55.48   0
       158   1005.9351    609.3237 307.4903188  +6.4413484     49745.52     119579.7     140506.7     82.62498      164.597     329.0632      2.492     5.40     948.4668     58.00851     5327.639       120     2.128     1.884  61.93   0
       159    152.6507    606.4282 307.8456273  +6.4141663     1048.146     2926.175     4055.519     82.10204     164.7278     328.9978      2.850     9.11     957.2797     58.00851     133.8538        23     1.715     1.350   9.94   2
       160    441.6535    593.7883 307.7257494  +6.4290236     20059.96     69056.34      95586.9      81.8393     164.5316     328.8013      3.138     7.84     955.7216     58.00851     2092.076       132     2.495     2.320  52.67   0
       161   1019.6796    592.5939 307.4851581  +6.4487107       1872.6     4636.245     5104.988     82.10204     164.0729     304.7695      2.498     6.48     947.1697     58.00851     205.6222        38     1.796     1.505  47.15  16
       162    114.9773    587.4573 307.8619515  +6.4207399     596.3212     1728.755     2771.762     82.10203      164.597     328.8996      2.632     3.99     956.2394     58.00851     93.64697         5     1.319     0.345  48.33   0
       163    288.1361    582.5770 307.7900348  +6.4285356      619.246     2141.949     2844.051     82.10204      164.597     328.9651      3.139     9.18     955.4772     58.00851     92.36572        13     2.005     1.172  40.58   0
       164    713.4691    577.1764 307.6131536  +6.4449220     1892.174     5975.125     7628.599     82.10204     164.4662     329.0632      2.986     8.58     949.2554     58.00851     198.7434        53     1.989     1.909   2.89   0
       165    767.0490    572.2412 307.5910140  +6.4487386     5478.642     16220.16     20415.51     82.49455      164.597     329.0305      2.871     6.85     948.6247     58.00851     543.6973        80     2.257     2.013  65.28   0
       166   1005.3287    572.6556 307.4918015  +6.4564674     786.4288     1524.566     2442.458     82.36392     164.5316     329.0632      2.891     6.06     945.7365     58.00851     105.1542        10     1.535     0.672  55.45   2
       167   1007.3461    570.7130 307.4910268  +6.4573362      913.454     1975.372     2312.021     82.49455     164.4662     329.2595      2.620     5.97     945.5583     58.00851     122.5054        11     1.369     0.732  25.94   2
       168    591.3727    570.2934 307.6642144  +6.4437061      1033.97      3103.53     3877.208     82.62498     164.3352     328.9323      2.845    10.10     950.6559     58.00851     116.7178        28     2.066     1.637  18.26   0
       169    843.0729    555.5584 307.5599252  +6.4581489     1185.279      3287.29       3865.1     82.36392     164.6625     329.1287      2.723    10.26     947.0436     58.00851     157.0114        27     1.769     1.660 -11.89   0
       170    800.7460    554.6950 307.5775755  +6.4571011     850.9429     1681.648     2790.493     82.36392     164.5316     329.3249      2.897     8.69     947.8323     58.00851     110.4114        16     1.992     1.060  83.47   2
       171    804.0042    552.3463 307.5762981  +6.4581790     660.0659     1602.011     2626.137      81.8393     164.3352     328.7686      2.963     8.21     947.6765     58.00851     129.2782        13     2.149     0.876  70.06   2
       172    782.3461    544.2187 307.5855880  +6.4608158     60093.82     182378.2     238118.5     81.97077      164.597     328.8996      2.950     6.99     947.5482     58.00851     6080.148       195     2.475     2.407 -29.05   0
       173    230.2280    548.4158 307.8152959  +6.4407069      2390.31     8507.302     11765.91     82.10204     164.3352     328.9978      3.120     8.15     954.4426     58.00851     289.9115        74     2.350     2.102  36.89   0
       174    164.3390    543.0508 307.8429061  +6.4407220     18325.39     64068.01     89554.31     82.49455     164.5316     329.0959      3.171     8.16      954.309     58.00851     2130.153       131     2.561     2.292  59.30   0
       175     89.5815    539.1942 307.8741571  +6.4398164     2108.672     5995.614      9062.64     82.10204     164.2041     328.9323      3.186     9.50      954.005     58.00851      233.443        55     2.335     1.930  44.37   2
       176    337.7859    530.0558 307.7711404  +6.4518748     4952.372      17929.2      25439.5      81.8393     164.5316     328.8013      3.224     8.22      951.476     58.00851     563.8167        95     2.456     2.265  57.84   0
       177    818.9980    531.3801 307.5707607  +6.4673327     1834.024     5164.176     6577.824     82.10203     164.2041     328.8013      2.843     7.53     946.2219     58.00851     190.4301        49     1.928     1.813  71.31   0
       178    504.4147    524.3063 307.7019657  +6.4597993     1882.893     6109.765     8966.067     82.23309     164.3352     328.9323      3.196    10.17     949.4636     58.00851     203.1716        57     2.605     1.847  54.70   2
       179    502.0231    526.3124 307.7028937  +6.4588914     1479.347     2450.703      3277.91     82.49455     164.4007     328.9651      1.718     5.36     949.6014     58.00851     173.0181        11     1.175     0.810  12.67   3
       180    142.4327    527.8489 307.8525399  +6.4462663     669.0215     1735.766     3648.692     82.23308      164.597     329.0305      4.021     6.92     953.5369     58.00851     88.98376        11     1.668     0.804  38.93   0
       181    773.0326    524.8764 307.5901159  +6.4684924     2005.971     6312.866     7959.474     82.36392      164.597     329.0305      2.887     7.99     946.3663     58.00851     199.3148        57     2.051     1.917  82.95   0
       182    151.2552    518.4187 307.8491863  +6.4504543     1942.098     7253.633     10038.14     81.97077      164.597     328.8996      3.201     8.99     952.9927     58.00851     272.5431        62     2.263     1.957  67.25   0
       183     23.1087    517.4608 307.9025649  +6.4465664      1531.95      5755.85     7839.748     82.36392     164.6625     329.1941      3.144    10.65     953.3609     58.00851     209.3825        60     2.431     1.967  71.03   0
       184    548.1008    517.9023 307.6839944  +6.4638969     956.8227     2801.169     4122.925     82.49455     164.9891     328.9323      3.215    10.26     948.4216     58.00851     112.6161        26     1.932     1.520 -51.71   2
       185    363.5194    520.4189 307.7607529  +6.4567113      597.093     1227.873      2306.86     82.10204     164.2696     329.0305      3.627     5.25     950.5173     58.00851     80.82941         5     1.012     0.770  -7.47   0
       186    246.2458    514.5842 307.8097716  +6.4552088     24825.11     92104.06     132865.8     81.97077     164.4662     328.8341      3.258     8.38     951.9319     58.00851     2866.808       148     2.649     2.362  57.21   0
       187    472.9550    505.2378 307.7157060  +6.4666246     13040.23     45137.88     67107.94     82.23308     164.5316     328.9978      3.327     8.14     948.8989     58.00851     1254.901       133     2.618     2.399  44.29   0
       188     23.4375    503.0328 307.9029169  +6.4525339     474.9412     1027.609     1774.995     82.10203     164.3352     328.8668      2.146     4.85      952.951     58.00851     82.37341         5     1.413     0.472  83.37   0
       189    632.6975    498.4514 307.6494304  +6.4747408     999.2537     2928.655     5034.116     82.36392      164.597     329.3249      3.550    10.63     946.5853     58.00851     127.2952        29     1.913     1.645  76.30   2
       190    187.3078    500.6308 307.8347795  +6.4590021     704.2812     1537.568     2695.513     82.62498     164.4007     329.0632      2.516     4.40     951.8345     58.00851     99.26404         7     0.877     0.659  67.14   0
       191    373.5083    497.5878 307.7573654  +6.4664701     561.7932     940.3492     2056.506     82.23309     164.3352     328.8668      2.166     4.21     948.8357     58.00851     82.14893         6     1.091     0.464 -79.08   0
       192    117.3824    493.1315 307.8641434  +6.4597623     7738.355     27514.92     39000.88     81.97077     164.4662     328.9978      3.199     8.05     952.3052     58.00851     901.2283       109     2.570     2.256  52.26   0
       193    301.4077    496.6440 307.7874137  +6.4644558     1032.417     2328.232     2764.702     81.97077     164.4007     328.7686      2.379     8.12     949.2515     58.00851     135.6834        19     2.178     0.846  25.16   3
       194    303.7263    493.2979 307.7865615  +6.4659146     1268.219     3145.351     4279.239     82.10204     164.7278     329.0959      2.884    10.39     948.9197     58.00851     164.2728        33     2.505     1.202  24.78   2
       195    769.1635    506.5430 307.5923433  +6.4759332     6093.225      18305.4     23807.37     82.49455      164.597     329.1287      2.940     7.14     945.2385     58.00851     608.7354        81     2.269     2.028  71.92   0
       196    944.5436    507.8298 307.5192837  +6.4812183     682.9343     1575.212     1469.448     82.36392     164.6625     328.9978      2.272     6.24     942.7791     58.00851     106.1342        10     1.602     0.684  75.70   0
       197   1019.6043    493.0778 307.4885281  +6.4897951     732.7853     1583.726     1601.752     82.10203     164.0729     305.7571      2.047     6.38     939.3006     58.00851     105.9503        10     1.295     0.883  83.87  16
       198     82.9208    491.4799 307.8785456  +6.4592924      1002.31     3324.427     3991.597      82.7552     164.8585     329.2595      2.901    11.21     952.5997     58.00851     111.7695        35     2.207     1.587  69.53   0
       199    942.6741    486.9565 307.5207629  +6.4897742     2363.713     6358.025     7375.629     82.36392     164.6625     329.1287      2.647     6.52     941.6189     58.00851      231.605        53     1.947     1.811  59.35   0
       200    412.3984    475.2191 307.7419299  +6.4770011      10862.3     25174.48     29625.74     82.10204     164.1385     328.8013      2.406     8.45     947.2351     58.00851     1130.398        41     2.026     1.220  57.21   3
       201    415.3291    473.0416 307.7407833  +6.4779977      13100.1     34274.02     45773.92     82.36392      164.597     329.1614      2.849     8.74     947.1191     58.00851     1342.593        82     2.780     1.610  42.41   3
       202    620.3660    475.3145 307.6553437  +6.4838831     3176.374     5831.375     6944.823     82.49455     164.4662     329.0959      1.960     7.34     945.5406     58.00851     369.3278        20     1.634     0.923  39.49   3
       203    622.9023    472.4776 307.6543833  +6.4851387     3932.234     10084.35        13616     82.10203     164.8585     329.1287      2.831     7.88     945.2978     58.00851      411.836        60     2.536     1.608  28.41   3
       204    179.5298    471.7733 307.8389938  +6.4706561     5817.032     21013.53     30303.68     82.10204     164.4662     329.0305      3.254     8.24     950.0357     58.00851     680.5074       101     2.576     2.227  50.95   0
       205    146.9621    472.7105 307.8525204  +6.4691814     638.1269     1451.596     2173.681     82.49455     164.5316     329.1287      2.543     6.18     950.5958     58.00851      100.444         9     1.684     0.637  53.57   0
       206    544.4819    468.9153 307.6871524  +6.4840013     909.6855     2697.455     4539.929     82.23308     164.9238     329.1614      3.530    11.05     945.6718     58.00851     109.8912        24     2.324     1.464 -87.56   2
       207    917.8982    467.3076 307.5317380  +6.4970656     2143.033     5885.565     7098.687     82.49455     165.1196     329.0305      2.664     7.01     940.9369     58.00851     252.7841        47     1.930     1.713  71.35   0
       208    590.9786    465.8634 307.6678971  +6.4868079     2093.573     6936.808     9842.994     82.10204      164.597     328.9651      3.186     9.06     945.0562     58.00851     219.3452        66     2.284     2.072  81.92   0
       209    939.9888    459.6578 307.5227975  +6.5009560     1508.781     3860.105      5213.19      81.8393     164.5316     328.8013      2.774     6.99      939.739     58.00851     201.9198        34     1.841     1.393  79.81   0
       210    501.3376    457.8586 307.7054877  +6.4871303     2005.447     4645.682     5790.735     82.62498     164.5316     329.1287      2.399     8.31      945.177     58.00851     211.8926        25     2.105     0.916  58.84   3
       211    504.7544    456.4377 307.7041131  +6.4878306     2216.159     5628.705     7815.254     82.23308     164.5316     328.9978      2.801    10.56     944.9515     58.00851     233.6483        41     2.388     1.395  50.59   3
       212    347.8601    459.2420 307.7693383  +6.4814464     683.3798     1626.477     2756.117     82.49455      164.597     329.1941      2.799     5.37     946.3497     58.00851     92.44373         7     1.260     0.647  79.35   1
       213    350.3640    455.7243 307.7684147  +6.4829821     808.0501     1985.758     3047.678     82.36392     164.6625     329.1287      2.984     6.66      946.159     58.00851     114.1218        13     1.832     0.679  31.33   0
       214    858.8842    454.6942 307.5567323  +6.5003166       1028.7     2200.319     3195.859     82.36392     164.9891     329.2268      2.767     4.63     941.6805     58.00851     153.3193         9     1.154     0.855  81.86   3
       215    858.6755    451.5537 307.5569247  +6.5016063      1154.67     2933.213     4607.077     82.36392     164.6625     329.0959      3.534     5.03     941.5125     58.00851     169.7336        17     1.492     1.012   2.83   2
       216    866.0683    447.0685 307.5539974  +6.5037032     974.5482     2541.798     4069.889     82.49455     164.7278     329.0632      3.442     7.20     941.1401     58.00851     126.4053        14     1.754     0.827 -89.77   2
       217    690.9027    443.3008 307.6270544  +6.4994445     968.5452      3031.95     3548.265     82.49455     165.0544     328.9323      2.714    11.03     942.6907     58.00851     127.5441        34     1.947     1.768  42.07   0
       218    360.1607    443.2621 307.7647570  +6.4884538     985.0516     2535.076     4398.023     82.49455      164.597     329.1614      4.448    10.16     945.3805     58.00851     112.5366        20     2.136     1.346  71.23   2
       219    364.6816    441.9681 307.7629185  +6.4891387     953.0252     2352.122     3598.627     82.36392     164.4662     329.0632      2.898     5.81     945.3225     58.00851     119.6201        11     1.197     0.794 -88.69   3
       220    589.7620    438.1378 307.6693379  +6.4982142     3100.375     10511.71     14412.01     82.49455     164.6625     329.0959      3.108     7.91     942.8581     58.00851     308.5325        73     2.271     2.078  39.22   0
       221     53.7042    441.5850 307.8923987  +6.4789144     818.7883      1781.56     2714.156     82.23309     164.3352     328.8668      2.626     7.08     949.8354     58.00851     98.46436        13     1.580     0.889  13.57   0
       222    752.5318    434.3627 307.6016959  +6.5051816     5750.623     18363.24     25504.32     82.36392      164.597     329.2268      3.104     7.41     941.6263     58.00851     577.1298        94     2.407     2.198 -59.26   0
       223    272.4451    438.1731 307.8014476  +6.4876295      656.191     1591.307     2283.585     81.97077     164.6625     328.9978      2.175     6.65     946.0193     58.00851     94.89966         7     1.811     0.685  -4.16   2
       224    272.5580    433.5766 307.8015560  +6.4895309     921.0618     2141.772     3510.501     82.10204     164.4662     328.8668      2.910     7.33     945.7455     58.00851     113.9637        15     1.898     0.793  30.50   2
       225    936.6085    429.6910 307.5252113  +6.5132162     825.3076     1889.155     2178.023     82.10204     164.2696     328.8341      2.374     5.21     937.4553     58.00851     126.2029        10     1.319     0.580 -79.53   0
       226    354.8745    430.7192 307.7673815  +6.4934559     678.3074     1752.666     2553.466      82.7552     164.8585     329.1614      3.108     6.56      944.685     58.00851     94.11334         8     1.525     0.793  12.60   0
       227     88.6825    429.3719 307.8782503  +6.4851260     1120.029     2622.549     4009.801     82.36392     164.4007     329.0305      2.646    10.33     949.0115     58.00851     153.6075        26     2.361     1.260  81.88   3
       228     92.6803    427.0436 307.8766648  +6.4862209     1261.157      2803.37     4240.706     82.49455      164.597     329.0632      2.462     8.95     948.8848     58.00851     158.9606        23     2.458     0.910  51.37   3
       229    726.7285    427.1892 307.6126806  +6.5072864     822.4308     2101.354      3103.25     81.97077     164.2041     328.9323      3.256     8.64     941.4882     58.00851     110.0593        15     1.545     1.349  55.42   2
       230    991.3972    424.1943 307.5025838  +6.5173007     2202.493     5626.308      7218.74      81.8393     164.2696     328.9323      2.641     7.28     935.9388     58.00851     239.3925        47     2.066     1.618  28.91   0
       231    323.9546    422.2939 307.7805392  +6.4959034     769.9548     2252.362     3403.765     82.36392     164.5316     329.2268      2.413     3.53     944.3998     58.00851     103.3593         5     1.139     0.315  24.03   3
       232    328.3541    421.4100 307.7787374  +6.4964150     805.6757      2552.37     4476.763     81.97077     164.4662     328.7686      3.754    12.52     944.3091     58.00851     124.6326        29     3.027     1.442  37.45   2
       233    792.8190    408.7060 307.5857851  +6.5171116      795.493     2041.231     2645.238     82.36392     164.3352     328.9323      2.545     8.02     939.8135     58.00851     114.7619        13     1.850     0.972  79.83   0
       234    805.8332    408.9000 307.5803599  +6.5174634     548.3054     1216.828     1739.053     82.49455     164.4662     329.2595      2.884     5.51     939.6656     58.00851     78.05597         6     1.391     0.616 -77.46   0
       235    690.8012    406.3064 307.6283421  +6.5147147     4848.375     16102.13     21904.41     81.97077     164.2041     328.7686      3.083     7.95     940.0891     58.00851     490.4963        85     2.372     2.134  56.47   0
       236    610.9366    401.2502 307.6617648  +6.5141477     844.4125     2568.113     3642.546     82.49455     164.5316     329.1614      2.867     8.83     939.8988     58.00851     106.2747        17     2.337     0.931 -68.52   2
       237    584.2704    397.6039 307.6729904  +6.5147664     5000.906     17925.12     29462.34     81.97077     164.2041     328.9323      3.505     9.02     939.7521     58.00851     538.6514       124     3.049     2.285  40.73   0
       238    915.9382    396.1300 307.5349449  +6.5263873     1793.964      4945.17     5530.931     82.62498      164.597     329.1614      2.539     6.92      936.189     58.00851     279.0256        43     1.812     1.705  45.93   0
       239    353.9868    394.2838 307.7689818  +6.5084688     7011.472     15391.31     17958.26     82.10203     164.4007     328.9323      2.287     7.12     942.4914     58.00851     706.1677        38     2.154     1.132  47.71   3
       240    356.5621    391.4236 307.7680062  +6.5097355     8751.643     23014.57     31314.76     82.10204     164.3352     328.8668      2.827     8.88     942.2733     58.00851     845.6211        77     2.758     1.576  41.71   3
       241    871.0935    390.8983 307.5537928  +6.5270605     652.8311     1866.383     2395.215     82.49455     165.1848     328.9978      2.181     5.94     937.1682     58.00851     104.5085         9     2.041     0.487 -84.72   0
       242    103.9798    390.5773 307.8731954  +6.5016535     561.8976     1046.114     2390.816     82.23308     164.4007     329.0305      3.340     4.08     946.8159     58.00851     88.92896         5     1.069     0.445 -62.82   0
       243    884.5406    386.3644 307.5483461  +6.5293783     2037.435     5826.239     7450.454     82.49455      164.597     329.0632      2.804     7.30     936.4541     58.00851     233.0513        57     2.180     1.807  63.53   0
       244    212.9564    383.1771 307.8280747  +6.5083490     3700.308     14340.39     20810.19     81.97077     164.4662     328.8996      3.304     9.34     944.0678     58.00851     443.6539        89     2.481     2.249  67.91   0
       245   1017.3255    373.0130 307.4935057  +6.5392903     4436.979     11246.92     13674.09     81.97077     164.2696     325.6422      2.584     5.81     931.7335     58.00851      478.038        61     1.948     1.799  70.84  16
       246    113.0114    372.1225 307.8700602  +6.5095743     1337.214      5337.68     7744.996     82.10204     164.2041     328.9323      3.244    10.82     945.5861     58.00851      160.746        61     2.326     2.004  75.46   0
       247    134.6483    365.1158 307.8612890  +6.5131900     802.8762     1902.852     3515.015     82.49455      164.597     329.1287      3.576     6.31     944.3657     58.00851     85.28906        12     1.371     0.816  35.50   2
       248    138.1227    368.0570 307.8597429  +6.5120918      890.326     1782.443     3776.749     82.49455     164.5316     329.0632      3.469     6.25     944.3937     58.00851     121.8529        11     1.468     0.747 -75.64   2
       249    359.4699    361.7576 307.7677976  +6.5220801     600.0558     1634.845     2754.692     82.36392      164.597     329.1614      3.238     6.91     940.4351     58.00851     104.2816        10     1.894     0.706 -29.37   0
       250    410.9808    357.8246 307.7464833  +6.5254206     1889.671     4166.157     5074.454     82.10204     164.4007     329.0305      2.330     7.90      938.699     58.00851      200.553        32     2.236     1.097  39.47   3
       251    413.4848    354.6646 307.7455474  +6.5268087     2200.919     5815.894     7703.169     82.62498     164.7932     329.1614      2.715     9.30     938.3758     58.00851     226.0786        46     2.504     1.325  41.16   3
       252      9.9724    357.0032 307.9134716  +6.5123707     1234.677     3505.717     5120.537     81.97077     164.3352     328.8996      3.107     9.89     945.7126     58.00851     144.0092        33     2.023     1.624  76.04  16
       253    752.3464    353.0984 307.6045074  +6.5387263     4490.254      13765.8     19840.65     82.36392      164.597     329.3249      3.287     8.11     935.4351     58.00851     430.3607        97     2.901     2.199 -11.39   0
       254    996.6604    347.8061 307.5029564  +6.5490130     1577.643     4366.104     4933.935      81.8393     164.4662     328.8668      2.450     6.89     930.7976     58.00851     189.4034        36     1.749     1.552  66.57   0
       255    461.0491    339.3560 307.7262599  +6.5347133     745.9301     2827.323     4387.461     82.49455     164.5316     329.0959      3.513    12.00     936.6433     58.00851     102.6849        27     2.247     1.785 -27.99   2
       256    818.2795    335.6775 307.5776398  +6.5481072     12554.92     38421.09     50665.16      82.7552     164.8585     329.2595      2.983     7.21     933.4877     58.00851     1273.427       106     2.414     2.128  66.68   0
       257    434.2010    338.5341 307.7374664  +6.5341584     649.7656     1757.465     2775.418     81.70763     164.2041     328.8341      2.733     6.30     937.1077     58.00851     98.92358         9     1.700     0.655  32.43   0
       258    590.2295    327.4571 307.6728734  +6.5439252     880.7447     2876.245     3716.639     82.10204     164.6625     328.9978      3.174    11.48     934.1212     58.00851     129.3834        30     2.271     1.616  42.88   0
       259    674.7471    321.7809 307.6378727  +6.5490784     24559.05     85086.59     118428.8     81.97077     164.6625     328.8996      3.165     7.98     933.4111     58.00851     2503.686       147     2.542     2.340  54.01   0
       260     56.9746    321.7755 307.8950963  +6.5284863     496.3531     892.0571     1762.157     81.97077     164.4007     328.9978      1.951     3.96     944.0594     58.00851     80.76074         6     1.492     0.301  59.45   0
       261    535.7303    320.9189 307.6957863  +6.5448114     688.9149     1529.769     2640.894      82.7552     164.8585     329.1287      2.994     6.03     934.1968     58.00851     87.88885         9     1.430     0.716  60.97   0
       262     76.0842    317.8105 307.8872742  +6.5307622     1934.249     5728.805     8110.557     82.10203     164.3352     328.9323      3.050    11.25     943.8353     58.00851     220.2413        54     2.679     1.827  44.12   2
       263     73.3443    319.6955 307.8883511  +6.5298924     1654.694     2862.132     3428.834     82.36392      164.597     329.3249      1.889     6.22     943.9322     58.00851     166.0465        15     1.439     0.831  84.89   3
       264    519.4617    316.6955 307.7027027  +6.5460136     2028.932     5160.864      6436.58     82.23309     164.6625     329.1614      2.521    10.39     934.3062     58.00851      218.472        39     2.369     1.270  57.13   3
       265    521.6120    313.3600 307.7019199  +6.5474623     2143.476     5130.707     6695.493     81.83931     164.4007     328.8341      2.603     9.06     933.9388     58.00851      238.606        30     2.341     0.987  42.80   3
       266    537.5331    316.4564 307.6951862  +6.5467138     707.8405     1772.194      2752.73     82.62498     164.5316     329.0632      2.826     7.16     933.7364     58.00851     117.1671        10     1.744     0.823  18.11   0
       267    382.5320    312.1894 307.7598696  +6.5433132     6958.534     17042.47     20029.37     81.97077     164.4007     328.9323      2.479     7.66     936.9385     58.00851     689.6937        48     2.293     1.242  32.46   3
       268    384.8738    309.2188 307.7589949  +6.5446176     7405.547     18493.98     25088.17     82.10203     164.5316     328.9978      2.762     9.05     936.7299     58.00851     705.8881        63     2.853     1.358  32.87   3
       269    251.7444    313.2214 307.8142912  +6.5385249     917.2235     2268.275      3596.49     81.97077      164.597     328.8996      3.313     6.17     939.2401     58.00851     110.4084        15     1.367     0.956 -80.18   2
       270    471.2083    302.2280 307.7232828  +6.5503801     2254.884     5123.573     7059.147     82.10203     164.4007     328.8996      2.415     7.97     934.7465     58.00851      237.228        32     2.332     0.990  49.00   3
       271    473.9097    299.5294 307.7222490  +6.5515842       2516.4     6198.313     7720.178     82.36392     164.8585     329.0959      2.598     9.46      934.605     58.00851      239.931        41     2.352     1.198  43.39   3
       272    741.5056    299.3599 307.6108298  +6.5605528     988.7188     3422.165     4644.233     82.62498     164.5316     329.1941      3.050    11.41     931.6841     58.00851     119.6595        37     1.997     1.815  -4.70   0
       273    362.5310    284.9052 307.7691193  +6.5539108     1955.958     7617.958     11123.01     82.36392     164.6625     329.1287      3.256     9.47     936.0242     58.00851     250.4625        75     2.389     2.198  46.01   0
       274    220.8269    286.0679 307.8280829  +6.5487031     776.7841     1637.796     3363.385     82.10203     164.4662     328.9978      3.921     6.10     938.6754     58.00851     113.0132        10     1.539     0.679 -89.76   0
       275    730.1840    280.2952 307.6161858  +6.5680479      17848.9     59165.93     80447.91     82.23308     164.4007     328.9651      3.080     7.66      930.344     58.00851     1800.274       124     2.441     2.263  58.93   0
       276    403.1902    278.6906 307.7523992  +6.5578317     596.2293     1763.006     2377.465     82.23308     164.2696     328.8668      2.450     6.38     934.7767     58.00851      104.626         9     2.120     0.539  40.35   0
       277    963.7236    277.8367 307.5190205  +6.5768098     696.5049     1473.737      1982.12     82.36392     164.6625     329.1287      2.272     5.79      927.301     58.00851     101.5264         8     1.330     0.710  69.28   0
       278    904.5452    277.5060 307.5436742  +6.5749851     886.8987     1670.556     2865.348     82.36392      164.597     329.3249      2.290     6.76     928.9675     58.00851     157.9297        10     2.056     0.624  64.26   2
       279    906.3794    275.3180 307.5429840  +6.5759493     822.8752     2132.433     3123.682     82.23309     164.2696     329.0305      3.018     6.89     928.7881     58.00851     118.6453        12     1.541     0.903  20.86   2
       280    388.8297    274.6003 307.7585169  +6.5590418      669.368     1967.319     2466.122      81.8393     164.4007     328.8996      3.028     5.34     934.9855     58.00851     96.61523         6     1.587     0.508  72.26   0
       281    809.6183    271.8923 307.5833915  +6.5741542     616.2903     1255.778     1880.916     82.36392     164.3352     328.9651      1.835     4.35      929.893     58.00851     113.9626         6     1.359     0.397 -20.81   0
       282    167.0141    266.4643 307.8511527  +6.5549991     723.1213     1977.872     3068.227     81.97077     164.4007     328.9651      3.076     6.42     939.1833     58.00851     94.07678        11     1.497     0.773  31.16   2
       283    727.6493    266.8383 307.6176942  +6.5735195     1790.225     3333.517     5942.889     82.36392      164.597     328.9651      3.469     7.76      929.469     58.00851     229.0083        22     1.997     0.844  52.06   3
       284    729.6841    263.6583 307.6169540  +6.5749000     1979.461     4833.795     6895.084     82.49455      164.597     329.1614      2.939     7.91     929.2671     58.00851     231.1813        36     2.073     1.302  41.55   2
       285    745.3841    263.0296 307.6104375  +6.5756809     903.1435      3080.44     4102.867     82.10203     164.3352     329.0305      2.970    11.25     929.2261     58.00851     116.5904        31     2.019     1.746  87.28   0
       286    332.6287    258.0357 307.7824781  +6.5640067     526.2181     1426.386     2306.711     82.10203     164.3352     328.8996      2.796     5.27     935.8851     58.00851     109.8485         5     1.488     0.526 -47.02   0
       287    336.7776    257.3663 307.7807732  +6.5644215     520.0574     1213.255     1879.557     81.97077     164.4007     328.8668      1.696     3.38     935.8292     58.00851     82.82251         5     1.236     0.267  55.66   0
       288    982.9162    253.5083 307.5118453  +6.5874899     2774.676     7366.337     9261.694     82.23308     164.9238     329.2268      2.765     6.70     925.3968     58.00851     286.3563        58     2.178     1.725  47.28   0
       289    461.1662    256.3639 307.7290121  +6.5689808     659.6824     1460.904     1681.821     82.23308     164.3352     328.8341      2.098     5.84     931.2368     58.00851     96.21924         8     1.651     0.582  24.38   0
       290    224.2291    249.9011 307.8278898  +6.5637480     1522.349      6242.22     9745.779     82.49455     164.3352     329.0959      3.495    11.14     937.2807     58.00851     180.8306        69     2.323     2.230  73.09   0
       291    360.3949    240.1882 307.7715195  +6.5723009     497.3737     1194.723     2394.613     82.10204     164.3352     328.9978      3.264     5.68     934.9552     58.00851     90.48059         8     1.463     0.621  56.20   0
       292    129.3982    235.5831 307.8678609  +6.5664914     548.1612     1440.764     1952.474     82.10204     164.1385     328.8668      2.854     4.74     939.3429     58.00851     105.8941         6     1.141     0.559  63.32   0
       293    537.6503    232.2566 307.6979770  +6.5814799     710.0399     2301.815     2678.326     82.49455      164.597     329.0959      2.901     9.82     925.9288     58.00851     105.1943        17     1.909     1.409  13.97   0
       294    880.8266    230.3980 307.5551343  +6.5936477     633.9702     1981.338     2389.823     81.97077     164.2696     328.8996      2.627    10.05     926.5421     58.00851     103.9717        15     1.916     1.471 -85.07   0
       295    700.8685    229.1559 307.6301148  +6.5881873     1734.392     5656.784      7491.65     82.49455     164.5316     329.1614      2.993     8.62     926.9113     58.00851     210.4006        59     2.257     1.925  60.21   0
       296    640.3141    229.9787 307.6553031  +6.5858352      675.139     1839.069     2506.755     82.49455     164.3352     328.9978      2.598     6.54     926.9786     58.00851     102.8525        10     1.849     0.649  66.40   0
       297    643.8381    227.7731 307.6539099  +6.5868629     538.2653     1403.239     2314.335     82.10203     164.4007     328.9323      2.621     4.36      926.844     58.00851     84.06482         5     0.876     0.619  43.68   1
       298    843.2910    213.4103 307.5713363  +6.5994163     493.0995     1816.017     2303.372     82.23309     164.2041     328.8668      3.184     5.80     925.9022     58.00851     71.48181         7     1.938     0.489 -44.97   0
       299    731.8126    213.3425 307.6177614  +6.5957439       611.09      1303.86     1805.291      81.8393     164.4662     328.8013      2.197     3.73     926.1796     58.00851     80.40234         5     1.038     0.385  86.03   0
       300    202.9561    214.1825 307.8379563  +6.5777839     727.3884     1830.182     3093.047     81.97077     164.4662     328.8668      2.518     3.56     936.6473     58.00851     98.44861         6     0.915     0.479  54.83   2
       301    432.9989    206.1968 307.7424347  +6.5887541     6068.203     14282.28     17442.71      81.8393     164.1385     328.8341      2.484     9.21     928.4982     58.00851     667.1357        45     2.315     1.155  39.83   3
       302    436.4575    203.7514 307.7410770  +6.5898789     6552.362     17132.99     25824.61     82.49455      164.597     329.2268      3.105    10.46      928.166     58.00851     659.4318        79     2.911     1.779  37.35   3
       303    760.4310    203.3446 307.6061804  +6.6008220     4754.182     15424.85     21274.26     82.36392     164.6625     329.0632      3.097     7.73     925.8333     58.00851     464.5887        89     2.377     2.188  54.31   0
       304    121.7184    200.9823 307.8722305  +6.5805194     686.4643     1492.789     2619.289     82.10203     164.2696     329.0305      2.720     4.99     938.1342     58.00851     99.58899         5     1.307     0.540  28.99   2
       305    125.4258    198.3785 307.8707749  +6.5817183     742.0812     1649.781     3087.172     82.10204     164.4007     329.0305      2.673     6.14     937.9182     58.00851     115.0913         9     2.195     0.482 -86.83   2
       306    557.1633    191.7159 307.6912186  +6.5988667     1551.241     3772.872     6716.142     82.49455      164.597     329.0632      3.676    14.32     924.3022     58.00851     161.1273        47     2.624     2.172 -26.77   2
       307    558.9869    188.3372 307.6905732  +6.6003223     1083.944     1905.854     3436.437     81.97077     164.4007     328.8996      2.430     4.88     924.2132     58.00851     142.4906         9     1.180     0.571 -13.22   3
       308    519.6805    190.8559 307.7068565  +6.5979743     610.1355     1714.299      2456.82     82.62498      164.597     329.1287      2.763     7.99     924.4313     58.00851     91.19275        10     2.142     0.833  83.22   0
       309    865.4011    186.4671 307.5630348  +6.6112735     4202.924     12773.55     16779.13     81.70763     164.1385     328.8668      2.931     7.09     924.1722     58.00851     404.1503        79     2.278     2.009  43.76   0
       310    919.2180    187.2104 307.5405982  +6.6127511     1147.998     3159.155     3706.851     82.23308     164.2696     328.9651      2.692     8.61     923.6359     58.00851     137.5055        26     1.643     1.462 -44.77   0
       311    952.0527    184.1121 307.5270285  +6.6151185     4267.188     11657.48      14359.9     82.49455     164.4662     329.2268      2.711     6.47      922.457     58.00851     450.0568        67     2.156     1.858  55.20   0
       312    666.0209    184.2641 307.6461382  +6.6055632     1009.239     2647.165     4114.925     82.10204      164.597     328.9651      3.336     9.37     925.0459     58.00851     124.9705        20     2.016     1.217  34.07   2
       313    802.0208    174.5142 307.5898310  +6.6141055     622.5853     1276.969     2444.872     82.36392     164.3352     328.9978      2.748     3.50     924.3877     58.00851     87.93213         5     0.999     0.354  45.08   2
       314    484.8965    175.9815 307.7218433  +6.6029571     754.3127     2798.086     3641.166     82.36392     164.4662     328.8668      3.093    10.85     924.0809     58.00851     114.7761        25     2.199     1.492 -45.58   0
       315    319.1158    172.4554 307.7909976  +6.5988877      2419.48     7643.498     13090.88     82.49455      164.597     329.2268      3.576     9.29      933.549     58.00851     249.0107        91     2.747     2.245 -89.33   0
       316    854.5750    175.6793 307.5679059  +6.6153682     857.3801     2179.521     2625.544     82.23309     164.4662     329.0959      2.591     8.72     923.7636     58.00851     126.8054        14     1.831     1.160  75.95   2
       317    715.7574    172.4967 307.6258224  +6.6120741     13099.33     43822.54     60216.77     82.49455     164.5316     329.2922      3.110     7.75     924.5995     58.00851     1300.256       114     2.466     2.261  60.14   0
       318    949.6339    171.5534 307.5284577  +6.6202233     1257.225     3294.704      4460.88     82.23309      164.597     329.0305      2.879     8.70     921.7402     58.00851     141.3803        32     1.710     1.527  22.27   0
       319    426.3631    171.8369 307.7463581  +6.6027185     1106.337     2369.775     4020.473     82.23308     164.4662     328.8996      2.644     7.28     925.7687     58.00851     166.7022        17     2.187     0.678  38.88   3
       320    429.2202    168.8835 307.7452681  +6.6040330     1512.769     4189.927     6277.115     82.23308     164.2696     329.0632      3.150    12.38     925.3962     58.00851     168.2542        37     2.281     1.870  31.87   3
       321    883.5346    169.5553 307.5560517  +6.6188571     2924.587     8627.107     10481.88     82.49455     164.5316     329.0959      2.822     7.17     923.0306     58.00851     316.2621        59     2.081     1.884  73.81   0
       322    988.2628    168.2568 307.5124814  +6.6228642     763.0998     2071.172     2724.429     82.62498     164.5316     329.1287      2.854     7.33     920.1262     58.00851     125.5581        12     2.075     0.725  58.93   2
       323     85.8988    160.4673 307.8885183  +6.5960482     1537.504     4859.653     7586.914     82.49455     164.7278     329.0959      3.333    11.01     937.1494     58.00851     175.5535        51     2.434     1.788  26.86   2
       324    255.0182    157.2117 307.8182046  +6.6030422     8994.775     35074.66     51885.11     82.10204     164.2696     328.9978      3.339     8.98     935.3199     58.00851     941.5902       119     2.606     2.371  64.82   0
       325    229.2057    159.9031 307.8288624  +6.6010694      1775.32     3896.679      4710.71     82.23308     164.2696     328.8668      2.296     8.54     935.9175     58.00851     201.0811        26     2.007     1.193  61.15   3
       326    231.7134    157.6025 307.8278959  +6.6021029     1951.799     5370.374     6713.006      81.8393     164.2041     328.8013      2.664    10.95     935.8002     58.00851     221.0178        41     2.385     1.410  51.28   3
       327    377.9796    154.7102 307.7670848  +6.6081767     13723.72     31503.42     38306.23     82.36392     164.3352     328.9323      2.455     8.43      928.405     58.00851     1371.729        56     2.631     1.187  46.31   3
       328    380.9171    152.2724 307.7659440  +6.6092811     14661.95     37802.76     50311.57      82.7552     164.9238     329.1287      2.775    10.51     927.9492     58.00851     1350.358        70     2.835     1.453  45.84   3
       329    135.0633    154.3211 307.8682538  +6.6002291      1247.71     4291.708     6114.698      82.7552     164.6625     329.0959      3.252    12.29     936.0318     58.00851      136.216        54     2.101     2.007  10.66   0
       330    283.6269    150.3568 307.8065231  +6.6068271     5074.948     19475.88     30713.96     82.10204     164.6625     328.9978      3.568     8.77       934.47     58.00851     528.2874       131     3.065     2.500   3.67   0
       331    718.0831    148.4680 307.6256630  +6.6220718     11222.62     36423.89     49068.62      82.7552     164.8585     329.1287      3.057     7.52     923.3507     58.00851     1108.941       107     2.400     2.204  53.95   0
       332     35.3942    146.4506 307.9100240  +6.6001456     2712.506     9897.558     13710.92     81.97077     164.4007     328.7031      3.139     8.73     939.2109     58.00851      321.061        75     2.386     2.084  68.10   0
       333     71.7991    143.3848 307.8949684  +6.6026290     477.0146     960.6812     2025.687     82.10204     164.2696     328.8668      2.327     3.81     937.2269     58.00851      77.0658         5     1.062     0.393  85.43   0
       334    977.6966    131.6577 307.5181108  +6.6376244     852.6668     2366.297     4066.585     82.36392      164.597     329.2595      3.268     5.66     918.0209     58.00851     128.1295        10     1.526     0.590  34.42   2
       335    567.5745    126.1553 307.6890939  +6.6262800     701.2026     2219.705     4013.901     81.97077     164.6625     328.9651      3.830     7.56     922.2071     58.00851     93.86859        13     1.915     0.834  63.36   2
       336    253.8074    123.5107 307.8198488  +6.6169151     8498.596     32590.86     48073.92     81.97077     164.2696     328.8341      3.339     8.95     934.2008     58.00851     864.4561       118     2.583     2.399  63.10   0
       337      1.5908    122.4551 307.9249138  +6.6089207      1245.92     2225.616     2105.537     74.54038     134.6597      251.797      1.894     6.45     939.0216     58.00851     199.0913        16     1.768     0.660  89.84  24
       338    684.2991    121.0317 307.6406564  +6.6322765     2794.699     6647.501     9369.249     82.49455     164.4662     329.2268      2.886     9.83     921.6375     58.00851     304.1036        49     2.474     1.895  50.16   3
       339    685.4935    118.0000 307.6402611  +6.6335679     2262.207     4970.797      6712.87     81.97077     164.2041     328.7358      2.419     8.46     921.4471     58.00851     260.3928        24     2.072     0.964   5.26   3
       340     96.4623    115.5410 307.8856417  +6.6149487     1398.845     3363.945     4751.698     82.62498     164.5316     329.1287      3.176     8.51     935.2311     58.00851     164.6696        25     1.896     1.067  11.76   3
       341     98.4474    119.0019 307.8846978  +6.6135863     1249.792      2068.96     3273.326      81.8393     164.2696     328.6703      2.215     7.09     935.2787     58.00851     155.9852        17     1.861     0.757 -35.82   3
       342     94.6665    119.0372 307.8862710  +6.6134453     990.3173       1750.4     2978.021     82.36392     164.5316     329.1614      2.157     5.00     935.3599     58.00851     154.5995         9     1.295     0.546 -61.72   3
       343    369.1497    113.5437 307.7721529  +6.6248778     1079.757     3361.131      6599.58     82.49455      164.597     329.0959      3.900    12.46     926.4269     58.00851     145.0315        28     2.912     1.485  28.43   2
       344    332.6514    113.3573 307.7873586  +6.6237377     990.6171     2894.086     4760.607     82.49455      164.597     329.1287      3.726    10.73     929.0655     58.00851     126.8147        29     2.311     1.389 -21.33   2
       345    978.5096    107.1020 307.5185970  +6.6477894     638.7214     1706.581     1850.154     82.49455     165.0544     329.0632      2.627     7.86     916.2617     58.00851     100.9544        10     1.537     1.123  10.83   0
       346    184.5838    100.5625 307.8494524  +6.6240775      1763.32     4744.439     6863.926     82.23309     164.4007     328.8341      2.939    10.74     934.2916     58.00851     192.7896        40     2.524     1.274  45.57   3
       347    181.2486    102.3269 307.8507816  +6.6232377     1537.051     2889.552     4038.497     82.49455     164.6625     329.1287      2.032     7.67     934.3204     58.00851     218.2683        22     1.903     0.865  52.93   3
       348     67.5371    100.9949 307.8981798  +6.6199866     816.2293     2532.131     3904.433      81.8393     164.4007     328.8668      3.252    10.13     935.5567     58.00851     111.9454        22     2.036     1.406 -25.02   0
       349    644.9844     99.3706 307.6577591  +6.6399126     1892.574     6538.422     9469.627     82.10203     164.3352     329.0305      3.235     9.63     920.8005     58.00851     209.8733        68     2.397     2.038  57.91   0
       350    600.1215     89.5753 307.6767730  +6.6424648     16945.62     53343.78     87046.05     82.10204     164.4662     329.0632      3.686    10.18     921.1296     58.00851     1705.137       202     4.017     2.455 -70.93   0
       351    322.6221     94.4413 307.7921747  +6.6312125      1098.76     2636.334     4419.366     82.10204     164.4007     328.8668      3.290     7.54     928.8659     58.00851     133.0906        18     1.641     0.968  50.80   3
       352    325.9616     92.6935 307.7908430  +6.6320455     1139.067     3304.836     5284.395     82.62498     164.5316     329.1614      3.477     9.60     928.5568     58.00851     133.4977        22     1.719     1.549  82.03   2
       353    504.7898     89.9403 307.7164626  +6.6391417     445.7364      1170.29     1668.262      81.8393     164.4662     328.8013      1.752     3.74     921.1017     58.00851     76.49707         5     1.480     0.271 -77.93   0
       354    279.4583     80.9316 307.8106070  +6.6353497      982.282     2804.894     4791.429     82.62498     164.5316     329.0959      3.707     8.81     932.0784     58.00851     100.0103        23     1.823     1.188 -43.29   2
       355    280.6484     84.8678 307.8099782  +6.6337644     1042.214     2073.473      3252.21     82.49455     164.5316     329.0959      2.663     8.45     932.1298     58.00851     112.6595        19     1.879     1.060  -6.09   3
       356    282.6758     81.6628 307.8092423  +6.6351552     668.4531     1500.009     3085.481      82.7552      164.597     329.0632      2.652     3.66     932.0082     58.00851     109.2444         5     0.824     0.467 -78.20   3
       357    663.6623     72.5395 307.6508846  +6.6516108     884.8497     2339.521     3792.954     82.49455      164.597     329.1287      2.920     7.30     919.8491     58.00851     139.7022        16     2.177     0.686  81.35   2
       358    666.7597     72.4285 307.6495983  +6.6517596     852.1741     1896.718     3140.646     82.10204     164.3352     328.9651      3.357     7.76     919.7923     58.00851     101.0821        17     1.609     1.047  66.73   2
       359    409.0121     63.8072 307.7572324  +6.6467402     1168.757     2868.472     4610.247     82.10204     164.4007     328.9978      3.201     8.62     922.4205     58.00851     137.0153        23     2.014     1.030  62.95   2
       360    405.8079     65.6938 307.7585031  +6.6458545     1191.052     2830.365     4361.229     82.10204     164.2696     328.8668      3.053     7.48     922.6229     58.00851     156.3228        15     1.608     0.974  27.11   3
       361    860.8909     58.0009 307.5692326  +6.6641622     851.3394     2464.019     3077.304     81.70763     164.0729     328.8996      2.821     8.14     915.9219     58.00851     129.1592        17     1.796     1.031  24.91   2
       362    878.4843     60.5247 307.5618205  +6.6637037     1528.284     3092.694     4033.807     82.62498     164.9238     329.1614      2.509     8.88     915.7076     58.00851     181.3324        24     1.939     1.721  -6.52   3
       363    878.9713     57.3390 307.5617247  +6.6650351     1385.907     2888.233     3598.806     82.10203      164.597     329.0305      2.156     7.08     915.6107     58.00851     161.3174        19     1.830     0.768 -24.54   3
       364    570.1444     59.6882 307.6902653  +6.6538065     606.2658      1084.63     1856.659     82.49455     164.4662     329.2595      2.253     4.37     919.9726     58.00851     83.56213         7     1.193     0.456  -4.32   0
       365    371.3502     56.3344 307.7731697  +6.6485698     556.5242     1818.061     2676.321     82.36392     164.4662     329.0959      2.969     5.47     924.1651     58.00851     109.6058         6     1.381     0.612 -38.77   0
       366    118.6679     51.6118 307.8785603  +6.6420835     1125.758     3639.456     5204.953     81.97077     164.4662     328.9978      3.190    10.54     932.6259     58.00851     141.0983        29     2.240     1.382  52.47   2
       367      2.1998     50.5352 307.9270993  +6.6386321     4108.768     8432.559      9731.21     80.51281     143.5614     261.9417      2.219     8.60     936.2859     58.00851     446.3735        39     2.249     1.100 -89.91  24
       368    801.6213     44.3792 307.5943757  +6.6678193      2317.28     7135.005     9559.492     82.23309     164.5316     329.0632      3.011     7.76     916.5784     58.00851      249.204        60     2.174     1.886  35.01   0
       369    746.4164     46.9581 307.6172810  +6.6649217     935.5275     1729.124     2656.611     81.97077     164.4007     328.8668      1.852     6.02     917.0056     58.00851     122.8116        10     1.346     0.758 -12.33   3
       370    747.8453     43.7323 307.6167944  +6.6663010     1059.509     2602.377     3925.669     82.49455     164.5316     329.1287      2.930     8.39     916.8141     58.00851     129.0723        24     2.021     0.973   6.61   2
       371     38.7233     43.3448 307.9121332  +6.6428228     949.7078     1776.679      2703.35     82.49455      164.597     329.0959      2.744     8.72     934.6398     58.00851     112.6885        16     1.914     1.111  53.35   3
       372     42.7178     43.0205 307.9104807  +6.6430903     1003.565     2238.134     2831.874     82.23308     164.2696     329.0305      2.203     6.45     934.4772     58.00851     122.5433        15     1.506     0.776 -78.25   3
       373     39.9729     40.3942 307.9117128  +6.6440827     1031.023     2183.582     2754.075     81.97077     164.4007     328.8996      2.429     5.86     934.5153     58.00851     136.6527        14     1.341     1.200 -61.65   3
       374    741.0020     33.3937 307.6199927  +6.6703420     811.3183     2219.756     2691.713      81.8393     164.2696     328.8996      2.633     8.15     916.1694     58.00851     101.6456        14     1.439     1.289  54.46   0
       375    774.8139   1018.0496 307.5727945  +6.2649383     8778.112     19588.29     21533.07      81.8393     164.5316     320.5095      2.295     4.98     969.8279     58.00851     1022.464        61     1.868     1.643  53.63  16
       376    396.1520     27.9259 307.7638004  +6.6611250     839.9736     1754.571     2677.238     82.36392     164.6625     329.1287      3.068     6.10     922.1986     58.00851     113.5627         9     1.417     0.739  82.52   3
       377    398.9274     25.2303 307.7627356  +6.6623304     843.5563     2095.998     3067.439     82.36392      164.597     329.0632      2.793     8.09     921.9705     58.00851      144.898        14     1.673     1.093  31.46   2
       378    967.4550   1017.5809 307.4926404  +6.2715181     500.5751     851.1085     957.5572     81.97077      164.597     324.1841      1.647     5.18     967.0547     58.00851     69.62787         5     1.084     0.698 -25.11  16
       379    558.4181   1009.0509 307.6631516  +6.2614650     86895.36     212010.3     261019.7     81.97077     164.6625     328.8341      2.618     5.96     970.0798     58.00851     9326.938       201     3.181     2.054  56.67  19
       380    560.2260   1001.8136 307.6626430  +6.2645131      40914.1     98943.45     116774.9     82.23308     164.4007     329.0305      2.482     5.40     969.9819     58.00851     4125.004        71     1.989     1.612  30.43   3
       381    192.4180   1012.4382 307.8153458  +6.2478733     2036.453     5117.018      6124.96     82.10204     164.4662     328.8341      2.605     7.14     968.7484     58.00851     251.0482        41     1.955     1.521  49.62  16
       382    769.3620   1005.8287 307.5754741  +6.2698029     4140.064     9323.043        10430     81.97077     164.2696     328.9651      2.373     5.15     969.3484     58.00851     475.0822        53     1.932     1.580  43.34   0
       383    867.8574   1002.7132 307.5345885  +6.2743562     935.4658     1885.069     1961.924     82.49455      164.597     329.2268      2.062     6.09      967.507     58.00851      129.246        12     1.267     1.049  -7.78   0
       384    190.4442   1001.4742 307.8165378  +6.2523339      1127.13     2727.528     3016.081     82.36392     164.6625     329.1287      2.309     8.24     968.6255     58.00851     175.2679        23     1.713     1.118  31.13   0
       385    408.1195    998.6467 307.7260492  +6.2607585     2090.864      5101.92     6647.707     82.49455      164.597     329.0959      2.727     6.53     970.0021     58.00851     216.7952        40     1.844     1.535  51.98   0
