#   1 NUMBER                 Running object number                                     
#   2 X_IMAGE                Object position along x                                    [pixel]
#   3 Y_IMAGE                Object position along y                                    [pixel]
#   4 ALPHA_J2000            Right ascension of barycenter (J2000)                      [deg]
#   5 DELTA_J2000            Declination of barycenter (J2000)                          [deg]
#   6 FLUX_APER              Flux vector within fixed circular aperture(s)              [count]
#   9 FLUXERR_APER           RMS error vector for aperture flux(es)                     [count]
#  12 FLUX_RADIUS            Fraction-of-light radii                                    [pixel]
#  13 FWHM_IMAGE             FWHM assuming a gaussian core                              [pixel]
#  14 BACKGROUND             Background at centroid position                            [count]
#  15 THRESHOLD              Detection threshold above background                       [count]
#  16 FLUX_MAX               Peak flux above background                                 [count]
#  17 ISOAREA_IMAGE          Isophotal area above Analysis threshold                    [pixel**2]
#  18 A_IMAGE                Profile RMS along major axis                               [pixel]
#  19 B_IMAGE                Profile RMS along minor axis                               [pixel]
#  20 THETA_IMAGE            Position angle (CCW/x)                                     [deg]
#  21 FLAGS                  Extraction flags                                          
         1    177.3738     16.7570 307.8652392  +6.6681696     5707.425     13863.27     16481.94     84.39216     169.1883     338.1747      2.552     8.50     1010.134     59.62658     753.4891        57     2.486     1.252 -20.58   0
         2    923.0103     14.3737 307.5554983  +6.6940465     2370.058     5494.222     5982.117     84.39215     168.9864     338.1411      2.329     8.38     981.0311     59.62658     397.2536        37     2.336     0.959 -20.30  16
         3    521.6309     14.9006 307.7222626  +6.6804531     1552.146      3753.41     4415.248     84.79562     168.9191     338.4101      2.522     7.71     990.7133     59.62658     211.8579        33     2.342     1.049 -13.74  16
         4    724.0271     12.9439 307.6382287  +6.6880132     1185.188     2738.748     2821.153     84.39216     169.2555     338.1074      2.384     8.93     985.6572     59.62658     157.8439        26     2.055     1.083 -22.31  16
         5    460.9298     13.2332 307.7475400  +6.6791142     1024.524     2185.285     2641.085     84.66135     169.1883     338.3093      2.290     6.77     993.0667     59.62658     138.7122        16     1.705     0.942 -26.79   0
         6    988.4572     10.4847 307.5284319  +6.6978286     1164.624      2232.65     2654.615     84.79563     169.1883     338.3765      2.207     7.76     976.7135     59.62658     231.0046        16     1.862     0.905 -20.20  16
         7    707.3026      7.2120 307.6453687  +6.6898236     4163.622     9623.488     11308.52     84.52686     168.9191     331.7211      2.415     7.95     986.4481     59.62658     607.6808        49     2.331     1.173 -20.51  16
         8    627.3792      6.5382 307.6786010  +6.6874370     2036.478     4530.458     5054.954     84.39216     169.1883      325.978      2.383     8.42     989.3199     59.62658     284.4544        29     2.314     0.885 -17.75  16
         9    328.9175      6.9180 307.8026023  +6.6773086     605.8646     1316.689     1866.148     84.52686      169.457     329.5533      2.077     7.46     1005.043     59.62658     88.90656        12     1.640     0.949 -31.16  16
        10     28.3979      2.6427 307.9276084  +6.6690032     4410.142      10161.4     11965.56      84.1221     153.1649     276.2146      2.422     9.92     1012.518     59.62658     593.5574        47     2.442     1.123 -15.09  24
        11    427.5852      2.7506 307.7617444  +6.6823300     3267.819     7409.995     8673.216      84.1221     154.6434     278.0211      2.352     8.73     997.5969     59.62658     452.3221        41     2.444     1.080 -16.31  24
        12    321.6888      1.0851 307.8058005  +6.6794762     635.5783      1055.28     1129.305     70.10625     130.3738      250.284      1.465     3.85     1005.928     59.62658     148.8741         7     1.523     0.278   0.68  24
        13    418.7425    998.3072 307.7322467  +6.2707775     809.8412     1387.404     1037.114     84.66135      169.121     338.4101      1.955     6.37     1030.533     59.62658     164.2797        13     1.956     0.583 -23.64   0
        14    930.5936   1022.8009 307.5189193  +6.2777121     416.1169     549.7855     993.9268     82.75861     147.4116     269.1637      1.294     4.04     1021.579     59.62658     97.75952         5     1.464     0.319 -50.33  24
        15    715.1395   1022.9460 307.6083689  +6.2704845     3706.901     8492.481     10593.77     82.34515     145.6256     267.1271      2.662    10.18      1026.74     59.62658     818.2639        44     3.337     0.866  -3.07  24
        16    583.8875   1023.5153 307.6628435  +6.2658755       2145.4     3909.232      5403.99     75.72341     137.0115     257.3659      2.425     5.53     1029.622     59.62658     645.5089        26     2.494     0.815  -2.57  25
        17    571.8833   1022.3820 307.6678650  +6.2659433     2375.048     5473.656     5972.456     84.39216     153.0906     276.2558      2.366     8.56     1029.571     59.62658     443.2745        31     2.240     0.913 -13.78  24
        18    431.1212   1023.1312 307.7262809  +6.2609362     2302.719      4305.57     4822.068     80.52901     143.1833     263.9566      1.950     7.16     1031.155     59.62658     397.1035        21     2.045     0.703 -12.34  24
        19    810.3300    997.3534 307.5696956  +6.2842256     782.7117     1682.012     1737.095     84.79562      169.121     338.2756      2.103     6.24     1022.836     59.62658     129.4495        11     1.809     0.604 -26.12   0
        20    909.8431    991.4499 307.5285734  +6.2899738     5521.242     12397.14     14601.09     84.92969      169.121     338.2756      2.317     8.83     1020.764     59.62658     1036.715        41     2.390     0.911 -18.61   0
        21    541.3356    990.8438 307.6815964  +6.2779528     5237.962     11425.64     13781.38     84.79562      169.121     338.2756      2.344     9.33     1029.012     59.62658     892.1377        45     2.371     1.024 -18.67   0
        22    883.5040    987.6216 307.5396363  +6.2906797     8484.774     18033.66     21247.17     84.66135     168.9864     338.0738      2.340     9.28     1021.264     59.62658     1464.919        54     2.453     0.980 -18.89   0
        23    597.1495    987.5828 307.6585315  +6.2811614     944.0408     1846.216     2009.933     84.25723     169.2555     338.0401      2.109     7.74      1028.82     59.62658     123.4894        16     1.835     0.914 -26.32   0
        24   1005.0679    987.0060 307.4891825  +6.2949734     3088.005     7170.709     7862.055     84.25723     168.7843     338.0738      2.340     8.36     1016.224     59.62658     619.1708        32     2.393     0.817 -17.12   0
        25    527.8368    986.5916 307.6873424  +6.2792590     2535.516     5855.951     7299.678     83.98675     168.9191     338.0065      2.513     8.68      1029.21     59.62658     393.0356        37     2.499     0.957 -12.47   0
        26    637.3884    985.7908 307.6418841  +6.2832431     910.3228     1909.608      1774.55     84.52686     168.9864     338.2084      2.122     7.81     1027.668     59.62658     138.1559        19     2.466     0.691 -21.80   0
        27    481.0428    983.0637 307.7068880  +6.2791547     1504.964     2941.424     3188.413     84.79562      169.121     338.3093      2.201     7.43     1030.109     59.62658     235.4661        21     2.168     0.713 -16.71   0
        28    915.2031    975.1788 307.5268869  +6.2968737     27852.36     62259.91     71713.31     84.39215     168.8517     338.0401      2.319     9.79     1020.007     59.62658      4574.18        78     2.448     1.093 -19.14   0
        29    223.2753    973.4632 307.8142278  +6.2745053      1203.81     2713.756     3532.101     85.06355     169.1883      338.242      2.759     8.60     1031.301     59.62658     184.3766        20     2.230     0.925 -29.10   0
        30    813.2224    969.0444 307.5694336  +6.2960165     1604.307     3262.036      3794.63     84.25723     169.0537     338.0738      2.198     7.52     1021.785     59.62658     278.1547        21     2.136     0.742 -22.41   0
        31    761.4331    966.8621 307.5910092  +6.2951944     4160.822     9366.091     10890.84     84.52686     169.2555     338.2084      2.356     9.74     1023.346     59.62658     709.5306        43     2.370     1.117 -21.66   0
        32    231.8207    965.6151 307.8109418  +6.2780332     983.8128     1661.935     1636.121     84.52686     168.9191     338.1747      1.935     6.22     1031.272     59.62658     145.6104        13     1.781     0.611 -24.56   0
        33    196.2606    965.2657 307.8257172  +6.2769875     510.3643     858.4394     763.6352     84.79562      169.121     338.2756      1.874     4.24     1031.109     59.62658     101.1964         5     1.589     0.322 -29.40   0
        34     56.0853    963.9031 307.8839592  +6.2728549     1855.279       4070.5     4830.153     84.79562     169.5912     338.3429      2.414     8.35     1029.842     59.62658     259.8042        27     2.317     0.841 -18.05   0
        35    949.5148    961.9341 307.5130790  +6.3034855     4467.186     9913.729     11247.98     84.92969      169.457     338.3429      2.323     8.53     1018.331     59.62658     831.5944        36     2.320     0.877 -17.13   0
        36    923.5191    953.4891 307.5241525  +6.3061103      1347.33     2759.466     3100.614     84.52686     169.3899     338.3765      2.281     7.09     1018.827     59.62658     237.7558        20     2.145     0.657 -15.62   0
        37    780.5987    950.7548 307.5835859  +6.3024864     600.5316     810.5573      873.551      84.1221     168.7843     337.8381      1.146     3.38     1021.993     59.62658     98.54541         5     0.766     0.433  68.63   2
        38    784.2261    949.4913 307.5821217  +6.3031290     957.0331     1281.045     1146.126      84.9297     168.9191     338.1074      1.553     4.46     1021.804     59.62658     161.2024        10     1.173     0.664 -20.21   3
        39    643.9791    949.5085 307.6403530  +6.2984510     2812.761     6414.737     7224.216     84.66135     168.9864     338.1074      2.373     8.81      1026.35     59.62658     560.1431        35     2.284     0.949 -19.84   0
        40    256.3555    949.6761 307.8012871  +6.2854384      2639.53     5917.949     6976.435     84.66135     169.2555     338.3093      2.435     8.77      1031.28     59.62658     422.0378        35     2.380     0.902 -18.16   0
        41    467.7588    947.3340 307.7135924  +6.2934711     683.7425      1264.02     1420.297     84.79562      169.121     338.3765      2.103     4.58     1029.071     59.62658     108.5686         5     1.305     0.456 -42.19   2
        42     25.4579    947.0814 307.8972368  +6.2787769     1431.366     3118.351     3462.751     84.92969     169.1883     338.3093      2.277     7.98     1029.809     59.62658      240.177        24     2.042     0.872 -17.90   0
        43    570.2770    941.5494 307.6712191  +6.2992817     1146.737     1867.059     2518.769     84.79563     169.2555      338.242      2.147     6.40     1027.856     59.62658     178.9086        14     1.957     0.587 -26.73   2
        44    608.9838    938.2204 307.6552584  +6.3019476      745.024     1400.105     1508.824     84.52686     168.9864     338.1747      2.242     6.55     1027.658     59.62658     148.0679        12     1.831     0.657 -31.11   0
        45    289.3797    935.7291 307.7880409  +6.2923044     1179.234     1467.326     1817.826     84.39216     169.0537     338.2084      1.461     3.60     1031.469     59.62658     187.9777        10     1.061     0.623 -23.80   0
        46    756.3672    931.9986 307.5942695  +6.3094280     588.1548     999.7156     1157.905     83.98675     168.9864     338.0065      2.052     4.24     1022.222     59.62658     94.05176         5     0.830     0.618  -0.17   0
        47    892.2189    928.8641 307.5379650  +6.3152426      4473.04     10014.01     11680.71     84.39216     169.1883     338.1074      2.332     8.92     1019.057     59.62658     864.9645        40     2.349     0.947 -18.93   0
        48    428.4429    925.8572 307.7306312  +6.3010302     1207.405     2621.277     3228.196     84.66135      169.121     338.2756      2.217     7.27     1028.814     59.62658     229.6646        18     2.124     0.698 -17.93   0
        49    329.8370    924.4152 307.7716204  +6.2983309     5633.376     13038.64     14930.83     84.39216     168.9864     338.0065      2.406     9.58      1030.77     59.62658     911.8461        48     2.469     1.036 -18.21   0
        50    250.0435    923.3792 307.8047848  +6.2960902     4166.062     9577.851     11063.34     84.25723     169.0537     338.1074      2.384     9.08      1031.12     59.62658     639.0919        41     2.363     0.974 -18.59   0
        51    763.1005    917.1513 307.5919664  +6.3157857     497.9374      783.294     1221.953     84.79562      169.121     338.4774      1.648     3.48     1021.509     59.62658     104.2985         5     1.340     0.260 -10.80   0
        52    578.3284    917.2336 307.6686845  +6.3095951     668.3486     1102.655      1324.24     84.66135     169.1883     338.3429      1.931     4.73     1027.151     59.62658     119.8837         7     1.498     0.423 -19.25   0
        53    910.0410    913.3215 307.5310798  +6.3222558     745.5325     1365.989     1614.336     84.66135     169.1883     338.3093      1.773     3.66     1018.003     59.62658     128.8541         7     0.973     0.638 -16.43   0
        54    975.4390    909.9277 307.5040368  +6.3258311     483.3531     908.7797     1496.546     84.66135     169.1883     338.3429      2.077     6.70     1015.869     59.62658     96.92761         9     1.825     0.690 -19.11   0
        55    745.8748    906.5481 307.5994708  +6.3195924     1141.484     1745.528     2842.062     84.79562     169.2555     338.2756      1.975     4.78     1021.731     59.62658     211.8388        10     1.377     0.591 -25.94   2
        56    977.3318    902.3251 307.5035026  +6.3290346     934.0281     1463.428     2065.158      84.9297     169.3227     338.2756      1.827     5.21     1015.287     59.62658     151.0014        10     1.291     0.810 -14.66   0
        57    609.4550    903.2157 307.6562261  +6.3164238     724.6295     889.9879      717.132      84.1221      169.121     337.9728      1.433     4.43     1026.005     59.62658     131.6938         6     0.985     0.568 -26.09   0
        58    530.1213    902.6336 307.6891863  +6.3140182     711.5814     1486.406     1356.234     84.66135     169.1883     338.2756      2.007     4.97     1027.562     59.62658     103.7238         8     1.478     0.472  -3.87   0
        59    661.6706    900.6654 307.6346298  +6.3192178     1239.116     2538.201     3597.746     84.79562     169.2555     338.2756      2.442     6.77     1023.952     59.62658     146.1179        12     1.575     0.817 -13.70   2
        60    665.1382    899.6099 307.6332250  +6.3197694     1521.215     2094.374     2881.245      84.1221     168.9864     338.0738      1.583     4.63      1023.81     59.62658     264.9346        13     1.302     0.846 -31.08   3
        61     59.8243    896.4575 307.8846606  +6.3008409     1577.537     3884.065     4492.485     84.39216     169.1883     338.1074      2.530     8.25     1030.196     59.62658     294.3237        29     2.288     0.912 -15.58   0
        62     77.5349    895.8181 307.8773288  +6.3016986     1134.244      2599.85     2918.226     84.39216     169.1883     338.1747      2.450     8.39     1030.169     59.62658     169.2152        23     2.251     0.874 -16.52   0
        63    203.2175    895.5698 307.8251544  +6.3060109     1229.297     2851.115     3428.391     84.39216     168.9864     338.2084      2.473     8.73     1030.899     59.62658     198.3206        25     2.287     0.930 -11.26   0
        64    941.6369    895.4019 307.5185538  +6.3307087     534.5113     1064.671     1313.304     83.85117     168.9864     338.0738      2.389     4.43       1016.5     59.62658     87.66022         7     1.627     0.343 -12.72   0
        65    343.5295    891.1420 307.7670441  +6.3125336      718.613     1442.535     1731.666     84.92969     169.1883     338.2756      2.369     4.92     1030.314     59.62658     114.6091         7     1.634     0.420 -36.10   0
        66    657.6113    889.4350 307.6366884  +6.3237218      4320.02     9562.915      11263.4     84.25724     168.9864     338.0738      2.341     9.06     1023.687     59.62658     695.7815        42     2.377     0.965 -20.67   0
        67    795.8505    890.2526 307.5792601  +6.3279878     586.3902     900.7546     673.9682     84.92969     169.0537     338.3093      1.620     4.41     1019.994     59.62658      101.834         7     1.299     0.427  -3.80   0
        68     19.2246    887.4763 307.9018173  +6.3031896     909.7206     1344.652     1690.881     84.39216      169.121      338.242      1.744     5.79     1030.378     59.62658     160.8964        11     1.191     0.793 -30.48   2
        69    895.4446    885.6932 307.5380562  +6.3331841     1834.151     3784.116     4209.731     84.79563      169.121     338.4101      2.256     7.78     1017.745     59.62658     316.7983        26     2.336     0.725 -16.67   0
        70    340.6002    882.6409 307.7685437  +6.3159474     9601.092     22383.04     26020.78     83.98675     168.7843     337.9391      2.407     9.25     1030.327     59.62658     1470.035        63     2.450     1.143 -20.47   0
        71     33.0334    885.7977 307.8961401  +6.3043461     655.8775     825.1371     689.7776     83.98675     168.9864     338.0401      1.467     4.93     1030.364     59.62658      102.636         8     0.871     0.789  -7.72   0
        72     76.4665    883.3121 307.8781902  +6.3068289     726.3221     1585.213     1839.464     84.79563     169.3899     338.2756      2.163     6.88     1030.313     59.62658     120.1506        14     1.847     0.718 -15.72   0
        73    213.6901    881.6112 307.8212720  +6.3121276      768.192     1131.342     1303.184     84.52686     168.8517     338.0738      1.585     4.01     1030.899     59.62658     115.4915         6     0.913     0.503 -44.18   0
        74    104.6773    872.9972 307.8668218  +6.3120352     1076.889      2333.34     2797.293     84.25723     168.6494     338.0738      2.148     7.83     1030.435     59.62658     165.0056        18     1.892     0.907 -21.00   0
        75    419.0868    873.2037 307.7362692  +6.3224687     683.4915     1468.276     1108.815     84.25723     168.7843     337.9728      2.224     5.22     1027.817     59.62658     126.2155         6     1.335     0.576 -15.04   0
        76    884.2440    867.6462 307.5433053  +6.3402670     1086.006     2265.734      2599.49     84.79562     169.1883     338.2084      2.582     6.07     1017.412     59.62658     228.7795        13     1.669     0.621 -24.30   2
        77     84.7326    867.7545 307.8752779  +6.3135325     1175.204     2000.962     2069.905     84.79562      169.121     338.3093      1.951     6.23     1030.451     59.62658     149.8206        15     1.316     0.925  -5.96   3
        78     88.9798    866.1859 307.8735669  +6.3143228     1670.585      2450.09      2863.98     84.52686     168.8517     338.1747      1.660     5.64     1030.461     59.62658     269.5875        16     1.402     0.936  -5.47   3
        79    819.7203    866.3885 307.5701401  +6.3386404       1898.8     4443.944     5278.001     84.39216     168.8517     338.1074      2.436     8.36      1018.98     59.62658     331.5079        28     2.270     0.860 -17.80   0
        80    856.3760    866.8961 307.5549022  +6.3396501     1225.827     2619.187      3124.57     84.92969     168.9191     338.1411      2.207     7.03     1017.929     59.62658     212.6406        18     2.213     0.627 -15.27   0
        81    555.6107    857.8692 307.6800912  +6.3333608     199523.5     453190.8     530972.5     84.25723     168.9864     338.0738      2.413     8.87     1026.169     59.62658     31207.15       177     2.585     1.300 -19.80   0
        82    399.8543    860.5154 307.7446775  +6.3270677     4547.407      10463.1      12007.2     84.79562     169.1883     338.4438      2.401     9.67     1028.164     59.62658     648.9333        48     2.426     1.075 -19.94   0
        83    643.8877    860.9313 307.6433338  +6.3350394     801.1842     1530.528     1493.198     84.92969      169.457     338.3093      2.000     5.05     1023.034     59.62658     114.8536         8     1.240     0.582 -17.99   0
        84    343.0755    858.8860 307.7683076  +6.3258432     7414.766      17212.3     20008.12     84.92969     169.5242     338.3429      2.440     9.20     1030.045     59.62658     1020.376        54     2.402     1.129 -19.12   0
        85    661.1942    855.2336 307.6363369  +6.3379699     2058.222     4770.708     5144.251      84.1221     168.9864     338.0401      2.292     8.70     1022.477     59.62658     311.0521        31     2.375     0.890 -19.84   0
        86    894.0018    853.9259 307.5397082  +6.3462594     3265.825     7337.608     8379.521     84.25723      168.582     338.1411      2.333     8.45     1016.699     59.62658     626.0337        35     2.302     0.867 -19.19   0
        87    734.5024    851.1865 307.6060306  +6.3420839     660.4391     1077.292      1133.75     84.66135     168.9191     338.0065      2.001     5.35     1019.861     59.62658     114.4203         8     1.378     0.587 -22.81   0
        88    636.3733    849.0231 307.6468498  +6.3397082     2046.466     4382.681     5005.111     84.25723     169.0537     338.1747      2.254     7.97     1022.842     59.62658     309.4241        31     2.434     0.811 -21.32   0
        89   1023.5238    849.0860 307.4860841  +6.3525624     1052.487     1295.771     1713.234     75.72341     137.0115      257.189      1.123     2.01     1009.537     59.62658     285.7905         7     0.725     0.625 -83.52  24
        90    824.8504    848.1493 307.5686148  +6.3463459     1038.261     2154.833     2398.308     84.79562     169.0537     338.2084      2.254     6.68     1018.167     59.62658     257.6478        15     2.062     0.607 -17.00   0
        91    950.2365    847.9799 307.5165536  +6.3505849     626.5908     1245.843     1450.471     84.39215     168.9864     338.0401      2.183     2.93     1014.265     59.62658     110.4932         5     0.784     0.487  26.80   0
        92    629.2589    843.8684 307.6499752  +6.3416005       1293.8     3230.276     4744.514     84.92969      169.121     338.2756      2.716    10.03     1022.851     59.62658     209.8209        27     2.367     1.186 -23.71   0
        93    954.0549    846.0497 307.5150320  +6.3515092     549.3862     1007.857     1586.545     84.79562     169.1883     338.3093      1.708     4.81     1013.928     59.62658     85.79004         6     1.278     0.512  11.43   0
        94    912.8449    841.8389 307.5322841  +6.3518791     2057.605     4310.022     4898.971     84.52686     169.1883     338.1747      2.326     7.92     1015.657     59.62658     389.8984        27     2.317     0.756 -19.56   0
        95    323.7430    842.1759 307.7768918  +6.3320997     673.6177     1260.989     1410.887     84.39216     169.1883     338.0738      2.143     6.41     1030.322     59.62658     111.8756         8     1.576     0.732 -35.82   0
        96    371.1276    837.9253 307.7573581  +6.3354396     1694.633     3819.743     4859.946     85.06355      169.457     338.3093      2.589     8.73     1028.637     59.62658     262.1398        29     2.468     0.861 -20.49   0
        97    507.4900    827.4873 307.7010833  +6.3443058     1904.553     4238.895     4931.632     84.52686     169.6583     338.4101      2.451     8.28     1025.299     59.62658      262.348        27     2.191     0.875 -16.95   0
        98    853.7479    826.3000 307.5573396  +6.3563332     795.8736     1323.874     2082.731     84.79562     169.1883      338.511      1.748     4.22     1016.775     59.62658      125.117         7     0.974     0.520 -61.56   2
        99    554.1992    823.7242 307.6818129  +6.3474190      3412.94     8234.187     10812.29     83.98675      168.582     338.0738      2.682     9.08     1024.648     59.62658     576.6396        50     2.587     1.086 -18.57   0
       100    890.6502    821.3109 307.5421809  +6.3596215      1196.97     1952.995     2276.502     84.79562     168.9864     338.4101      1.923     6.47     1015.392     59.62658     208.8254        15     1.639     0.717 -15.97   0
       101    473.7648    821.9575 307.7152714  +6.3454644     1087.074      1748.26     2573.217     84.52686     169.1883     338.0738      2.015     3.77     1025.309     59.62658      165.913         8     1.013     0.561 -43.85   2
       102    114.5552    822.0237 307.8644232  +6.3334226     688.1426     1667.647     1682.278     84.25723     169.1883     338.1411      2.352     5.25     1030.081     59.62658     99.92444         8     1.599     0.488 -19.02   0
       103    690.0588    820.3580 307.6255094  +6.3533389     565.9778     992.6353     1100.327     84.79562     169.1883     338.3429      2.190     4.82     1020.346     59.62658     94.10291         5     1.456     0.452  -6.66   0
       104    524.7119    817.5442 307.6942629  +6.3489880     11592.15     26330.63     30136.27     84.79563     169.0537     338.4438      2.394     8.90      1024.74     59.62658     1602.036        61     2.486     1.111 -18.52   0
       105    938.4842    815.6289 307.5225056  +6.3635589     2438.591     4881.655     5981.108     84.79563     168.9191     338.1411      2.170     7.71     1013.247     59.62658     436.0339        26     2.274     0.732 -16.51   0
       106     35.7674    807.8347 307.8976112  +6.3366430     870.3683     1956.162     2504.076     84.39215     168.9191     338.0065      2.317     6.81     1029.468     59.62658     182.3186        15     1.922     0.676 -31.31   0
       107    317.5816    806.3296 307.7806451  +6.3467015     1939.675     4200.921     4885.423     84.39216     169.0537     338.2084      2.344     8.38     1030.128     59.62658      254.308        30     2.382     0.896 -22.38   0
       108    782.8597    802.0927 307.5875795  +6.3639748     33474.95     74645.04     86802.33     84.66135      169.121     338.3765      2.353     9.54     1016.992     59.62658      5938.36        83     2.491     1.105 -19.93   0
       109     17.6342    804.1854 307.9052624  +6.3375423      1389.12     3161.185     3649.398     84.39216     168.9191     338.1411      2.326     8.18     1029.312     59.62658     206.2255        26     2.080     1.027 -16.98   0
       110    240.1503    799.7753 307.8130158  +6.3468188     3184.527     7929.583     11499.68     84.39216     169.2555     338.1747      3.151     8.21     1030.651     59.62658     416.6812        54     2.456     1.397 -17.42   0
       111    908.1253    797.2958 307.5357201  +6.3701233     5402.445     12163.84     14022.96     84.52686     169.3899     338.2756      2.346     8.82     1013.576     59.62658     907.3935        40     2.410     0.901 -18.72   0
       112    711.1912    796.6118 307.6175227  +6.3638525     12609.06     29800.26     36050.57     84.25724     168.9191     338.2084      2.474     9.57     1018.551     59.62658     2172.161        60     2.574     1.091 -18.39   3
       113    704.8343    793.1870 307.6202761  +6.3650556     51662.13       118438     140232.8     84.25723     168.9191     338.1411      2.413     9.85     1018.633     59.62658     8624.161       100     2.578     1.183 -19.41   3
       114    349.8334    794.1059 307.7676603  +6.3528294     11950.16     27668.98     33456.42     84.92969     169.0537     338.3765      2.486     8.71     1028.258     59.62658      1596.01        70     2.530     1.210 -20.29   0
       115    411.6782    791.9575 307.7420513  +6.3557837     12608.46     29471.96     34801.93     84.66135     169.1883     338.3093      2.466     9.06     1025.932     59.62658     1772.725        68     2.541     1.164 -19.26   0
       116    400.0729    793.8345 307.7468078  +6.3546206     899.2028     1781.759     3021.625     84.66135      169.121      338.242      3.294     7.24     1026.435     59.62658     116.4928        13     1.460     1.004  -6.79   3
       117    239.4301    778.6181 307.8140207  +6.3555345     756394.8      2122298      2717119     84.39216     168.9864     338.1747      2.864    14.52     1029.905     59.62658     63782.64       584     2.991     1.961 -19.47   4
       118    949.0311    790.7616 307.5189496  +6.3741823     1216.154     2667.656     3285.212     84.39215     168.9191     338.1074      2.280     8.15     1011.977     59.62658     276.0092        24     2.369     0.784 -19.88   0
       119    904.9591    788.8222 307.5373157  +6.3735186     4068.299     9249.914      11015.3     84.39216     168.9864     338.0738      2.343     9.06     1013.493     59.62658     815.9919        41     2.418     0.948 -17.50   0
       120    875.1666    790.1811 307.5496427  +6.3719666     554.6639     563.3659     459.9451     84.25723     168.9864     338.0738      1.200     2.99     1014.883     59.62658      115.505         5     0.924     0.337 -45.30   0
       121    645.5953    787.9171 307.6450508  +6.3652586     3608.235     8650.956     9804.521     84.25723     168.7843     338.0065      2.443     9.39     1020.507     59.62658     587.5789        41     2.425     1.014 -20.19   0
       122    433.2472    786.0075 307.7332929  +6.3589621      919.525     2200.857     2772.044     84.25723     168.9864     337.8718      2.684     5.15     1025.067     59.62658     158.1022        12     1.228     0.887   7.48   2
       123    216.3575    785.1464 307.8233835  +6.3520655     915.5422     1930.061     4126.034     84.79562     169.1883     338.2756      4.522     6.59     1029.956     59.62658     107.4631        14     1.317     0.926  61.07   0
       124    680.6461    777.8835 307.6308289  +6.3705716     1407.326      3462.68     3968.578     84.79562     169.1883     338.2756      2.647     8.73     1018.963     59.62658     222.1932        29     2.340     0.910 -16.16   0
       125    150.5752    778.3257 307.8509262  +6.3526803     708.8331     1435.635     1131.626     84.39216     168.9864     338.2084      2.412     7.00     1029.712     59.62658     100.6451        11     1.801     0.763 -26.54   0
       126    125.7769    778.4521 307.8612191  +6.3517974     774.4102     1436.476     1486.599     84.25724     169.1883     338.1411      2.291     5.87     1029.497     59.62658     143.8402        11     1.718     0.564 -22.94   0
       127    414.5629    774.6252 307.7414307  +6.3630399     30829.77     72236.95     85564.66     84.39216     168.9864     338.0065      2.480     8.82     1025.197     59.62658     4155.009        91     2.570     1.257 -18.40   0
       128    214.0831    774.9849 307.8246670  +6.3561870     762.0861     2220.217     4694.133     84.39216     168.8517     338.1411      5.094     7.67     1029.651     59.62658     113.0017         9     1.490     1.106 -29.72   2
       129    959.1838    775.6147 307.5152352  +6.3807769       508.05     567.6536    -173.9662     84.52686     168.8517     338.2084      1.371     3.42     1011.393     59.62658     86.75684         5     0.776     0.435 -19.78   0
       130    532.4164    773.6025 307.6925254  +6.3673974     4145.044     9317.615     10463.81     84.39216     168.7843     338.0738      2.344     8.33     1022.581     59.62658     601.4714        42     2.372     1.009 -20.74   0
       131    449.3555    772.1907 307.7270640  +6.3652078     2554.806     5841.067     7610.542     84.25723     169.0537     337.9728      2.572     7.67     1024.198     59.62658     337.4299        41     2.476     1.032 -16.75   0
       132    777.5441    770.1700 307.5908462  +6.3769852     7125.076     15800.87     17984.09     84.66135     169.2555     338.2084      2.341     9.05     1015.721     59.62658     1103.782        47     2.429     0.965 -18.29   0
       133    445.7237    765.7939 307.7287851  +6.3677290     1197.703     3023.466      4917.68     84.39216     168.6494     338.1074      3.020     9.29     1024.097     59.62658     149.5717        30     2.415     0.998 -19.89   0
       134      7.7646    766.4528 307.9106222  +6.3527980     813.6145     1624.437     1992.647     84.66135     169.1883     335.4386      2.268     6.69     1028.683     59.62658     102.4838        13     1.572     0.799 -13.42  18
       135    968.8643    763.4755 307.5116172  +6.3861134     481.1967     1004.046     1607.572     84.92969     169.1883      338.242      2.648     4.94     1010.781     59.62658     80.93335         6     1.456     0.475 -25.10   0
       136    800.6959    763.8522 307.5814416  +6.3803658     865.4869     1391.632     1956.349     84.66135      169.121     338.5446      2.028     4.68     1015.164     59.62658     111.2876         8     1.117     0.556 -31.43   0
       137    127.8134    759.6591 307.8610012  +6.3596288     1691.833     3916.822     5914.236      84.1221      169.121     337.9728      2.655     8.23     1029.126     59.62658     219.9673        31     2.266     0.954 -22.81   3
       138    135.4601    762.2275 307.8577402  +6.3588240      6839.86     16061.39     21307.99     84.39216     169.2555     338.2084      2.735     7.98     1029.207     59.62658     895.1562        71     2.900     1.299  -8.87   3
       139    144.8982    762.2101 307.8538217  +6.3591473     1915.752     3069.693     3257.477     84.52686     168.7843     338.0738      1.778     6.00      1029.26     59.62658     250.7766        19     1.605     0.816 -26.69   3
       140    922.9864    758.8015 307.5308243  +6.3865197     3926.873     8725.923     10305.59     84.39216     168.8517     338.0401      2.322     8.61     1012.127     59.62658     809.9021        37     2.428     0.852 -18.00   0
       141    973.8752    758.6733 307.5096953  +6.3882637     918.1854     1573.059      2003.39     85.06355      169.457     338.3429      1.698     3.60     1010.516     59.62658      194.082         7     1.163     0.443 -61.89   3
       142    970.0735    759.3831 307.5112506  +6.3878442     747.6804     1263.869     1660.742     84.25723     168.9864     338.1747      2.515     4.66     1010.645     59.62658     134.0435         7     1.253     0.533 -20.24   3
       143    678.6839    756.3660 307.6323585  +6.3793952     1030.776     2493.023     3524.718     84.79562     169.0537      338.242      2.588     8.03         1018     59.62658     160.0022        17     2.560     0.704 -22.77   0
       144    565.4454    755.6345 307.6794074  +6.3759220     1514.901     3283.019     3802.505     84.39216     169.0537     338.1411      2.367     7.95     1020.975     59.62658      191.621        27     2.134     0.889 -20.91   0
       145    414.2822    754.9850 307.7422014  +6.3711438     764.9734     1503.359     2035.385     84.39215     168.9191     338.1411      2.074     4.11     1024.493     59.62658     137.0148         7     1.194     0.405 -30.90   0
       146    127.9720    753.2980 307.8611478  +6.3622618     1186.077     2905.211     3794.956     84.92969     168.9191      338.242      2.573     8.84     1028.974     59.62658     154.9799        25     2.236     1.017 -16.46   0
       147    917.2124    750.6768 307.5334914  +6.3896841     1886.129     4202.038     4786.779     84.39216     168.7843     338.0738      2.351     8.22     1012.117     59.62658     342.1794        28     2.409     0.784 -16.82   0
       148    977.8001    749.8976 307.5083560  +6.3920194     1229.134     2539.544     2978.461     84.25723     168.7843     337.9055      1.990     6.77     1010.133     59.62658     211.6868        18     2.136     0.602 -20.45   0
       149    948.1038    749.7978 307.5206918  +6.3910740     2328.635     3530.535     4278.001     84.25723     168.8517     337.9391      1.650     3.74     1011.168     59.62658     346.8242        18     1.299     0.881 -11.65   3
       150    943.9933    751.0000 307.5223590  +6.3904407     1285.781     1880.726     1676.542     83.98675     168.7843     338.0401      1.439     4.91     1011.326     59.62658     216.4281        10     1.133     0.603  -7.06   3
       151    670.6772    749.7726 307.6359025  +6.3818522     917.1432     1529.793     2189.987     84.66135      169.121      338.242      2.009     5.19     1018.007     59.62658     144.7239         8     1.093     0.721 -12.96   0
       152    817.5834    747.9763 307.5749552  +6.3874862     705.0191     1386.107     1269.408     84.52686     169.0537     338.1747      2.173     5.42     1014.146     59.62658     114.8519         8     1.641     0.506 -33.94   0
       153    893.6343    746.2030 307.5434313  +6.3907484     618.7911     1076.603     1817.822     83.85117     168.9864     338.0065      1.992     5.91     1012.475     59.62658      78.9646         6     1.140     0.862 -55.54   0
       154    243.8633    744.5581 307.8133163  +6.3697527     1163.254     2481.668     3370.273     84.79562      169.121     338.3429      2.499     7.49     1028.727     59.62658     155.5037        16     1.800     0.872 -43.14   2
       155    680.3452    741.8386 307.6321512  +6.3854519     547.0079     1136.218     1776.372     84.79562     169.2555     338.2756      1.776     3.50     1017.295     59.62658     126.9895         5     1.392     0.254 -49.25   0
       156    936.1320    739.7892 307.5259952  +6.3948107     675.3242     938.9599     1034.652     84.25723     168.9864     338.1074      1.689     4.50     1011.411     59.62658     127.7426         6     1.202     0.478 -44.07   0
       157    961.8495    737.8752 307.5153783  +6.3964561     1513.692     3494.548     4239.619     84.66135     169.2555     338.3093      2.501     8.69     1010.396     59.62658      276.225        29     2.432     0.866 -16.75   0
       158    909.3853    738.8931 307.5371325  +6.3942919     817.6467     1548.479     1690.739     84.52686     168.9191     338.1074      2.045     5.15     1011.984     59.62658     162.8337         9     1.415     0.530 -17.95   0
       159   1000.2714    732.3552 307.4996048  +6.4000129     630.5665     791.4086     695.9947     84.66135     169.1883     338.2756      1.303     3.05      1008.85     59.62658     118.1281         5     0.772     0.567 -41.87   3
       160   1004.9988    731.1161 307.4976826  +6.4006817     1207.507     1864.609     1318.529     83.98675     168.7169     337.9728      1.630     5.58     1008.661     59.62658     158.2396        13     1.457     0.704  -9.61   2
       161    805.7384    729.7687 307.5804784  +6.3946137     803.8666     1495.084     1542.476     84.52686     169.2555     338.2084      2.132     6.31     1013.658     59.62658     107.0338        10     1.496     0.748 -24.81   0
       162    892.4734    726.8771 307.5445541  +6.3986935     1106.396     2009.048     2817.947     85.06355      169.457     338.3093      2.462     4.35     1011.811     59.62658     157.8442        10     1.163     0.699  31.65   0
       163    865.8937    721.9969 307.5557542  +6.3998256     669.4896     1043.998      1117.36     84.52686     168.8517     337.9728      2.180     5.71     1012.189     59.62658     105.0131        11     1.980     0.464 -15.82   0
       164    848.5701    718.3602 307.5630692  +6.4007518     946.6193     1846.907     1971.196     84.25724     168.8517     338.1074      2.727     6.92     1012.401     59.62658     165.2959        15     2.086     0.643 -19.75   0
       165     47.3291    717.6740 307.8958246  +6.3742745     1570.614     3356.188     4136.841     85.06355     169.3227     338.3093      2.392     8.40     1028.113     59.62658     207.9608        26     2.054     0.960 -27.06   0
       166    659.5631    706.1223 307.6419683  +6.3995138     3717.593     8563.015     9598.301     84.66135     169.2555     338.2756      2.388     8.82     1016.072     59.62658     504.3192        40     2.325     1.027 -20.24   0
       167    606.5811    705.0497 307.6640067  +6.3981906     838.6578     1974.326     2379.616     84.25723     169.2555     338.0738      2.422     8.20     1017.469     59.62658     152.2213        18     2.117     0.888 -14.65   0
       168    122.7140    702.0055 307.8650446  +6.3832738     2202.402     5003.719     6196.479     84.25723     168.8517     337.9728      2.418     8.77     1027.971     59.62658     280.3394        34     2.221     1.027 -21.05   0
       169    996.5228    701.4568 307.5021848  +6.4126528     1594.337     3367.916     3922.627     84.79563      169.121      338.242      2.339     7.90     1008.422     59.62658     300.3479        24     2.249     0.776 -18.84   0
       170    634.0250    701.6964 307.6527211  +6.4004909      1442.26     3170.704     4456.823     84.92969     168.9191     338.1411      2.528     7.60     1016.568     59.62658     189.3826        22     2.131     0.758 -16.66   0
       171    776.4979    698.2298 307.5936683  +6.4066693     11944.65      26716.5     31711.63      84.9297     168.9191     338.3093      2.410     8.76     1012.897     59.62658     1713.566        63     2.485     1.123 -18.43   0
       172    906.5820    697.9123 307.5396550  +6.4111282     2253.323     4984.643     5587.133     84.52686     168.9191     338.1074      2.199     8.15     1010.231     59.62658      357.796        29     2.334     0.795 -19.03   0
       173    476.1758    698.5146 307.7183793  +6.3965388     812.5255     1678.044     1463.069     84.79562     168.9191     338.1074      2.022     6.75      1021.41     59.62658     113.1718        14     1.923     0.665 -27.51   0
       174    250.0992    691.8463 307.8124855  +6.3917362     3406.778      7934.34     9444.812     84.79562     169.0537      338.511      2.472     8.10     1027.017     59.62658     458.6084        44     2.352     1.128 -19.12   0
       175    657.0143    691.0806 307.6435267  +6.4056427      4089.38     9194.313     10723.37     84.39216     168.9191     338.0738      2.378     8.27      1015.37     59.62658     557.2612        44     2.429     1.036 -18.87   0
       176    352.9333    690.8975 307.7698130  +6.3955678      595.686     1110.538     1526.785     84.79562     169.2555     338.3429      2.280     6.22     1023.861     59.62658     106.0303         8     1.730     0.629 -27.73   0
       177    914.3522    684.6012 307.5368692  +6.4168854     624.1541     805.7619     600.6204      84.1221     168.7843     337.8044      1.709     4.47     1009.388     59.62658     112.7392         5     1.204     0.473   6.64   0
       178    918.9814    682.9886 307.5350001  +6.4177055     786.8679      1042.36     920.5939     84.39216     168.8517     338.1747      1.483     4.01     1009.098     59.62658     127.1981         7     0.939     0.489 -44.10   0
       179    728.8563    679.5319 307.6140746  +6.4128071     2118.845     5147.204      6466.39     84.92969      169.121     338.2084      2.743     8.24     1013.116     59.62658     295.9222        39     2.386     1.071 -22.26   0
       180    685.1274    679.8670 307.6322240  +6.4112119     758.3086     1249.032      1050.57     84.92969     169.3227     338.2756      1.768     4.67     1014.101     59.62658      107.031         7     1.206     0.513 -50.61   0
       181    994.9880    676.0422 307.5036639  +6.4231008     5266.382     12104.96     13548.36      84.1221     168.9864     337.9728      2.342     9.01     1008.002     59.62658     1066.306        42     2.412     0.939 -16.89   0
       182    933.5822    676.4412 307.5291532  +6.4208956      1643.82     3579.926     3720.246     84.25724     168.9864     338.0401      2.178     7.78     1008.306     59.62658     276.5768        24     2.196     0.771 -18.70   0
       183     14.3848    675.6963 307.9109084  +6.3905099      1141.84     2813.837     3842.118     84.52686     168.9191     338.0401      2.729     8.70     1027.441     59.62658      179.618        25     2.373     0.891 -16.14  16
       184     72.5009    670.9516 307.8869337  +6.3944188     14187.59     34550.41      40817.4     84.79562      169.121     338.4774      2.505     9.74     1027.365     59.62658      1940.22        72     2.476     1.301 -19.05   0
       185    533.6912    671.6796 307.6953870  +6.4095443     1200.388      2932.85     3173.792     84.52686      169.457     338.3429      2.257     9.10     1018.673     59.62658     158.8796        26     2.231     1.036  -9.29   0
       186    924.5400    667.7250 307.5331975  +6.4241958     787.4218     1277.811     1449.541     85.06355     169.1883      338.242      1.753     5.76     1008.217     59.62658     108.4161        10     1.677     0.556 -40.72   0
       187    503.8952    668.5675 307.7078646  +6.4098354     907.9111     1793.236     1817.665     84.92969     169.0537     338.3765      2.329     5.96      1019.52     59.62658      131.174        14     1.511     0.867 -21.70   2
       188    718.4951    663.0367 307.6189254  +6.4192762     2058.742     4411.922     4929.846     84.92969     169.0537     338.4101      2.319     8.24     1012.795     59.62658     287.5342        30     2.309     0.874 -20.11   0
       189    740.6353    661.2792 307.6097888  +6.4207397     2473.759     5392.303      6553.33     84.66135     169.2555     338.2756      2.419     8.09     1012.273     59.62658     325.0806        33     2.324     0.883 -17.18   0
       190    572.0160    659.2362 307.6798848  +6.4159634      1699.51     4315.277     4961.788     84.39215     168.9864     338.0401      2.548     9.07     1016.646     59.62658     246.6364        33     2.252     1.020 -21.35   0
       191    408.9540    659.6987 307.7475882  +6.4103282     863.7144      1867.74     2184.847     84.79562     169.0537      338.511      2.275     6.51     1021.352     59.62658      134.191        11     1.337     0.890 -10.64   0
       192    317.6228    657.7236 307.7855827  +6.4080910     915.3015     1658.307     2117.231     84.39216     169.0537     338.1747      2.185     4.47      1023.96     59.62658     135.6835        10     1.032     0.828 -27.27   2
       193   1013.3292    657.3979 307.4966640  +6.4314121     3084.139     6772.548     7708.461     84.25724     168.7169     338.1074      2.328     8.31      1006.74     59.62658     571.8336        33     2.363     0.816 -17.97  16
       194    978.6046    656.4237 307.5111180  +6.4306611     4986.539     11258.07     13055.33     84.39216     168.9191     338.1074      2.369     8.86     1007.112     59.62658      836.308        41     2.430     0.902 -19.54   0
       195    233.0110    658.6299 307.8206901  +6.4048856     1016.076     2194.685     2720.774     84.25723     168.9864     338.1074      2.412     6.84     1026.058     59.62658      150.473        16     1.867     0.703 -15.99   0
       196    699.9006    654.4557 307.6269328  +6.4222016     559.4156     1080.776     1937.871     84.52686     169.1883     338.5446      1.766     3.41      1012.89     59.62658     105.9443         5     1.415     0.237 -18.29   0
       197    137.2322    649.8554 307.8607578  +6.4053027     13357.83        31690     37670.51     84.66135     169.1883     338.2084      2.513     8.34     1026.778     59.62658     1641.783        70     2.483     1.287 -19.21   0
       198    421.7927    651.7795 307.7425202  +6.4140285       1192.1     1829.873     2405.371     84.39215     168.9191     338.0738      1.660     5.67     1020.779     59.62658     165.8408        11     1.228     0.881  17.03   3
       199    425.8743    650.2095 307.7408774  +6.4148135     1683.963     3376.284     3913.289     84.39216     168.7843     338.1411      2.129     6.35     1020.638     59.62658     194.8967        23     1.608     1.064  -3.40   3
       200     91.2131    652.5203 307.8797792  +6.4026597     477.7221      940.973     649.1348     84.39216     168.9191     338.0738      2.245     3.42     1026.976     59.62658     98.82593         5     1.524     0.222 -17.27   0
       201    805.4764    650.4766 307.5832182  +6.4273610     690.5476     1384.766     1910.426     85.06355      169.457     338.3765      2.323     6.21     1010.616     59.62658       117.06        12     1.846     0.587 -25.04   0
       202    358.9656    644.2124 307.7688640  +6.4150548     589.1651     896.7584     975.6315     84.25723     168.9864     338.1074      1.632     5.12       1022.1     59.62658     107.0026         7     1.200     0.618 -24.31   0
       203    973.6497    639.2874 307.5137436  +6.4375757     3987.858     9968.788     12150.97     84.79562     168.9864     338.3765      2.591     9.95     1006.337     59.62658     761.7391        49     2.401     1.150 -14.49   0
       204   1023.7291    635.7787 307.4930605  +6.4406886     3438.615     4791.135     5378.156      72.6564     133.3078      253.401      1.252     2.80     1004.964     59.62658     1057.552        18     1.652     0.530  89.24  24
       205    567.1646    634.6794 307.6827164  +6.4259459     26684.47     62543.38     75654.61     84.66135     169.2555     338.2756      2.485     8.05     1015.747     59.62658     3461.416        88     2.576     1.277 -19.47   0
       206    174.8466    631.3853 307.8457542  +6.4141926      1555.43     3774.916      4397.53      84.1221     168.9864     338.0065      2.625     9.65     1025.919     59.62658     200.2526        34     2.379     1.099 -21.24   0
       207     68.0579    625.5099 307.8902978  +6.4130410     869.0145     1721.504     2454.901     84.66135     169.1883     338.4101      2.234     7.39     1026.608     59.62658     107.8307        18     1.987     0.769 -11.39   0
       208    464.4043    618.4932 307.7259322  +6.4292024     34470.31     81404.63     99053.25     84.39216     168.8517     337.9728      2.532     8.18     1018.918     59.62658     4327.828        99     2.626     1.334 -19.86   0
       209      5.5771    620.6849 307.9164059  +6.4129386     851.0049     1785.963     2909.788     84.66135     168.9191     316.2346      3.014     7.39     1027.132     59.62658     122.0806        13     1.362     1.126 -14.18  18
       210    652.0115    614.9147 307.6481356  +6.4369402     709.8107     1204.028     1476.978     84.39216     168.9191     338.1074      1.904     4.08     1012.867     59.62658     104.6423         7     0.935     0.509 -47.59   0
       211    139.9478    613.1631 307.8608558  +6.4205508     856.1734     1606.816     1094.378     84.66135     169.1883     338.3093      2.179     7.45     1025.683     59.62658     151.4929        13     1.842     0.843 -13.33   0
       212    310.7249    607.3623 307.7901268  +6.4286641      1088.13     2246.798     3350.776     84.66135     169.2555     338.3093      2.669     7.99     1021.448     59.62658     136.1804        20     2.051     0.870 -23.54   0
       213    736.5315    601.9944 307.6134618  +6.4450938     3088.881     7196.312     8783.035     84.25723     168.7843     338.0738      2.476     7.81     1010.647     59.62658      470.773        38     2.292     1.005 -17.28   0
       214    789.9603    597.2384 307.5914292  +6.4488375     7830.709      18422.6     21722.63     84.52686     169.1883     338.1411      2.425     9.28      1009.24     59.62658     1250.165        58     2.508     1.110 -21.18   0
       215    533.5145    597.2030 307.6979386  +6.4403046     738.9863     1408.512     1982.399      84.1221     168.7843     337.9728      2.412     4.99     1014.986     59.62658       102.98         7     1.235     0.570 -20.59   2
       216   1009.1155    597.2827 307.5004048  +6.4561064     687.2834     1328.512      1268.48     84.52686      169.457     338.3429      1.753     3.48     1002.889     59.62658     143.0546         6     0.988     0.411 -11.81   0
       217    614.2618    595.1132 307.6644721  +6.4438616     1537.847     3453.402     4008.411     84.79562     169.3899     338.2756      2.489     8.59     1013.175     59.62658     216.3174        29     2.162     0.954 -21.48   0
       218     35.0914    596.3784 307.9049622  +6.4239692     400.3671     927.0792     916.4221     84.79562     168.9864     338.1411      1.288     3.04     1026.601     59.62658     81.74597         4     1.237     0.218  22.70   2
       219    931.2256    591.1765 307.5329578  +6.4560408     732.5963      1381.33     1419.696     84.25723     169.0537     338.2084      1.903     5.42     1005.922     59.62658      127.184         8     1.777     0.466 -25.40   0
       220    227.2458    589.3169 307.8253978  +6.4333251     838.9958     1758.108     2521.089     84.79562     169.1883     338.2756      2.673     6.59     1023.493     59.62658      129.702        12     1.837     0.664 -29.19   0
       221    866.2269    580.2762 307.5603158  +6.4583825     1648.832      3704.71     4179.554     84.66135      169.121      338.242      2.358     7.89     1007.031     59.62658     249.0316        24     2.243     0.777 -18.76   0
       222    824.8856    577.8065 307.5775684  +6.4580274     1544.535     3373.558     4066.652     84.25723     168.8517     338.0065      2.480     8.05     1008.005     59.62658     256.5773        26     2.225     0.887 -14.10   0
       223    626.0308    578.8727 307.6601241  +6.4509631     2042.314     2280.735     2340.208     84.66135     169.1883     338.2756      0.907     3.06     1012.158     59.62658     620.0317         6     0.894     0.305 -85.01   0
       224    805.2548    569.1893 307.5860078  +6.4609338      88893.5     207398.8       248154      84.1221      169.121     337.9391      2.473     8.82     1008.338     59.62658     12904.03       161     2.865     1.298 -21.09   0
       225    252.9353    572.8368 307.8152788  +6.4409927      4238.16     10229.01      12473.9     84.66135     169.1883     338.3429      2.541     7.97     1021.848     59.62658     473.5585        55     2.443     1.280 -21.08   0
       226    187.0279    567.4431 307.8428307  +6.4410142     31330.18     76370.72     94974.55     84.39215     169.2555     338.1747      2.623     8.50     1023.575     59.62658     3622.065       113     2.685     1.454 -20.52   0
       227    111.1977    563.7320 307.8744472  +6.4400067     3295.882     8142.854     9715.096      84.1221     168.7843     338.0738      2.519     8.51     1025.005     59.62658     396.4979        48     2.419     1.192 -20.54   0
       228    976.0471    560.7037 307.5153513  +6.4701190     696.0695     1703.561     1873.927     84.79562     169.0537     338.4438      2.625     6.32      1002.73     59.62658      156.326         8     1.534     0.732 -17.09   2
       229    842.1410    556.2108 307.5711180  +6.4675228     2489.049     5781.021     7057.861      84.1221     169.0537     337.9728      2.484     8.86     1006.877     59.62658     401.9491        35     2.330     0.965 -17.29   0
       230    360.4375    554.5984 307.7712399  +6.4521230     8908.657     21989.57     26563.13     83.85117     168.9864     338.0401      2.571     8.34     1019.311     59.62658      1010.58        66     2.533     1.308 -20.12   0
       231    163.6967    553.1187 307.8529987  +6.4461500     1272.925      2561.44     3447.212     84.66135     169.5242     338.3093      2.924     7.90     1023.927     59.62658     168.6741        20     2.108     0.828 -29.09   0
       232    795.9869    549.7305 307.5905030  +6.4686639      3332.58     7582.223     9149.875     84.25723     168.9864     338.1411      2.375     7.71      1008.17     59.62658     510.3859        42     2.352     1.047 -16.65   0
       233    526.9179    549.4832 307.7022664  +6.4597974     3626.912     8329.818     9671.948     84.52686      169.457     338.3765      2.404     7.47      1013.35     59.62658     428.5579        45     2.360     1.162 -21.43   0
       234    101.7409    550.0630 307.8788314  +6.4453361     596.6118     1052.804     1196.385     84.92969      169.121     338.3093      1.688     3.78     1024.887     59.62658     87.92432         5     0.834     0.492 -35.34   0
       235    386.6451    545.6860 307.7606523  +6.4566807     810.0595     1740.876     2205.642     84.79562     169.0537     338.2756      2.775     8.65     1017.807     59.62658     107.4273        15     2.432     0.859 -22.35   0
       236    572.0775    542.3387 307.6837477  +6.4642557     1506.894     3666.048     4652.699     85.06355     169.2555      338.242      3.012     9.27     1011.574     59.62658     197.8711        33     2.425     0.990 -26.85   0
       237     45.7814    541.3790 307.9023620  +6.4470471     2788.936     6403.018     7402.266     84.52686      169.121     338.1747      2.515     7.12     1025.796     59.62658     332.3837        40     2.258     1.129 -25.59   0
       238    812.1265    541.9721 307.5840569  +6.4724061     872.6588     1993.877     2875.184     84.66135      169.121     338.2084      2.527     7.52     1007.494     59.62658     124.9562        18     2.254     0.703 -21.77   0
       239    269.0338    539.1296 307.8097177  +6.4554556     46005.91     112234.6     137736.5     84.66135     169.1883     338.3429      2.591     8.10      1019.97     59.62658     5514.281       114     2.624     1.461 -20.87   0
       240    174.0889    542.5498 307.8490357  +6.4508640      3731.14     8672.365      10221.4     84.79562     168.9864     338.4101      2.438     8.05     1023.215     59.62658     378.0776        44     2.358     1.151 -19.74   0
       241    792.0750    531.5455 307.5927314  +6.4760460     9078.252     21128.78     25017.89     84.66135     169.1883     338.3093      2.472     9.09     1007.622     59.62658      1394.28        60     2.525     1.128 -19.68   0
       242    254.0897    533.6351 307.8161076  +6.4572252     1007.545      1960.04     2627.702     84.92969      169.121     338.2756      2.227     7.44      1019.97     59.62658     123.0147        16     1.705     0.908 -19.84   0
       243    968.6752    532.6404 307.5193431  +6.4814672      1051.24     2052.112     2235.767     84.66135     169.1883     338.3093      2.049     6.81     1001.927     59.62658     175.4694        16     1.930     0.673 -18.19   0
       244    495.7788    529.9466 307.7158499  +6.4668284     22044.71      55105.7     69202.66     84.25723     169.1883     338.0738      2.648     7.98     1013.963     59.62658     2542.774        96     2.687     1.437 -17.45   0
       245    208.9471    526.4088 307.8350975  +6.4586990      990.993     2200.219     2545.607     84.25723     169.0537     337.9728      2.377     8.10     1020.879     59.62658     137.9863        18     2.046     0.895 -23.22   0
       246     44.9607    526.3982 307.9032038  +6.4532078     765.1867     1725.389     1443.487     83.85117     168.9191     337.9728      2.048     7.19     1025.374     59.62658     101.0719        12     1.840     0.787  -1.06   0
       247    655.9783    524.8619 307.6494812  +6.4742734     1838.494     4163.998     5653.509     84.39216     169.1883     338.1747      3.147     7.93     1009.488     59.62658     238.9371        30     2.246     0.919 -21.88   0
       248    667.2768    524.2521 307.6448087  +6.4749019     758.8315     1472.326      1978.63      84.9297     169.2555     338.2756      2.422     6.15     1009.229     59.62658     119.3441        11     1.487     0.715 -30.05   0
       249    718.7420    523.2367 307.6234663  +6.4770363     815.6939     1731.212      2295.07     84.79562     169.1883     338.2756      2.494     6.38     1008.486     59.62658     139.3931        10     1.600     0.715 -22.87   0
       250    394.8304    519.9550 307.7581103  +6.4675836     873.4998     1883.629     2013.098     84.39216     169.2555     338.1411      2.181     7.92     1016.014     59.62658     112.2468        15     1.427     1.229  -4.75   0
       251    140.1412    517.4698 307.8639725  +6.4600868      13581.3      33317.8     40914.76     84.92969     169.1883     338.2756      2.624     8.55     1022.915     59.62658     1505.343        78     2.580     1.367 -19.13   0
       252    325.4365    518.6913 307.7869740  +6.4657855     2127.882     4907.503     5675.957      84.9297      169.121     338.3093      2.409     7.46     1017.586     59.62658     229.9489        35     2.072     1.105 -20.03   0
       253    506.0451    517.8741 307.7119878  +6.4721583     1222.366     2550.214     3026.137     84.66135     169.2555     338.3093      2.321     7.04     1012.903     59.62658     164.3832        17     1.758     0.791 -17.86   2
       254    867.9298    517.4940 307.5616908  +6.4843749     1077.123     2314.323      2492.81     84.66135     169.2555     338.2756      2.226     7.59     1005.021     59.62658     145.5955        20     2.002     0.806 -20.24   0
       255    105.5214    515.5527 307.8784148  +6.4597185     1428.338     3423.915     3691.719     84.79563     169.2555      338.242      2.388     8.98     1023.773     59.62658     188.8959        30     2.141     1.050 -17.83   0
       256    965.6652    511.9342 307.5212794  +6.4899211      2992.76     6650.145     7726.311     84.79562     169.1883     338.3093      2.347     8.71     1001.235     59.62658     530.4482        35     2.409     0.880 -20.14   0
       257    344.2417    513.1171 307.7793494  +6.4687170     673.3952     956.1472     1651.426     84.79562     169.1883     338.2084      1.469     4.31     1016.928     59.62658     109.3173         5     0.851     0.623  55.86   0
       258      4.7594    501.7874 307.9207231  +6.4620254     13577.17     32760.69     36512.95      84.1221     168.9864     306.5154      2.386     8.29     1025.494     59.62658     1651.473        61     2.250     1.315 -22.23  24
       259    539.6921    504.0623 307.6984724  +6.4789870     822.5491     1517.571     1708.432     84.79562     169.2555     338.3429      2.080     7.05      1011.09     59.62658     134.4778        13     1.923     0.725 -15.82   0
       260    437.1456    498.6147 307.7412461  +6.4778132     22303.41     54433.78     66401.66      84.1221      169.121     337.9728      2.581     8.03      1013.84     59.62658     2509.249        89     2.617     1.372 -20.41   0
       261    645.1180    498.1974 307.6548785  +6.4849265      6370.08     15437.49     19296.38      84.1221     168.7843     337.9391      2.558     8.64     1008.693     59.62658     795.6809        60     2.559     1.244 -15.84   0
       262    202.4373    496.2113 307.8388095  +6.4709553     9961.473     24110.69     30322.75     84.25724     168.9864     337.9391      2.580     7.83     1019.551     59.62658     1077.622        73     2.579     1.428 -21.36   0
       263    167.9694    498.3567 307.8530533  +6.4689146     758.7426     1780.047     1538.199     84.39215      169.121     338.1411      2.537     8.07     1021.068     59.62658     121.3356        12     1.669     1.092  -1.38   2
       264    979.1954    496.4482 307.5161725  +6.4967680     653.2939       1338.6     1386.695      84.1221     168.9864     337.9391      1.848     3.80     1000.112     59.62658     120.6989         6     1.342     0.309 -17.36   0
       265    819.3300    496.5026 307.5825739  +6.4914295     574.3113     1285.591     1132.961     84.66135     169.3899     338.2756      2.362     5.45     1005.675     59.62658     91.77057         8     1.419     0.591 -17.68   0
       266    567.3411    494.9339 307.6872921  +6.4836806     1540.576     3307.501     4112.671     84.92969      169.121     338.2756      2.411     8.13     1010.316     59.62658     191.0363        25     1.956     0.944 -14.25   0
       267    908.9970    495.2142 307.5453718  +6.4949445     507.9787     567.1194     961.1092     84.39216     168.8517     338.1411      1.408     4.33     1002.793     59.62658     77.45715         5     1.017     0.525 -34.66   0
       268    940.7149    492.1567 307.5322985  +6.4972621     2598.455      6062.65     7395.291     84.79562     169.0537      338.242      2.398     8.65      1001.36     59.62658     447.6636        33     2.347     0.890 -18.36   0
       269    613.9743    490.5648 307.6680681  +6.4870410      3501.39     8069.607     9651.484     84.25723     168.9864     338.0401      2.529     7.74     1009.443     59.62658     417.2759        47     2.476     1.123 -17.99   0
       270    103.1358    491.2143 307.8802191  +6.4696923     587.2962      1286.47     1340.623     84.25723     169.0537     338.1411      2.322     3.72      1023.05     59.62658     74.80078         5     1.158     0.343 -11.73   0
       271    963.5593    484.2699 307.5230709  +6.5012794     2220.998     4450.456     4798.866     84.66135     169.1883     338.3429      2.197     8.39     1000.196     59.62658     328.7339        30     2.290     0.858 -17.68   0
       272    526.2971    481.9232 307.7047728  +6.4876855     3929.371     9556.771     11765.81     84.39216     169.3899     338.3429      2.674     8.10     1010.635     59.62658     433.7798        52     2.479     1.203 -19.24   0
       273    372.9074    481.9109 307.7684839  +6.4825665     1319.393     3041.396     3562.169     84.79562     169.7254     338.3429      2.398     8.63     1014.185     59.62658      203.988        25     1.997     1.042 -20.58   0
       274    883.0447    477.5053 307.5567389  +6.5013971     1983.448      4191.03     5614.261     84.79562      169.121     338.4101      2.627     8.91      1003.36     59.62658     271.4308        31     2.292     0.979 -23.98   3
       275    890.6171    471.8435 307.5537813  +6.5039879     1401.002     2821.282      3189.43     84.25723     169.0537     338.0401      2.182     8.55     1002.723     59.62658     199.1989        25     2.281     0.967 -11.39   2
       276    931.2862    470.4532 307.5369344  +6.5059145     907.9056     1605.201     2359.923     84.79563      169.121     338.4101      2.134     2.98     1000.816     59.62658     126.8745         6     0.786     0.503   1.58   2
       277    714.1429    467.9770 307.6272124  +6.4997110     1656.707     3666.033      4423.63     84.39216     169.1883     338.0738      2.372     7.72     1006.296     59.62658     229.9752        30     2.185     0.983 -16.96   0
       278    385.1204    466.3431 307.7639301  +6.4894058     1942.638     4982.189     5927.328     84.79562     169.1883     338.2756      2.608     8.46     1012.861     59.62658     235.7305        42     2.295     1.280 -23.05   0
       279     77.8738    466.7644 307.8915284  +6.4789453     1081.434     2090.415     2685.899     84.66135     169.2555      338.242      2.643     7.10     1022.622     59.62658     143.8727        13     2.010     0.702  -9.46   2
       280    427.1071    465.9797 307.7465029  +6.4909591     664.6047     1047.922     1077.384     84.66135     168.9864     338.1074      1.890     4.59     1011.848     59.62658     96.45868         6     1.057     0.567 -12.38   0
       281    612.6599    462.8426 307.6695359  +6.4984492     5423.507     12883.26     15664.64     84.79562     169.1883     338.3765      2.543     7.33     1008.193     59.62658     653.8526        56     2.461     1.247 -19.36   0
       282    775.5239    459.1089 307.6020110  +6.5054188     9311.484     21051.72     26192.68     84.79562      169.457     338.2756      2.576     7.60     1004.795     59.62658     1370.727        76     2.850     1.307 -27.13   0
       283    294.2196    459.9971 307.8018974  +6.4889872     1397.973     3504.832     4163.581     84.39216     168.7169     338.0065      2.584     8.75     1013.807     59.62658     171.6562        26     2.134     1.002 -32.92   2
       284    419.6328    458.9898 307.7498403  +6.4935968     399.0502     811.9971     1049.677     84.25723     168.9191     338.1074      2.073     4.24     1011.411     59.62658     66.90466         5     1.108     0.462 -25.27   0
       285    806.0481    455.5967 307.5894485  +6.5078858     806.6578     1355.148     2188.248      84.1221     168.9191     337.8381      2.488     7.74     1003.982     59.62658     109.2829        11     2.115     0.793  -7.95   2
       286    379.3413    456.1655 307.7666698  +6.4934169     849.4982     1712.601     2081.402     84.66135     169.1883      338.242      2.179     6.96     1012.292     59.62658     113.2401        13     1.705     0.796 -33.22   0
       287    961.8254    453.7797 307.5248016  +6.5138175     1280.638     2239.529     3064.851     84.39215     168.9864     338.1747      2.157     7.09     998.8577     59.62658     175.4744        16     1.873     0.752 -20.49   2
       288    113.0989    451.3362 307.8774140  +6.4864993      2586.15     6123.119     7491.391     84.66135     169.2555     338.3093      2.597     8.26     1020.534     59.62658     314.1754        43     2.446     1.120 -18.92   0
       289    751.3069    450.1557 307.6123674  +6.5083109     1386.208     2976.748     3405.068     84.79562      169.121     338.4101      2.463     8.50     1004.852     59.62658     183.3668        25     2.457     0.822 -15.50   0
       290   1014.5886    448.9753 307.5030436  +6.5175552     2641.234     6049.727     7006.848     84.39215     168.9864     338.2084      2.365     7.90     996.1162     59.62658     324.0121        38     2.298     1.050 -12.88  16
       291    272.4131    447.9860 307.8113556  +6.4932192     881.7847      1618.22     2227.763     84.66135     168.8517     338.2084      2.718     5.30     1014.018     59.62658      106.015         9     1.060     0.749 -21.87   0
       292    348.9483    446.1322 307.7796282  +6.4965453      1597.85     4086.115      4520.32     84.66135     169.0537      338.242      2.571     9.19     1012.525     59.62658     195.2148        33     2.282     1.115 -15.44   0
       293    703.9847    444.6627 307.6322065  +6.5090037     718.1786     1731.384     1701.582     84.25723      169.121     338.0738      2.281     5.60     1005.099     59.62658     85.73547         8     1.351     0.654  14.66   2
       294    469.1895    435.0030 307.7300554  +6.5051613     800.8873     1776.038     1661.458     84.39216     168.8517     338.1747      2.513     6.04     1007.675     59.62658     128.1494        10     1.270     0.806 -45.86   0
       295    831.2421    433.7550 307.5797082  +6.5177472     1010.336     1969.022     2216.389     84.66135     169.1883     338.1074      2.137     7.53     1002.497     59.62658     139.9519        17     1.893     0.839 -17.26   0
       296    816.4562    433.2644 307.5858664  +6.5174578     1111.113     2536.519     2511.185      84.9297      169.121     338.2756      2.295     7.83     1002.624     59.62658     163.9967        22     2.285     0.750 -24.47   0
       297    713.7805    431.0910 307.6285885  +6.5149366      8244.14     19150.09     23835.73     84.66135     168.9191     338.1074      2.511     7.81     1004.259     59.62658     1085.781        61     2.496     1.204 -18.74   0
       298    632.7609    427.7188 307.6623546  +6.5136292     1193.201     2648.339     3987.549     84.79562     169.2555     338.2084      3.009     8.09     1005.619     59.62658     135.3149        17     1.533     1.194  -7.04   2
       299    636.7076    426.5777 307.6607531  +6.5142321     1517.879     2659.652     3370.513     84.79563     168.9864     338.1074      1.996     4.37     1005.453     59.62658     196.7458        18     1.335     0.935 -34.49   3
       300    607.2318    422.2616 307.6731403  +6.5150321     7998.292     21290.86     30494.44     84.52686     169.2555     338.2084      3.021     8.19     1005.944     59.62658     1049.492        94     2.885     1.784   1.67   0
       301    939.2482    420.8041 307.5352730  +6.5266895      2194.95     4922.874     5833.845      84.1221     168.9864     337.9391      2.390     8.55     998.6366     59.62658     398.6722        32     2.277     0.898 -14.56   0
       302    378.2421    417.0233 307.7684312  +6.5095494     15074.17     36934.55     45969.52     84.39215     169.0537     338.0401      2.596     7.96     1009.615     59.62658     1730.453        83     2.623     1.379 -20.01   0
       303    895.8712    416.5200 307.5534337  +6.5270171     914.7834     1868.718     2823.043     85.06355      169.457     338.2756      2.258     6.11     1000.212     59.62658     116.2379        12     1.239     0.847 -39.03   0
       304    124.3612    416.8440 307.8738891  +6.5011250     1193.899     2848.057       3461.6     84.52686      169.121     338.1074      2.492     8.62     1018.327     59.62658     137.9358        25     2.216     0.936 -15.18   0
       305    907.9371    411.3598 307.5485926  +6.5295500     2854.581     6226.685     7168.002     84.79562      169.121     338.3093      2.327     8.49      999.475     59.62658     382.4238        32     2.227     0.903 -15.92   0
       306     59.6969    411.8152 307.9009154  +6.5010341      906.792     1899.734      2569.85     84.52686     168.9191     338.0401      2.406     6.65     1021.007     59.62658     122.6981        14     1.386     0.916 -31.72   0
       307    235.7296    407.5909 307.8279406  +6.5086780     7086.709     17517.32     21839.89     84.25724     168.7843     338.1074      2.642     8.39     1013.799     59.62658     866.8574        66     2.587     1.337 -19.27   0
       308    959.5394    399.1729 307.5275610  +6.5362999      604.934     1148.015     1410.606     84.39216     169.2555     338.1411      2.140     5.31     996.2878     59.62658     105.5072         8     1.360     0.586 -17.63   0
       309    136.3091    396.1903 307.8696167  +6.5100571     2582.616     6649.252      8172.42     84.52686     168.8517     338.0065      2.585     9.26      1017.55     59.62658     327.5124        44     2.282     1.235 -17.56   0
       310    350.3232    396.6552 307.7807070  +6.5170298     758.6615     1545.066     1802.469     84.79562     169.1883      338.242      2.332     6.13     1009.323     59.62658     104.5435         9     1.538     0.688 -19.71   0
       311    241.8704    395.3055 307.8258001  +6.5139585     726.6641     1613.444     1955.752     84.66135     169.2555     338.2756      2.594     7.20     1013.025     59.62658      122.418        12     1.960     0.742 -22.97   0
       312    158.1548    392.0421 307.8606815  +6.5125027     1258.828     3315.516      4537.14     84.66135     169.1883     338.1074      2.850     9.09     1016.767     59.62658     168.6078        27     2.171     1.064 -17.76   0
       313    382.6174    386.8358 307.7676202  +6.5221659     1382.151     2888.908     3751.221     84.25723     168.9864     338.0401      2.711     6.17     1007.455     59.62658     175.0347        22     1.817     0.888 -27.10   2
       314    435.4486    380.3523 307.7458912  +6.5266099     3762.549      9460.74     12280.96     84.79563     169.0537     338.3093      2.725     8.48     1005.657     59.62658      395.709        57     2.540     1.317 -20.00   0
       315     32.1423    381.2583 307.9133824  +6.5127323     1794.646     4294.478     5508.287     84.79562      169.121     338.3093      2.620     8.71     1021.008     59.62658     204.8049        33     2.213     1.107 -21.71   0
       316    775.3764    377.8150 307.6047716  +6.5389966     6719.333     16524.76      21158.1     84.52686     168.9864     338.1747      2.754    10.14     1001.156     59.62658      943.155        71     3.059     1.190 -13.96   0
       317   1020.0297    372.6475 307.5033118  +6.5492675     2217.938     4744.609     5533.184     84.39215     169.2555     309.2499      2.267     8.51     991.8484     59.62658     410.1871        29     2.258     0.896 -17.85  24
       318    185.1496    368.3928 307.8502589  +6.5231763     589.2953     1121.535     1858.819     84.25723     168.9864     337.9055      1.820     4.51     1014.386     59.62658      96.1084         6     1.103     0.635 -86.58   0
       319    483.9083    364.0219 307.7263056  +6.5349747     1706.452     3885.147      4590.65     84.79562     168.9864     338.1074      2.420     9.14     1003.848     59.62658     221.3699        32     2.245     1.039 -21.45   0
       320    456.1928    364.5638 307.7378004  +6.5338251     1195.198     2597.765     3061.937     83.98675     168.9864     338.0065      2.385     8.17     1004.561     59.62658     147.0986        24     2.363     0.789 -16.09   0
       321    841.2905    360.5835 307.5779625  +6.5483090     18433.64     43544.18     52870.26     84.52686     168.9191     338.1747      2.502     7.73     999.1069     59.62658     2698.957        80     2.543     1.310 -20.63   0
       322     22.0442    353.4557 307.9185070  +6.5238781     629.0917     1354.928      1834.89     84.79562     169.1883     338.3093      2.601     8.27     1019.585     59.62658     96.31622        14     2.277     0.839 -28.45   0
       323    697.7468    346.5999 307.6380565  +6.5493056     42588.69       100780     122130.5     83.98675     168.7843     337.7708      2.529     7.66      1001.25     59.62658     5296.014        99     2.599     1.340 -19.32   0
       324    613.3621    352.8658 307.6729022  +6.5439038     1496.127     3523.155     4601.111     84.66135      169.121     338.3765      2.713     7.83     1002.507     59.62658     156.4951        31     2.167     1.141 -26.68   0
       325    857.8865    347.8393 307.5714911  +6.5541259     792.3871     1545.642     2410.655     84.79562     169.1883     338.2756      1.840     3.92     998.1226     59.62658     120.8318         7     0.938     0.594 -71.99   0
       326     78.5198    346.3384 307.8952869  +6.5287126     881.9407     1542.256     1934.756      84.9297     169.1883     338.2756      2.070     5.81     1018.613     59.62658     115.8022        11     1.244     0.764 -22.73   0
       327    560.6580    343.1449 307.6951191  +6.5461612     1330.779      3171.23     3830.844     84.92969     169.2555     338.3093      2.643     8.96      1001.74     59.62658     189.9128        27     2.181     1.029 -25.51   0
       328    940.8476    343.4099 307.5371744  +6.5587146     632.0827     765.1813     989.4652     84.25723     169.0537     337.9055      1.254     4.37     994.3488     59.62658      90.4892         5     1.147     0.475 -55.18   0
       329     97.9618    342.2097 307.8873493  +6.5310701     3278.217     8167.589     9828.032     83.98675     168.9864     337.9728      2.537     7.92     1018.152     59.62658     383.0659        53     2.421     1.304 -18.54   0
       330    543.6472    339.5138 307.7023063  +6.5470934     3873.802     9199.255     11428.21     84.79563      169.121     338.2756      2.587     7.83     1001.513     59.62658     446.2661        50     2.506     1.179 -18.84   0
       331    272.7443    337.1575 307.8149168  +6.5390122     1374.353     3294.131     4338.435     84.66135      169.121     338.3093      2.621     9.20      1010.11     59.62658     167.4212        29     2.255     1.048 -16.97   0
       332    406.3894    334.7220 307.7594829  +6.5444883     13342.38     33192.55     41651.95     84.39216     168.7843     338.1411      2.659     8.71     1004.422     59.62658     1560.807        85     2.630     1.452 -19.94   0
       333    515.6590    333.2039 307.7141427  +6.5487657     654.9881     1192.292     1226.133      84.1221     169.0537     338.0065      1.783     6.28     1001.358     59.62658     90.33112         9     1.302     0.852 -33.81   0
       334    387.7256    332.7941 307.7673000  +6.5446608     662.4073      1021.45     2014.136     84.39216     168.7169     338.1747      1.573     4.43     1004.724     59.62658     117.0486         5     1.283     0.435 -59.29   0
       335    485.6010    330.4387 307.7267210  +6.5489043     675.4669     1581.063     1702.431     83.85117     168.9864     337.9728      2.837     6.35     1001.551     59.62658     103.6038         8     1.625     0.697 -23.15   1
       336    495.5030    325.1713 307.7227831  +6.5514109       4484.1     10857.03      13063.3      84.9297     168.9191     338.2756      2.624     8.92     1000.995     59.62658     567.2811        58     2.617     1.243 -21.45   0
       337    765.0356    323.6555 307.6108660  +6.5610256     1775.659     3769.409     5101.664     84.66135     169.1883     338.3093      2.401     7.98     999.2643     59.62658     223.9987        28     2.107     0.933 -14.92   0
       338    918.9294    323.1945 307.5469501  +6.5663370      555.316     1190.904      1523.93     84.25723     168.7843     338.1411      2.153     4.36     994.4174     59.62658     92.09912         5     1.027     0.527 -34.35   0
       339    385.4945    309.3286 307.7690092  +6.5542796     3710.163     9291.829     11321.74     84.79563     169.2555     338.2756      2.664     8.34     1004.184     59.62658     408.2255        53     2.521     1.250 -19.65   0
       340    241.6403    309.9914 307.8287440  +6.5491929      1039.43     2673.947     3468.958      84.1221     168.9864     337.9728      2.664     8.57     1010.196     59.62658     146.8623        23     2.179     0.941 -15.39   0
       341    753.2446    305.1440 307.6163792  +6.5682800     29583.98     69029.68     83389.25     84.79562     169.1883     338.2756      2.477     7.99     998.5974     59.62658     4119.507        93     2.580     1.312 -19.90   0
       342    424.9096    304.9224 307.7527828  +6.5574173     1070.832     2644.651     3142.246     84.52686      169.457     338.3093      2.678     8.39     1002.317     59.62658     172.9061        22     2.326     0.846 -23.84   0
       343    989.1747    302.1479 307.5184656  +6.5773662     979.5647     1959.362     2589.341     84.39215     169.1883     338.1747      2.457     5.15     990.1779     59.62658     145.4974        11     1.262     0.654 -30.44   2
       344    929.3741    301.4156 307.5433332  +6.5756812     1412.867     2962.482     3702.694     84.52686     169.0537     338.2084      2.187     7.22     992.9153     59.62658     244.8774        23     1.951     0.828 -24.64   0
       345    572.8967    301.3967 307.6914244  +6.5638156     702.8977     1235.324     1637.814     84.52686     168.8517     337.9391      2.641     5.21     998.3549     59.62658      93.9494         7     1.072     0.715   4.57   2
       346    412.3495    300.1428 307.7581596  +6.5589719     1174.066     2857.157     3698.328     84.79562     169.1883     338.2756      2.587     9.09     1002.695     59.62658     153.4362        28     2.251     1.025 -28.37   0
       347    834.1387    294.3380 307.5831321  +6.5754372     803.7136     1299.021     1520.876     84.79562     169.1883     338.3093      2.050     5.31      996.528     59.62658     119.6348         9     1.356     0.588 -49.19   2
       348    188.2574    291.8714 307.8515242  +6.5548901     1239.092      3016.22     3669.272     84.92969     169.1883      338.242      2.641     8.99     1012.443     59.62658     141.8647        26     2.001     1.128 -22.82   0
       349    751.7941    289.7508 307.6174931  +6.5745906     3304.898     7734.052     9409.779     84.25723     168.9864     337.9055      2.473     8.03     997.9221     59.62658      438.433        47     2.545     1.070 -18.83   0
       350     85.1370    288.4480 307.8944742  +6.5528479     829.1265     1552.918     1874.472     84.66135     169.0537     338.3429      2.240     6.29     1017.444     59.62658     121.8256        10     1.441     0.771 -22.01   0
       351    768.4878    287.4336 307.6106350  +6.5761038     1394.552     3139.549     3918.337      84.9297     169.0537     338.2756      2.527     8.33     997.5959     59.62658     183.9963        25     2.154     0.899 -23.45   0
       352    358.0146    282.6465 307.7813143  +6.5643828     1174.391     2660.805     3335.967      84.1221     168.9864     338.0065      2.420     8.17     1004.839     59.62658     138.3851        23     1.987     0.939 -16.78   0
       353     71.1649    283.5609 307.9004415  +6.5543981     705.7502     1723.519     1910.337     84.52686     169.0537     338.0738      2.482     7.23     1017.924     59.62658     105.4162        12     1.890     0.774   2.22   2
       354   1006.3294    278.5553 307.5121207  +6.5876824     3593.118     7948.521     9506.761     84.79563     169.1883     338.2756      2.352     9.19     988.5798     59.62658     620.7269        40     2.324     1.015 -19.11   0
       355    485.1161    278.2982 307.7286592  +6.5704269     1107.305     2426.549     2867.615     84.79562     169.5912     338.3429      2.259     8.04     997.6423     59.62658     153.2397        20     1.733     1.043 -24.45   0
       356    247.1350    274.1978 307.8276566  +6.5641626     3124.795     7628.779     9811.739      84.1221     168.9191     338.0401      2.687     7.74     1009.193     59.62658     374.8384        49     2.428     1.250 -22.31   0
       357    382.9815    265.0689 307.7715288  +6.5724788     855.0541     1734.329      2278.25     84.39216     169.0537      338.242      2.883     4.79     1002.443     59.62658     116.5577         8     1.045     0.622 -28.98   2
       358    968.8696    263.3591 307.5281869  +6.5927153     631.2758     999.7474      1257.34     84.66135     169.1883     338.3429      1.775     4.42     989.7035     59.62658     137.3825         7     1.296     0.430 -38.01   0
       359    304.9013    260.3894 307.8041208  +6.5718002     708.5899     1215.265     951.3351     84.52686     168.7843     338.0738      1.980     5.49     1005.943     59.62658     114.6577         9     1.439     0.590 -31.37   0
       360    151.9805    260.5564 307.8676401  +6.5666103     976.4108     1924.014     2627.745     84.25723     169.0537     338.1074      2.660     7.43      1013.36     59.62658     135.1972        18     1.966     0.786 -26.93   0
       361    905.0975    255.1389 307.5549536  +6.5939910     1112.489     2478.905     3298.023     84.52686     169.1883     338.3765      2.656     7.79     991.9664     59.62658     165.4277        17     1.879     0.902 -23.24   0
       362    560.9056    255.9810 307.6979173  +6.5821764     1153.916     2909.359     3411.408     84.66135     168.9191     338.1074      2.507     9.02     995.6946     59.62658     166.7716        23     2.056     1.105 -17.88   0
       363    724.2220    253.8634 307.6301400  +6.5884971     2639.945     6209.702     7594.646     84.39216     169.1883     338.1411      2.461     8.11     996.1851     59.62658     333.9057        41     2.430     1.115 -23.01   0
       364    665.4821    253.6951 307.6545485  +6.5866089     1250.252     2562.126     3364.498     84.52686     169.5242     338.4101      2.350     7.59     995.9022     59.62658     158.8729        22     2.008     0.803 -23.38   0
       365    921.3736    245.8472 307.5484999  +6.5983706     716.8419     1228.615     1097.141     84.39216     169.2555     338.1747      1.651     5.07     990.9202     59.62658     102.7405         7     1.037     0.700 -35.86   0
       366    223.9812    239.3049 307.8384402  +6.5778010     1204.201     2841.222     3475.676     84.66135     168.9864     338.0738      2.642     9.46     1010.165     59.62658     143.7834        30     2.309     1.081 -22.10   0
       367    866.3594    237.9379 307.5716181  +6.5998082     1013.312     2154.788     2453.507     84.79562     169.1883     338.3093      2.395     7.66     992.7205     59.62658     158.4897        19     2.281     0.721 -17.48   0
       368    757.6465    237.1696 307.6168086  +6.5965067     1039.386     2175.636     2486.867     84.25723     169.1883     338.1747      2.271     7.45     995.2482     59.62658     131.2448        17     1.907     0.814 -26.44   0
       369    457.8566    228.8480 307.7416310  +6.5899438     12191.39     29322.52     37020.78     84.79562     169.1883     338.3765      2.668     7.61     996.4113     59.62658     1519.593        95     2.928     1.474 -28.23   0
       370    783.6329    228.0896 307.6063141  +6.6011231     7847.196     17822.87      21681.7     84.92969     169.0537     338.2756      2.518     7.75     994.6797     59.62658     1123.083        63     2.647     1.179 -18.68   0
       371    146.5792    222.4410 307.8711578  +6.5821740     1257.857     2760.403     3265.837     84.39216     168.9864     338.0738      2.390     7.90     1012.686     59.62658     171.5625        22     1.911     0.958 -25.21   0
       372    119.2084    221.7509 307.8825511  +6.5815415      576.638     1361.608     2101.046     84.25723     168.9864     337.9391      2.310     3.45      1014.28     59.62658     91.36853         5     0.977     0.352  46.29   0
       373    921.1753    218.1350 307.5495014  +6.6098120     1088.856     1860.964     2142.755     84.39215     169.1883     338.1747      1.928     4.45     989.8223     59.62658     163.3555        13     1.376     0.687 -31.38   2
       374    581.8157    214.7017 307.6906043  +6.5999264     2437.634     5880.195     7300.402     84.79562     168.9191     338.0065      2.571     8.18     994.0112     59.62658     294.4182        42     2.352     1.193 -20.26   0
       375    545.8035    214.7036 307.7055654  +6.5987237      1259.68     2476.446     3149.758     84.52686     168.8517     337.9391      2.383     5.98     993.9873     59.62658     164.9266        18     1.494     1.024 -12.34   2
       376    303.0795    215.6315 307.8063713  +6.5902281     593.6183     1281.803     1335.041     84.66135     169.1883      338.242      2.283     5.59     1005.851     59.62658     91.67242         7     1.291     0.683 -34.45   0
       377    386.1476    214.2201 307.7719091  +6.5935897     765.3402     1935.706     2232.009     84.25723     169.2555     338.0738      2.728     6.86      999.642     59.62658     111.8284         9     2.011     0.657 -25.32   0
       378    942.6302    211.6676 307.5408021  +6.6131970     1591.934     3379.027     4148.675     84.52686     169.1883      338.242      2.278     8.32     988.8738     59.62658     209.3428        28     2.069     0.934 -22.09   0
       379    888.6493    211.3125 307.5632411  +6.6115487     6494.835     14663.36     17234.21     84.79562     169.0537     338.3429      2.405     8.37     990.7313     59.62658     969.8662        52     2.394     1.108 -19.00   0
       380    975.3311    209.0962 307.5273013  +6.6153462     5830.816     13103.28     15466.51     84.66135     169.3227     338.3093      2.393     8.15     987.6403     59.62658     933.3379        49     2.355     1.098 -18.15   0
       381     14.8405    207.9914 307.9263672  +6.5837243     13366.64     33776.39     41755.57      84.1221     168.9864     337.9728      2.620     8.64     1020.635     59.62658     1699.143        81     2.598     1.412 -20.51  16
       382    686.6068    209.2629 307.6472496  +6.6056679     1520.315      3525.81     4567.446      84.1221     168.9864     338.0401      2.523     8.51     994.4563     59.62658     193.3455        28     2.257     0.897 -18.52   0
       383    262.3414    208.5491 307.8235315  +6.5917902     750.2265     1356.577     1599.447     84.79563     169.1883     338.2756      2.249     6.91      1008.43     59.62658     101.5081         9     1.494     0.895 -26.55   0
       384    495.7848    204.1788 307.7266960  +6.6014014     1163.668     2723.925      3189.49     84.52686     168.9191     338.1747      3.303     7.48     994.4599     59.62658     199.8796        20     1.811     0.888 -25.00   0
       385    827.1982    200.7625 307.5891219  +6.6138622     1136.393     2615.011     2694.188     83.85117     168.9864     338.0738      2.338     7.46     992.3521     59.62658     173.6838        19     1.992     0.781 -17.38   0
       386    508.8659    199.5716 307.7214149  +6.6037414     1546.878     2966.896     3672.929     84.52686      169.121     338.2084      2.305     5.41     994.2356     59.62658      204.838        19     1.341     1.104 -38.20   2
       387    879.9423    199.6605 307.5672451  +6.6160725     1312.885     2871.944     3805.955     84.92969      169.121     338.3093      2.537     8.06      990.662     59.62658     215.1626        23     2.216     0.871 -25.28   0
       388    738.8380    197.3327 307.6259463  +6.6123368     21618.92     51009.07     61836.79     84.66135      169.121     338.3765      2.510     7.82     994.1084     59.62658     2789.208        85     2.598     1.296 -19.85   0
       389    342.0392    196.6847 307.7908183  +6.5993582     3409.485     9607.255     14006.54     84.79562      169.121      338.242      3.083     8.53     1002.493     59.62658     384.7643        73     2.690     1.690 -37.62   0
       390    972.7350    196.0008 307.5288139  +6.6206696     1702.507     3834.833     4770.786     83.98675     168.8517     338.0065      2.473     8.34     987.1349     59.62658     304.4744        28     2.366     0.821 -14.74   0
       391    906.7425    194.4509 307.5562833  +6.6191160     4232.918      10028.1     11687.78     84.79562     169.1883     338.2756      2.460     9.29      989.548     59.62658     661.1423        45     2.433     1.037 -21.03   0
       392   1011.4263    194.4586 307.5127899  +6.6225923     1189.118     1971.069     2240.239     84.39216     169.1883     338.0738      2.039     6.69     985.5215     59.62658     280.0125        16     2.026     0.670 -25.65  16
       393    450.3722    193.3423 307.7459236  +6.6043608     2604.205     6201.066     7491.364     84.39216     169.2555     338.1747      2.477     7.93      995.505     59.62658     303.6367        43     2.399     1.189 -20.24   0
       394    107.8741    184.8028 307.8884950  +6.5964240     2451.543      6057.22     7408.098     84.25723     168.6494     338.1411      2.556     8.43      1014.01     59.62658     320.2079        43     2.339     1.217 -21.64   0
       395    278.0242    181.5462 307.8179179  +6.6034697     17792.25     43476.24     54075.66     84.25723     169.1883     338.0738      2.625     8.11     1008.645     59.62658      2003.76        83     2.623     1.392 -21.81   0
       396    253.4916    182.5998 307.8280745  +6.6022131     3546.189     8596.073     10266.67     83.98675     168.6494     337.9391      2.549     7.85     1009.299     59.62658     432.4967        49     2.461     1.198 -21.49   0
       397    928.9825    183.2333 307.5474153  +6.6244895     584.5807      871.226      1154.24     84.39215     168.9864     338.1074      2.223     4.88     988.4802     59.62658     89.73755         5     0.899     0.751  -3.93   0
       398    708.2657    180.8887 307.6391945  +6.6181110     562.6479     1170.967     1624.435     84.79562     169.3899      338.242      2.454     5.97     993.8807     59.62658     88.84204         8     1.720     0.583 -22.83   0
       399    402.0226    177.0320 307.7665540  +6.6094824      25797.5     63453.44     79208.98     84.25723     168.9864     338.0401      2.617     7.96     997.0667     59.62658     3110.764        96     2.652     1.437 -20.81   0
       400    158.2978    178.4090 307.8677613  +6.6007555     2184.531     5320.068     6696.872     84.52686     168.7843     338.0401      2.555     7.97     1011.986     59.62658     221.4426        41     2.311     1.183 -23.25   0
       401    421.5197    177.1649 307.7584495  +6.6100792      801.898     1337.914     1829.382     84.66135     169.2555     338.3093      2.345     5.12     995.7166     59.62658     116.8612        10     1.214     0.611 -41.43   0
       402    306.6875    174.7621 307.8062364  +6.6072313        10070     23468.64     31062.57     84.79562      169.121     338.2756      2.804     7.95     1006.482     59.62658      1158.63        97     3.226     1.432 -11.03   0
       403    741.2514    173.2065 307.6257453  +6.6223836     17905.46     42454.83     51391.01     84.25723     168.9864     337.9055      2.503     7.98     993.5003     59.62658     2644.312        77     2.546     1.291 -19.49   0
       404    790.7417    173.5336 307.6051727  +6.6238968     787.0731     1628.494     1948.406      84.9297      169.121     338.2756      2.053     6.55     991.9515     59.62658     87.75513        13     1.661     0.726 -31.89   0
       405     58.2044    170.5033 307.9096075  +6.6006648     4903.864     11959.48     14905.23     84.52686     168.8517     337.9391      2.587     8.01     1017.331     59.62658     560.2121        58     2.456     1.348 -21.13   0
       406     92.3468    168.5462 307.8954892  +6.6026185     783.8893     1923.685     2026.804     85.06355      169.121     338.2756      2.433     7.18     1014.411     59.62658     117.2128        14     1.792     0.807 -15.83   0
       407    999.9566    167.7648 307.5184400  +6.6332385     610.9803     1340.411     1569.336     84.52686     169.1883     338.1074      2.191     6.66     984.5848     59.62658     116.1796         9     2.261     0.550 -19.98   0
       408   1000.3718    153.7247 307.5187328  +6.6390523     1390.069     3097.912     4198.324     84.66135     169.1883      338.242      2.415     8.11     983.8882     59.62658     191.8855        26     2.182     0.842 -18.96   0
       409    585.1405    150.8294 307.6913488  +6.6264225     723.7579     1353.517     2487.935     84.52686     169.1883      338.242      2.703     3.94      993.242     59.62658     114.5449         5     0.999     0.731 -74.05   2
       410    592.7451    149.6024 307.6882302  +6.6271831     1152.152     2520.552     3675.748      84.1221     168.9191     337.9391      3.301     9.30     993.2217     59.62658     160.7286        24     2.299     1.050 -13.87   2
       411    276.8333    147.8532 307.8195374  +6.6173478     15693.72     39022.88     49311.18     84.66135      169.121     338.2084      2.680     8.29     1009.445     59.62658     1875.401        86     2.683     1.408 -20.36   0
       412     22.3050    146.4208 307.9253270  +6.6094080      2402.64     5608.824     6738.951     84.66135     168.9864     338.0738      2.497     8.36     1019.513     59.62658     287.9539        40     2.380     1.165 -19.95   0
       413    708.6110    144.3549 307.6402655  +6.6332145     4318.397     10180.64     12359.26     84.25724     169.0537     337.9728      2.448     8.05     992.5952     59.62658     630.3611        50     2.393     1.181 -18.97   0
       414    119.4714    141.4690 307.8851262  +6.6147130     2536.931     6190.664     7181.968     84.79563     169.3227      338.242      2.474     7.65     1012.602     59.62658     304.9147        41     2.322     1.105 -21.22   0
       415    390.2420    137.3830 307.7727705  +6.6254670     2054.711     5515.918     7092.229     84.25724     168.9864     338.0401      2.789     8.53     997.4249     59.62658     206.9547        44     2.291     1.446 -19.31   0
       416    458.7126    138.7280 307.7442785  +6.6272000      698.867      1393.33      1592.51      84.9297      169.457     338.2756      1.976     5.35     993.9309     59.62658     106.5101         8     1.323     0.611 -50.38   0
       417    354.5685    136.5170 307.7876203  +6.6246317     1833.665     4037.405     5728.031     84.79563     168.9864     338.1411      2.563     8.52     1001.025     59.62658     203.8677        35     2.310     1.145 -21.56   0
       418    109.8868    136.0193 307.8892902  +6.6166428     929.4821     2092.258     2343.911     84.52686     168.9191     338.1411      2.337     7.41     1012.745     59.62658     133.1282        15     1.750     0.878 -24.21   0
       419    999.0153    131.4661 307.5200342  +6.6482023     652.7907     1063.241     1639.178     84.25723     169.0537     338.2084      1.847     3.44     982.8674     59.62658     110.8816         5     0.784     0.435 -21.11   3
       420   1003.1271    129.9123 307.5183772  +6.6489808     974.4963     1522.511     2075.596     84.92969      169.457     338.2756      1.703     5.10     982.6252     59.62658     148.3384         9     1.183     0.622 -45.09   2
       421    668.0930    124.2663 307.6577678  +6.6401624     3425.832     8110.756     10400.97     84.66135     169.3899     338.2756      2.561     8.28       991.71     59.62658     476.9662        46     2.478     1.112 -20.81   0
       422    206.3654    125.3037 307.8495666  +6.6243028     2971.454     7057.687     8754.399      84.9297     169.0537     338.4438      2.576     8.32     1010.362     59.62658     340.4662        48     2.482     1.216 -21.94   0
       423     89.1511    125.2673 307.8982644  +6.6203888     1214.671     2890.732     3523.991     84.66135      169.121     338.3093      2.573     9.38     1013.435     59.62658     165.3802        31     2.501     0.981 -22.45   0
       424    620.5054    121.3444 307.6776368  +6.6397824     5346.983     12390.79     15341.73     84.66135     169.1883      338.511      2.529     7.58     992.0826     59.62658     731.2108        55     2.507     1.208 -20.04   3
       425    623.7386    112.9455 307.6765730  +6.6433598     28865.96     68922.02     84745.91     84.92969      169.121      338.242      2.555     8.12     991.7338     59.62658     3790.308        97     2.627     1.383 -21.43   2
       426    818.3893    123.3407 307.5953525  +6.6455518     720.7523     968.7488     1471.425      84.1221     169.0537     337.9728      1.571     3.53     988.5766     59.62658      137.098         6     0.901     0.474  -1.41   0
       427    347.5408    117.1100 307.7911875  +6.6324134     2061.529     5100.146     6449.406     84.66135     169.1883     338.4101      2.604     8.03     1002.256     59.62658     271.2871        39     2.286     1.196 -24.73   0
       428    530.2696    116.1716 307.7153001  +6.6389078     1026.417     2095.873     2357.713     84.52686     169.1883     338.2084      2.373     7.23      992.774     59.62658     129.1445        17     1.660     0.912 -21.97   0
       429    303.4503    106.5165 307.8098591  +6.6353142     1906.161     4555.901     5949.951     84.79563     169.1883     338.3765      2.685     9.28      1007.92     59.62658     225.9073        36     2.284     1.136 -19.19   0
       430    675.7092     99.8603 307.6554151  +6.6504983     853.0735     1337.525     1878.113     84.66135     169.2555     338.3429      1.904     5.79     990.3762     59.62658     133.0159         9     1.380     0.684 -41.73   2
       431      2.6208     89.2162 307.9354196  +6.6323769     700547.5      1153430      1206481     84.52686     153.0906     276.0498      1.827     6.21     1017.235     59.62658     62566.64       253     1.886     1.513 -77.44  28
       432    688.4698     96.8470 307.6502134  +6.6521684     1721.944     3888.599     4174.793     84.79562      169.121     338.2756      2.348     7.87     990.1917     59.62658     250.5256        33     2.303     1.005 -21.25   0
       433    429.9255     87.9987 307.7579297  +6.6471936      2257.65     5513.351     6940.844      84.1221      168.582     338.1411      2.554     8.00     994.1177     59.62658     306.1331        43     2.488     1.132 -20.76   0
       434    902.5543     83.2104 307.5617142  +6.6649300     2235.521     5014.332     5950.222     84.25724     169.0537     337.9391      2.344     7.83     984.4617     59.62658     357.9783        33     2.319     0.967 -17.50   0
       435    884.6938     84.1534 307.5691041  +6.6639464     1255.918     2495.702     2653.905     84.66135      169.121     338.4101      2.033     8.04     984.8566     59.62658     229.1719        22     2.257     0.801 -21.11   0
       436    595.1494     81.6990 307.6894913  +6.6553136     1046.955     2027.463     2366.961     84.79562     169.1883     338.4438      2.071     7.15     991.2837     59.62658     128.0184        16     1.642     0.872 -21.52   0
       437    395.0247     79.4179 307.7727165  +6.6495714     1095.677      2091.66     2490.688     84.52686     169.0537     338.2084      2.361     5.32     997.3931     59.62658     186.0616        14     1.556     0.689 -10.48   2
       438    141.5141     76.5296 307.8781398  +6.6422770      1839.29     4279.944     4924.705      84.9297      169.457     338.3093      2.483     7.95     1010.793     59.62658      219.297        34     2.066     1.201 -14.67   0
       439     23.1293     74.5100 307.9273916  +6.6391401     6899.256      16905.5     21618.41     84.66135      169.457     338.2756      2.759     8.57     1015.569     59.62658     834.7411        68     2.551     1.340 -22.69   0
       440    291.7673     75.0182 307.8157646  +6.6479345     708.0864     1474.338     2597.505     84.39215     168.9864     338.1411      3.018     5.31     1009.422     59.62658      91.6178         7     1.037     0.767  -4.95   2
       441    824.8579     69.0232 307.5944686  +6.6682054     3601.337     8158.849     9393.851     84.39216     169.1883     338.1074      2.380     8.12     985.4777     59.62658     537.5204        41     2.337     1.019 -20.17   0
       442    770.1403     69.3468 307.6171934  +6.6662498     1885.393     4812.731     6030.234     84.79562      169.121     338.2756      2.630     7.75     987.1819     59.62658     303.9457        31     2.311     0.990 -19.97   0
       443    414.1680     70.4025 307.7650634  +6.6539356     576.6698     1496.473     1743.718     83.98675     168.9864     338.0401      3.117     5.06     995.7577     59.62658     108.6954         6     1.605     0.451 -35.40   0
       444    533.7646     67.2652 307.7154768  +6.6592272     778.0793     1325.889     2036.111     84.66135     169.1883     338.3093      2.848     4.90     991.8182     59.62658     104.9797         9     1.156     0.588 -46.24   0
       445     63.3848     66.4023 307.9109384  +6.6438400     1674.274     4343.807     5024.408     84.39216     168.7843     338.1074      2.702     9.63     1013.556     59.62658     224.1399        36     2.508     1.031 -19.09   0
       446    588.8937     62.2780 307.6927369  +6.6631275      729.363     1485.432     2138.675     84.52686     169.3899     338.3429      2.818     6.53     990.9805     59.62658     103.3793        11     1.483     0.807 -10.75   0
       447      6.2620     61.7642 307.9348259  +6.6438388     1520.005      3836.63     4880.135     84.79562     169.1883      323.596      2.726     8.72     1015.678     59.62658     227.4565        29     2.144     1.019 -22.42  16
       448    765.8987     56.6253 307.6193785  +6.6713637     1210.659     2438.205     3134.883     84.92969     168.9191     338.1411      2.426     5.11     986.6121     59.62658     213.9498        16     1.483     0.935 -15.92   2
       449     79.1820     57.0867 307.9046869  +6.6482180     684.3371     1205.096      1511.43     84.52686     168.9191     338.1411      1.904     6.56     1012.811     59.62658     80.53912         9     1.305     0.926 -44.80   0
       450    102.2377     56.4358 307.8951298  +6.6492602     508.3019     1181.797     1430.801     84.52686     169.0537     338.0401      2.201     4.17     1012.015     59.62658     91.11829         5     1.188     0.419 -13.84   0
       451     91.2033     50.6967 307.8999062  +6.6512608     5009.354     12417.59     15194.96     84.52686     168.8517     337.9391      2.555     8.22     1012.361     59.62658     605.4645        56     2.542     1.248 -23.72   0
       452    420.8292     50.5173 307.7629588  +6.6623725     1402.052     3257.198     3934.178     84.66135     168.9191      338.242      2.511     8.33     996.1882     59.62658      188.168        26     2.173     0.892 -21.75   0
       453    633.8781     42.6484 307.6746990  +6.6727370     9969.904      23905.9     29324.86     84.79562     169.2555      338.242      2.545     7.88     989.9019     59.62658     1235.498        66     2.519     1.278 -21.00   0
       454    258.6507     44.7743 307.8305337  +6.6593189     968.2614     1942.861     3257.149     84.39216     169.2555     338.1747      2.392     6.43     1009.933     59.62658     164.2849        13     1.688     0.689 -18.02   0
       455    533.8073     38.5969 307.7164139  +6.6710712     2850.902     6804.561     8366.578      84.1221     168.8517     338.1074      2.543     8.09     991.2373     59.62658     375.5296        47     2.533     1.155 -22.09   0
       456    259.0301     35.2700 307.8306935  +6.6632577     4528.307     11580.77     16944.46     84.66135     169.1883     338.2084      3.199    12.13     1009.939     59.62658     623.4811        76     3.585     1.281 -27.51   0
       457    439.3540     34.3438 307.7558011  +6.6696727     12164.66     29230.32     35736.54     84.79562     169.1883     338.3429      2.591     7.88     995.2751     59.62658     1533.491        76     2.607     1.336 -19.92   0
       458     25.5589     34.5899 307.9277185  +6.6557114      1337.75     3125.959     4187.725      84.1221     168.9864     337.9728      2.539     8.34     1013.818     59.62658     201.6995        26     2.317     0.884 -19.39   0
       459      2.8125     36.7201 307.9370976  +6.6540680     608.2837     1082.922     1274.185     84.39216     155.5237      279.246      1.414     3.37      1014.46     59.62658     115.5941         5     1.631     0.202 -34.70  24
       460    918.4139     33.7977 307.5567638  +6.6858697     1190.551     1961.827     2177.422     84.39216     168.8517     338.1074      2.075     5.18     981.9764     59.62658     166.6007        15     1.329     0.819 -21.69   2
       461    620.3438     32.5153 307.6806598  +6.6764715      1879.16     4387.448     6072.457     84.79563     169.1883     338.4101      2.579     8.63     989.9266     59.62658     244.7866        34     2.344     1.138 -23.26   0
       462    321.8972     35.0100 307.8045816  +6.6654695     610.1381     1104.064     1718.992     84.52686     168.7843     338.1074      2.119     3.64     1005.867     59.62658     115.4861         5     0.983     0.389 -29.82   0
       463    248.3395     31.1731 307.8352722  +6.6645920     1721.474      3928.36     4825.954     84.39216     169.2555     338.1411      2.456     8.11      1009.94     59.62658     228.1497        32     2.021     1.096 -21.50   0
       464    303.0130     27.9167 307.8126646  +6.6677676     537.2455     837.5883     1048.383     84.39216     168.9191     338.1074      1.704     4.77     1008.228     59.62658     92.96594         5     0.996     0.648  32.40   0
       465    688.9974     23.8477 307.6524216  +6.6823414      989.464     2250.052     2949.693      84.1221     168.8517     337.8381      2.507     7.51     988.1077     59.62658     146.9279        16     1.827     0.865 -24.23   0
       466    744.6323   1019.6534 307.5962331  +6.2728268     530.9048     912.0237     1656.231     84.66135     169.1883     313.7786      1.936     3.61     1025.927     59.62658     105.0885         5     0.740     0.633  37.44  18
       467    749.5022   1018.1970 307.5942595  +6.2735906     830.3903     1475.022     1778.393     84.52686     168.9191     328.3774      1.863     5.70     1025.667     59.62658     127.1208         9     1.605     0.570 -30.66  18
       468    955.4107   1012.8356 307.5089453  +6.2826535     4363.461     9686.085     10816.75     84.25723     168.9864     338.0401      2.314     8.75     1019.486     59.62658     726.3564        38     2.307     0.928 -17.57  16
       469    712.1882   1011.9142 307.6099604  +6.2749435     1655.835     2661.858      3640.71     84.39215     168.9191     338.1074      2.082     4.27       1026.4     59.62658     294.9211        12     1.315     0.688 -48.91   3
       470    716.6132   1010.2948 307.6081770  +6.2757599     2036.924     3313.522     3512.956     84.52686     168.9191     338.1074      1.688     5.09     1026.232     59.62658     340.6313        20     1.501     0.894 -31.17   3
       471    239.9400   1012.7721 307.8059981  +6.2588249     698.8748     1569.713     1329.858     84.39216     169.2555     338.1747      2.263     6.70     1031.645     59.62658     153.5596        13     2.341     0.538 -17.22  16
       472    361.8790   1008.3291 307.7555212  +6.2647377     1352.179     2736.682     2859.447     85.06355      169.457      338.242      2.237     7.80     1031.497     59.62658      212.634        21     2.136     0.798 -21.71   0
       473    748.5289    998.0309 307.5953328  +6.2818888     4957.267     11035.99     12963.75     84.66135     169.1883     338.2084      2.400     9.13     1024.956     59.62658     943.8053        45     2.487     0.936 -20.30   0
       474    544.0275    998.6253 307.6802201  +6.2748281     2709.956     5655.239     6800.687     84.25723     168.9864     338.1411      2.194     8.53     1029.109     59.62658     501.4615        31     2.235     0.910 -19.72   0
       475    515.0082    999.6313 307.6922350  +6.2734443     824.5862     1853.013     2661.662     84.25723     168.9864     338.0401      2.476     8.10     1029.822     59.62658     156.7538        14     2.138     0.858 -15.62   0
       476    294.3169    997.2549 307.7839400  +6.2670538     9573.612     21205.21     25542.87     84.79562     169.1883     338.3765      2.432     9.00     1031.497     59.62658     1468.426        64     2.596     1.099 -21.94   0
