#   1 NUMBER                 Running object number                                     
#   2 X_IMAGE                Object position along x                                    [pixel]
#   3 Y_IMAGE                Object position along y                                    [pixel]
#   4 ALPHA_J2000            Right ascension of barycenter (J2000)                      [deg]
#   5 DELTA_J2000            Declination of barycenter (J2000)                          [deg]
#   6 FLUX_APER              Flux vector within fixed circular aperture(s)              [count]
#   9 FLUXERR_APER           RMS error vector for aperture flux(es)                     [count]
#  12 FLUX_RADIUS            Fraction-of-light radii                                    [pixel]
#  13 FWHM_IMAGE             FWHM assuming a gaussian core                              [pixel]
#  14 BACKGROUND             Background at centroid position                            [count]
#  15 THRESHOLD              Detection threshold above background                       [count]
#  16 FLUX_MAX               Peak flux above background                                 [count]
#  17 ISOAREA_IMAGE          Isophotal area above Analysis threshold                    [pixel**2]
#  18 A_IMAGE                Profile RMS along major axis                               [pixel]
#  19 B_IMAGE                Profile RMS along minor axis                               [pixel]
#  20 THETA_IMAGE            Position angle (CCW/x)                                     [deg]
#  21 FLAGS                  Extraction flags                                          
         1    712.5706     21.0278 307.6452128  +6.6898422     7499.677     11321.31     11212.07      78.2251     156.8258     313.8392      1.576     3.68     830.6479      55.3578     1093.873        35     1.460     1.045  64.12   0
         2    334.3430     19.6931 307.8024149  +6.6777030     918.2206     1758.548     2629.102     78.60028     157.0757     314.2139      2.258     6.56     840.8648      55.3578     122.9424        15     1.733     0.838  64.60   1
         3    432.9267     16.5596 307.7615591  +6.6823090     6346.199     9559.945     10325.41     78.60028     157.1382     314.0891      1.627     3.55     836.4185      55.3578     865.4989        31     1.409     1.040  58.28   0
         4     33.8651     15.9643 307.9273858  +6.6691252     8639.623     13374.78     13938.73     78.60028     157.0133     314.1203      1.619     3.56     841.5891      55.3578     1156.086        37     1.465     1.077  60.53   0
         5    508.5744     13.6442 307.7302253  +6.6860520     881.4816     1404.215     2006.078      78.2251     157.1382     313.9329      1.782     5.18     831.4551      55.3578     110.7068        11     1.396     0.544  49.95   0
         6    329.4914     11.4299 307.8047101  +6.6809509     13186.31     20447.39     21764.81     78.84941     156.8258     313.9954      1.725     3.74     840.9941      55.3578      1710.52        46     1.560     1.166  56.52   0
         7    424.1311     12.3857 307.7653547  +6.6837366     787.2546     1402.392     1726.767      78.2251     157.0133     313.9641      1.871     5.62     837.4092      55.3578     133.5525        13     1.297     1.019  43.58   0
         8    103.1265     11.6167 307.8987565  +6.6732546     2557.035      3846.21     4328.912      78.2251     156.8883     313.9641      1.607     3.78     842.1038      55.3578     357.2017        21     1.351     0.928  68.23   0
         9     94.3818     10.5367 307.9024264  +6.6734058     1466.195     2367.491     2423.646     78.35036     157.0133     313.9329      1.741     4.69     842.0408      55.3578     182.1605        15     1.316     0.758  61.97   0
        10    798.1326     10.3177 307.6100204  +6.6971273     865.3319     1176.896     1135.682     78.84941     157.3253     314.1203      1.554     5.67     829.7354      55.3578     128.5016        10     1.236     0.734  54.49   0
        11    395.6639      9.3317 307.7772862  +6.6840410     2207.037     3303.701     2364.567     78.72495     157.0757     314.1203      1.611     3.66     838.8911      55.3578     329.7638        20     1.304     0.940  56.41   0
        12    656.4500      4.9730 307.6690730  +6.6945900     11032.55     16726.34     17489.54     78.35036     157.2006     287.1443      1.602     3.57     831.0035      55.3578     1548.365        37     1.483     1.044  61.46  24
        13    990.3018      6.4972 307.5302963  +6.7051274     722.4124     884.1729     505.2198     78.72495     157.5122     302.3813      1.456     5.26     824.0853      55.3578     90.42432         8     1.039     0.753  41.54  16
        14    534.0729      4.6820 307.7199328  +6.6906072     1227.941     1898.127     1786.227     78.97368     157.3876     283.8813      1.709     4.73     831.1245      55.3578     195.4691        17     1.477     0.859  57.91  16
        15     74.3872      5.2242 307.9109139  +6.6749248     767.6671      1240.91     1485.234     78.47542     156.8883      289.965      1.791     5.45      841.434      55.3578     132.3252        10     1.234     0.697  52.11  16
        16    820.9875      4.1694 307.6007304  +6.7004300      1626.04     2425.965     2580.544      78.2251     155.6962     277.5585      1.572     4.56     828.9135      55.3578     212.4883        16     1.333     0.773  55.29  16
        17    256.6740      2.1918 307.8352781  +6.6823154     6090.533     8465.949     9074.154     76.96128     136.7864     249.8545      1.518     3.77     841.5038      55.3578     844.0152        29     1.511     1.062   5.28  24
        18    891.4270      2.2799 307.5715241  +6.7035653     1520.685      2217.39     2475.329     77.72204     138.2128     251.3025      1.605     4.80     827.7921      55.3578     205.4937        13     1.159     0.851  49.52  24
        19    418.3216      1.6176 307.7681324  +6.6879865     5026.107     6117.221     6099.124     71.82021     128.9635     241.1059      1.188     3.03     838.2849      55.3578     978.4684        16     1.135     0.715  10.93  24
        20    678.6360      1.3428 307.6599766  +6.6968319     3023.165     3632.479     4042.156     68.32149     124.7898     236.4653      1.067     2.35     830.8734      55.3578     774.3842        12     1.081     0.544   4.31  24
        21    648.4448      1.5366 307.6725152  +6.6957404     5434.694     6424.236     6816.009     70.85799     127.7411     239.5145      1.080     2.68     830.9075      55.3578     1117.484        16     1.170     0.621  10.85  24
        22    115.3270    986.1485 307.8606925  +6.2713752     645.5803     914.8636     797.4964     78.72495     157.1382     314.0891      1.574     5.27      862.482      55.3578     93.56165         8     1.246     0.629  73.11   0
        23    735.1939   1023.3900 307.6020826  +6.2768017     710.8058     927.2402     1031.907     71.68355     128.8874     240.7396      1.219     2.54     862.4841      55.3578     132.4377         7     0.728     0.651   0.80  24
        24    720.2971   1023.4702 307.6082649  +6.2762701     1328.183     1532.613     1901.794     70.99625     128.0477     239.5145      1.181     3.44     862.5363      55.3578     261.0144         9     0.998     0.629 -12.41  24
        25    367.1143   1022.5316 307.7549300  +6.2648200     1885.349     2701.155     3006.474     78.84941     140.7439      254.328      1.665     4.20     865.1039      55.3578     242.5154        15     1.186     0.849  45.07  24
        26    626.5038    985.5537 307.6484827  +6.2887832     902.4302     1239.575     1626.211     78.72495     157.0133     314.2139      1.618     5.74     863.1262      55.3578     124.8561        10     1.213     0.765  45.01   0
        27    766.5503    980.8743 307.5904930  +6.2954021      6453.72     10614.19     11976.94     78.72495     157.1382     314.0891      1.862     3.73      861.086      55.3578     818.2056        43     1.666     1.287  75.61   0
        28    818.4271    982.7610 307.5688901  +6.2963578         2236     3562.453     3693.729     78.35036     156.8884     313.9017      1.747     4.75     860.2786      55.3578     254.9397        21     1.409     1.003  70.71   0
        29    553.0789    980.1992 307.6791485  +6.2885337     922.7385     1532.576      2031.95     77.97398     156.5129     313.8079      1.979     6.44     863.9625      55.3578     148.0316        13     1.459     0.799  69.35   0
        30    235.8932    979.4272 307.8108646  +6.2782055      1368.86     2196.176     2110.082     78.84941     156.8258     313.9017      1.657     4.87     863.4352      55.3578     175.7679        18     1.274     1.126  81.49   0
        31    200.5037    979.2657 307.8255628  +6.2770822     963.6342     1089.817     870.7049     78.72495     157.2006     314.0891      1.404     3.48     863.0836      55.3578     160.2498         9     0.900     0.775  89.50   0
        32     61.0373    978.0195 307.8835066  +6.2729032     2670.568     4394.059     4696.292     78.35036     156.8883     313.8392      1.735     4.04      861.551      55.3578     311.1654        23     1.403     1.000  64.44   0
        33    954.7500    975.9094 307.5125178  +6.3037403      6267.34     10438.48     10700.37     78.72495     156.8883     314.2451      1.753     3.80     857.6093      55.3578     784.1457        36     1.482     1.183  58.41   0
        34    210.6973    971.8162 307.8215825  +6.2805002     569.5135     927.3593     918.7134     78.72495     156.8258     313.8704      1.244     4.34     863.0604      55.3578     84.45068         7     1.305     0.411  64.82   0
        35    636.8333    970.4812 307.6447012  +6.2953515     574.6828     1061.334     1307.694     78.60028     157.0133     314.0578      2.178     4.24     862.6492      55.3578     76.99335         6     1.082     0.474  58.62   0
        36    928.7363    967.7804 307.5235918  +6.3062277     2157.951     3304.403     3472.373     78.35036     157.0757     313.9017      1.639     4.45     857.9921      55.3578     260.0349        20     1.385     0.912  51.02   0
        37    649.4216    963.5615 307.6397074  +6.2986296      4559.11     7276.167     7970.979     78.35036     156.8258     313.8392      1.778     4.13     862.3375      55.3578     580.7931        29     1.495     1.029  59.46   0
        38    788.1185    964.0306 307.5821039  +6.3030769     1132.306     1919.055     2187.798     78.60028     156.9508     314.0578      1.883     5.76     860.2922      55.3578      160.899        13     1.319     0.708  62.07   0
        39    261.5177    963.5490 307.8007624  +6.2856216     4557.199     6989.639     7182.987     78.72495     157.0757     314.0891      1.709     3.92     863.6525      55.3578     567.0788        26     1.385     1.011  59.89   0
        40    999.1750    962.6217 307.4945176  +6.3107086     573.4868     957.8775     1245.316     78.35036     156.8883     313.9954      1.578     3.66     856.2913      55.3578     105.9195         5     1.033     0.374  85.90   0
        41    471.4668    961.6845 307.7136572  +6.2934406     1150.023     1891.817     2113.475     78.84941     157.3253     314.1203      1.871     4.56     864.3683      55.3578      180.022        13     1.284     0.734  56.31   0
        42     30.2162    960.9728 307.8968795  +6.2789020     2164.312     3639.501     3842.489     78.35036     156.8883     313.9641      1.842     3.97     860.9761      55.3578     297.8715        22     1.273     1.092  50.89   0
        43    881.1118    959.6624 307.5436387  +6.3079884     864.9868     1351.028     1700.109     78.72495     157.2629     314.1203      1.829     6.63      858.926      55.3578      134.646        12     1.189     1.039  55.61   0
        44    952.4412    957.1735 307.5141051  +6.3113980     746.0378     1259.081     1509.046     78.35036     156.8883     313.9017      1.842     5.22     857.2064      55.3578     93.50555         9     1.378     0.558  46.30   0
        45    297.3326    957.2683 307.7861049  +6.2894179     783.2137     1266.645     1565.952     78.72495     157.1382     314.0891      1.857     3.89     864.0475      55.3578     115.9431         8     0.903     0.664  65.94   0
        46   1005.0175    956.5407 307.4922956  +6.3134140     704.4394     1312.256     1464.935     78.35036     156.9508     313.8079      1.887     3.88     855.9912      55.3578     92.02515         8     0.848     0.667  86.64   0
        47    573.9926    956.0055 307.6712801  +6.2992223     1808.993     2693.966     2878.692     78.09964     156.8883     313.9017      1.515     3.73     863.3671      55.3578      244.765        18     1.332     0.842  45.07   0
        48    613.1925    952.4933 307.6551224  +6.3019855     1337.279     2191.955     2589.175     78.35036     156.7633     313.8704      1.849     4.66      862.717      55.3578     166.2176        17     1.301     0.916  53.58   0
        49    293.4226    949.9793 307.7879744  +6.2922955     1613.428     2464.029     2628.487     78.47542     156.8883     313.9954      1.704     5.06     863.8778      55.3578     185.3082        18     1.275     1.061  36.95   0
        50    561.0310    948.6006 307.6769112  +6.3018449      596.446     766.4919     513.8283     78.09963     156.8883     313.8704      1.553     5.72     863.4603      55.3578     113.6215         7     1.071     0.862  25.65   0
        51    760.1437    946.2411 307.5943173  +6.3094853        811.9     1345.781     1349.764     78.60028     157.0757     314.0891      1.662     4.48     860.5306      55.3578     107.2428         8     1.069     0.534  54.69   0
        52    897.5575    942.8096 307.5373760  +6.3154951     6843.563     11094.15     11468.37      78.2251     156.8883     313.8079      1.748     3.85     858.1313      55.3578     821.9269        38     1.547     1.145  61.06   0
        53    135.9634    944.3459 307.8535390  +6.2893262     675.5389     942.3619     980.0897     78.60028     157.0757     314.0891      1.571     5.39     862.2165      55.3578     134.4428         7     1.333     0.615  13.48   0
        54    433.4071    940.0290 307.7301897  +6.3011036     2053.404     3436.139     3558.017      78.2251     156.8883     313.8704      1.811     4.14     863.7174      55.3578     282.6949        20     1.284     1.057  69.93   0
        55    335.1252    938.2191 307.7710570  +6.2985513     9349.298     14766.08     15751.81     78.35036     156.9508     313.9954      1.669     3.71     864.2164      55.3578     1225.124        40     1.501     1.125  55.39   0
        56     62.7302    953.1299 307.8836462  +6.2832347     790.1962     1040.194     869.2661     78.72495     157.2006     314.0266      1.470     3.52      861.395      55.3578     118.7294         7     0.896     0.729  52.97   0
        57    255.1598    937.2151 307.8042918  +6.2962788     7069.227     10946.83     11642.29      78.2251     156.8883     313.8392      1.644     3.65     863.0947      55.3578     996.0979        34     1.427     1.104  62.39   0
        58    583.4175    931.8987 307.6681787  +6.3094899     1217.807     1802.828     1745.567     78.72495     156.8883     313.8392      1.646     4.20     862.8355      55.3578     171.2762        12     1.200     0.755  54.19   0
        59    767.7603    931.3744 307.5916546  +6.3158775     705.6576     951.1805     657.5525     78.35036     156.8884     313.8392      1.396     4.39     860.0455      55.3578      138.756         8     1.153     0.773  53.04   0
        60    913.4185    927.9457 307.5312891  +6.3221611      1189.44      1708.46      1815.51      78.2251     157.0757     313.8392      1.579     5.46     857.4299      55.3578     145.3216        12     1.174     0.725  53.21   0
        61    146.2214    927.9736 307.8498339  +6.2964300     501.7983     827.0749     917.3809      78.2251     156.8883     313.9954      1.995     4.82     862.1932      55.3578     76.34937         5     0.954     0.689  62.11   0
        62    869.8326    926.4233 307.5494382  +6.3213336     786.3674     1480.655      1578.46      78.2251     156.8883     313.8704      2.089     6.37     858.3821      55.3578      130.989         8     1.182     0.965  87.07   0
        63    411.8855    925.9567 307.7396001  +6.3061906     779.6787       1198.2     1164.044     78.72495     156.9508     314.0578      1.550     6.21     863.5311      55.3578     110.4111        10     1.141     0.949  19.73   0
        64    217.6509    927.2478 307.8202019  +6.2991324     541.1483     948.5532     1345.659     78.84941     156.9508     314.0578      2.122     4.23     862.5402      55.3578     86.04681         6     0.746     0.684  11.46   0
        65    980.5161    923.6364 307.5035729  +6.3261803     664.8243     1209.989     1247.035     78.72495     157.0757     314.0266      2.104     5.81     855.6542      55.3578     85.12872        11     1.284     0.739  49.80   0
        66    573.1172    921.9689 307.6727900  +6.3132440     676.3218     864.6764     769.4891     78.72495     156.8883     313.9329      1.512     4.42       862.77      55.3578     136.4896         8     1.439     0.608  39.84   0
        67    749.7237    921.1057 307.5994889  +6.3195134     1749.937     2929.269     3466.795     78.47542     157.2629     314.0578      1.786     4.58     860.2017      55.3578     224.8037        19     1.356     0.990  58.38   0
        68    842.5214    921.5815 307.5609411  +6.3224198     640.7274     949.0551     804.0654      78.2251     156.7633     313.9954      1.473     3.71     858.6173      55.3578     119.9531         6     0.921     0.430  17.29   0
        69      1.1678    918.1984 307.9103881  +6.2955808     455.6789     861.2427     922.2226     65.38785      121.928     233.3343      1.507     4.01     860.6852      55.3578     104.6857         6     1.285     0.357  84.92  24
        70    981.1460    916.7553 307.5035422  +6.3290420     1246.903     2189.084      2296.81     78.72495     157.0757     314.0891      1.972     4.70     855.4377      55.3578     153.7475        15     1.292     0.907  67.76   0
        71    613.4727    917.4740 307.6561852  +6.3164517     797.5725     1501.965     1496.999     78.97369     157.2629     314.1203      2.074     6.38     861.9664      55.3578     110.3891        12     1.445     0.791  47.90   0
        72    534.5387    916.5231 307.6889917  +6.3141992     1295.767      1732.58     1197.533     78.97369     157.1382     314.0578      1.534     5.52     863.1375      55.3578     161.6535        12     1.181     0.743  50.78   0
        73    668.2235    914.3023 307.6335584  +6.3195945     2508.202     3922.764     3945.375     78.84941     156.8258     313.9017      1.672     3.99     861.3389      55.3578     321.7701        20     1.315     0.985  61.97   0
        74   1018.9310    913.8052 307.4879515  +6.3315208     705.0223     965.5361     1238.054      78.2251     156.7007     298.3986      1.683     3.93     854.3007      55.3578     115.7648         6     1.048     0.543 -22.34  16
        75     64.8956    910.3436 307.8841956  +6.3009701     2888.062     4568.691     4942.812     78.60028     157.0757     314.2451      1.755     4.11      861.104      55.3578     358.2086        25     1.411     1.068  67.19   0
        76    946.0236    909.6685 307.5183639  +6.3307953     929.3133     1386.231     1223.219     78.35036     157.0133     314.0266      1.604     5.43     856.2122      55.3578     117.4827        11     1.239     0.672  76.59   0
        77    829.0643    910.3668 307.5669057  +6.3265997     980.2983     1560.453     2111.825     78.60028     157.0757     314.0266      1.721     6.00     858.4453      55.3578     142.6648        13     1.229     0.823  83.69   0
        78    208.4299    909.2026 307.8246404  +6.3062715     2193.622     3379.788     3312.796      78.2251     156.8883     313.8704      1.628     3.86     862.4559      55.3578     315.3907        19     1.341     0.863  73.11   0
        79     82.2600    909.5920 307.8770116  +6.3018651     2019.658     2994.604     2740.891     78.09964     156.8884     313.8079      1.605     3.41     861.2234      55.3578     271.8663        18     1.208     0.914  61.59   0
        80    662.8289    903.3935 307.6361654  +6.3239173      6914.68     10338.89     10804.68      78.2251     156.8883     313.8704      1.611     3.73     861.2399      55.3578     858.5306        29     1.417     0.984  58.97   0
        81    347.3444    905.2861 307.7670954  +6.3125569     945.2198     1443.584     2213.627     78.72495     157.0757     314.2139      1.686     3.04     863.8053      55.3578     157.1833         8     0.901     0.617  70.87   0
        82    242.6888    906.0216 307.8105237  +6.3087366     803.4028      1111.34     792.5781     78.72495     156.8883     313.9641      1.541     4.17     862.7561      55.3578      125.584         7     0.897     0.552  63.83   0
        83    800.5320    904.2019 307.5789603  +6.3281909     787.2042     1070.509     754.6189     78.09964     156.6381     313.8704      1.643     4.86     858.5867      55.3578     125.5294        10     1.004     0.989 -87.81   0
        84     22.6821    901.5079 307.9020211  +6.3031956     1102.579      1680.68      1889.68     78.47542     157.3876     314.1203      1.648     3.88     860.7711      55.3578     158.1945        13     1.225     0.768  59.16   0
        85    900.5870    899.7077 307.5375651  +6.3333900     2790.762     4327.178     3839.576     78.47542     156.8258     313.8392      1.701     3.97     857.0611      55.3578     356.7721        23     1.337     1.051  58.69   0
        86     35.8646    900.1360 307.8965944  +6.3042060     1070.634     1689.238     1445.707     78.72495     157.0757     314.0891      1.580     4.75     860.8477      55.3578     161.3041        13     1.284     0.742  55.38   0
        87    345.8159    896.4835 307.7680272  +6.3161394     16784.31      25469.9     27225.45     78.35036     156.7633     313.9641      1.656     3.62     863.6118      55.3578      2071.34        45     1.496     1.124  59.75   0
        88     80.4397    897.5162 307.8781761  +6.3067887     1385.999     2074.116     2543.276     78.72495     157.0133     313.9954      1.629     4.27     861.1252      55.3578     197.6375        15     1.309     0.776  61.07   0
        89    216.7810    895.8915 307.8216230  +6.3120474     1334.107     2125.815     1797.671     78.60028     156.8258     313.9329      1.696     5.27     862.4891      55.3578     163.7852        17     1.519     0.857  68.39   0
        90    396.8449    895.9733 307.7468567  +6.3180635      542.142     792.3926     1028.024      78.2251     157.1382     313.9641      1.587     3.95     863.3616      55.3578     84.86877         6     0.922     0.483  55.64   0
        91    675.3806    888.3845 307.6314587  +6.3305337     541.7212     968.0629     1212.046     78.47542     156.8258     313.9641      1.673     4.43     860.9432      55.3578     79.93628         6     1.416     0.395  50.32   0
        92    109.1404    887.0720 307.8666133  +6.3120665     1769.512     2865.999     2987.855     78.84941     157.0757     314.0578      1.775     4.65     861.2919      55.3578     222.3627        17     1.436     0.805  66.31   0
        93    423.4980    887.4446 307.7360777  +6.3224789     986.1057     1528.653      1086.65     78.72495     157.0133     314.2763      1.711     5.45     863.1219      55.3578     117.5499        10     1.093     0.766  55.09   0
        94    890.9727    881.4329 307.5421710  +6.3406132     1941.149     3197.045     2752.569      78.2251     156.8258     313.8392      1.731     4.26     856.8029      55.3578     263.5857        23     1.469     0.982  71.41   0
        95    677.3694    883.9511 307.6307821  +6.3324304     890.0502     1087.921     1076.416     78.35036     157.1382     313.9641      1.303     4.11     860.8482      55.3578     147.2146         8     1.063     0.543  37.90   0
        96    504.4266    884.3580 307.7025788  +6.3264680      640.656     1203.524     1060.363     78.35036     157.0757     313.9017      2.054     4.15     862.5192      55.3578      103.444         7     0.880     0.678  18.93   0
        97     92.7540    880.7120 307.8736320  +6.3141403     2417.678     3801.939     4167.752     78.72495     156.9508     314.0578      1.682     4.13     861.0822      55.3578      314.985        22     1.522     0.889  58.80   0
        98    861.5787    880.8989 307.5543945  +6.3398516      1957.15     2873.909     2367.481     78.60028     156.8883     313.8392      1.569     3.97     857.3107      55.3578     265.4066        20     1.445     0.883  51.99   0
        99    825.0870    880.2756 307.5695682  +6.3388893     2894.066     4503.694     4574.125     78.72495     157.3876     314.1203      1.627     3.59     857.6974      55.3578     387.7611        23     1.321     1.008  58.82   0
       100    560.9059    871.7157 307.6795532  +6.3335804       337996     514321.9     538677.9     78.60028     157.4499     314.1827      1.618     3.77     861.4879      55.3578     44494.02       172     1.705     1.308  58.38   0
       101    455.3932    878.8435 307.7231244  +6.3270998     519.0767     928.2762     1164.563      78.2251     156.8258     313.7767      1.713     4.15     862.8556      55.3578      107.546         5     1.430     0.344  48.08   0
       102    405.1976    874.3645 307.7441176  +6.3272643     7621.984     11685.69     12277.41     77.84811     156.8883     313.8704      1.645     3.88     863.0732      55.3578     998.4781        34     1.473     1.057  54.99   0
       103    348.3756    872.7118 307.7677669  +6.3260387     12702.82     19499.63     20597.98     78.72495     156.8884     313.9329      1.679     3.69      863.145      55.3578     1620.737        43     1.529     1.116  56.71   0
       104    648.3027    874.9503 307.6431544  +6.3351730     1120.943     1782.667     2113.481     78.60028     157.0133     314.2139      1.964     4.77     860.8914      55.3578     183.8329        11     1.341     0.658  12.92   0
       105    899.2808    867.9147 307.5391750  +6.3464715     5214.335     8156.098     8767.654     78.47542     157.3876     314.1515      1.634     3.60     856.3527      55.3578     698.5493        31     1.437     1.069  57.50   0
       106    666.7285    868.9315 307.6357060  +6.3382747      3517.06      5297.78     5323.458     78.72495     157.2006     314.0266      1.613     3.78     860.7737      55.3578     460.8687        21     1.356     0.904  52.08   0
       107    738.3389    866.0105 307.6060689  +6.3418772     773.7053      1264.72     1248.453     78.09963     156.9508     313.8079      1.683     4.52     858.9141      55.3578     121.2082         7     0.943     0.731 -48.65   0
       108    641.6406    863.1182 307.6463191  +6.3398345     3301.219     4934.056     5028.961     78.72495     157.0757     313.9954      1.600     3.63     860.6425      55.3578     430.3474        22     1.306     0.950  64.05   0
       109    830.0979    862.2116 307.5680944  +6.3465141     1589.082     2327.883     2336.356     78.47542     156.8258     313.8392      1.549     4.86     857.2032      55.3578     215.6974        18     1.466     0.896  57.23   0
       110    631.7925    862.0639 307.6504438  +6.3399399     1144.723     2083.264     2342.577      78.2251     156.7633     313.9017      1.830     4.38     860.6044      55.3578      154.262        14     1.323     0.804  42.10   2
       111    634.6800    857.6151 307.6493946  +6.3418732     2161.732     3322.267     3699.669     78.35036     156.8258     313.8704      1.640     3.89     860.4398      55.3578     268.9959        18     1.303     0.896  63.67   2
       112    184.2778    862.2927 307.8362543  +6.3248241     562.4745     764.4225     937.0722     78.47542     157.2629     314.0891      1.490     5.51     861.9313      55.3578     89.53217         8     1.229     0.698  43.38   0
       113    957.2787    861.4907 307.5153071  +6.3510603     787.1419     1199.647     1319.211     78.47542     157.3253     314.1203      1.654     3.76      854.675      55.3578     121.1709         9     0.965     0.693  47.06   0
       114    918.0715    855.7557 307.5317804  +6.3521187     3062.954     4944.965     4935.531     78.60028     157.0757     314.0891      1.704     3.85     855.8207      55.3578     414.2866        26     1.393     1.042  53.72   0
       115    328.6165    856.6004 307.7765152  +6.3320260     871.2527     1300.615     1250.763     78.35036     156.6381     313.7454      1.691     4.70     862.8915      55.3578     136.3473         8     1.072     0.627  67.44   0
       116    376.3424    851.5689 307.7568682  +6.3357060     2681.973     4072.728     4363.337     78.60028     157.0757     313.9954      1.635     4.11     862.6511      55.3578      379.943        22     1.421     0.954  56.63   0
       117    512.5237    841.4080 307.7006644  +6.3444701     3251.036     4866.966     4775.527     78.35036     156.5755     313.8392      1.664     4.05     860.8859      55.3578     464.5244        22     1.364     0.937  59.19   0
       118    344.8023    843.4416 307.7702388  +6.3380019     414.0039     579.1131     567.2936     78.09964     156.8258     313.7767      1.278     4.22     862.7041      55.3578     76.71075         5     0.813     0.698  63.00   0
       119    857.2874    840.4190 307.5575362  +6.3564195     1014.949     1649.656     1760.941     78.47542     156.8258     313.9329      1.755     4.41     856.5377      55.3578     171.3464        12     1.306     0.656  78.87   0
       120    577.6147    839.1580 307.6737119  +6.3475809     858.5694      1345.19     985.0094     78.09964     156.8883     313.8079      1.688     3.53     860.0748      55.3578     125.6742         8     1.006     0.645  55.09   0
       121    559.2717    837.4976 307.6813846  +6.3476516     6157.149     9028.107      9205.77     78.60028     157.2006     314.0578      1.568     3.68     860.2173      55.3578     835.4754        29     1.425     0.999  63.68   0
       122    566.2631    836.9284 307.6785007  +6.3481209     1250.805     1984.191     1949.369     78.72495     157.0757     314.1203      1.650     4.34     860.1362      55.3578     182.8893        17     1.376     0.880  57.30   0
       123    270.9237    837.7371 307.8011076  +6.3378745     717.8481     1022.804     882.2126     78.97368     157.0757     314.0266      1.524     4.52     862.5943      55.3578     102.1502         8     0.921     0.753  73.69   0
       124    477.1731    836.2927 307.7155156  +6.3453962     1622.168     2750.773     2857.032     78.84941     156.8258     313.9017      1.802     4.47     861.0211      55.3578     238.7637        17     1.343     0.931  52.21   0
       125    894.8871    835.5417 307.5420865  +6.3596892     1422.466     1984.203     1431.573     78.72495     157.0757     314.1827      1.580     4.66     855.8702      55.3578     187.5834        13     1.085     0.835  61.00   0
       126    118.6873    835.5069 307.8643942  +6.3336743     1334.522     2013.958     2114.532     78.72495     157.5122     314.1515      1.590     4.22     860.7887      55.3578     198.4418        13     1.158     0.731  52.53   0
       127    694.8021    834.3068 307.6252138  +6.3535084     847.5369     1388.825     904.2263      78.2251     156.7633     313.7454      1.553     3.94     858.9452      55.3578     153.7589         6     0.764     0.615  50.55   0
       128    530.0331    831.3787 307.6937318  +6.3491975      19845.2     30486.55     31503.29      78.2251     156.8883     313.8704      1.646     3.71     860.2823      55.3578     2536.738        47     1.504     1.124  60.53   0
       129    943.6981    829.8490 307.5220084  +6.3636696     3517.766     5549.331     5206.923     78.72495     157.0133     314.2451      1.670     3.69     854.6815      55.3578       461.05        29     1.456     1.085  58.77   0
       130    856.8392    846.7798 307.5575086  +6.3537786     567.1937      1023.98     800.2622     78.35036     156.8883     313.8079      1.815     4.06     856.6489      55.3578     77.86737         6     1.331     0.354  85.62   1
       131    416.0044    826.5967 307.7412421  +6.3473464     513.3704     696.7326     657.5811     78.09964     156.6381     313.9017      1.284     3.64     861.2404      55.3578     128.0051         5     1.002     0.523  77.14   0
       132     40.5976    821.9807 307.8972758  +6.3366283     1618.435     2207.041     2146.633     78.35036     156.6381     313.8079      1.460     4.06     859.8497      55.3578     212.4984        16     1.310     0.804  66.53   0
       133    322.5991    820.0162 307.7802492  +6.3469264     3374.338     5185.781     5541.109     78.35036     156.6381     313.7767      1.645     3.82     862.5218      55.3578     489.5317        22     1.346     0.953  73.99   0
       134     22.7147    818.2643 307.9048268  +6.3375600     2319.475     3798.239     4180.291     78.84941     157.2006     314.0891      1.769     4.01     859.6797      55.3578     317.8021        22     1.376     1.051  63.43   0
       135    788.1964    816.0110 307.5870469  +6.3641861     54826.93     84067.09     87497.91     78.35036     156.7633     313.9641      1.625     3.75     857.1453      55.3578     7588.032        71     1.561     1.174  58.73   0
       136    726.9985    817.7715 307.6124005  +6.3614121     760.8348     1104.379     783.4623      78.2251     156.8258     313.8392      1.442     4.60     857.8922      55.3578     97.23541         8     1.029     0.583  63.37   0
       137    245.2920    813.6559 307.8125643  +6.3469539     5144.762     8594.146     11421.85     78.60028     156.9508     314.1827      2.154     4.15     861.9486      55.3578     684.3745        41     1.722     1.144  62.12   0
       138    431.6187    814.6354 307.7351620  +6.3528083     948.0546     1483.461     1727.735      78.2251     156.8884     313.8392      1.735     4.46      860.486      55.3578     155.4924        11     1.140     0.701  63.62   0
       139    913.4513    811.2516 307.5351931  +6.3703371     8545.142     13261.47     13968.47     78.84941     156.9508     314.0578      1.688     3.80     855.1614      55.3578      1132.09        34     1.518     1.036  59.66   0
       140    716.4871    810.7379 307.6170020  +6.3639641     21880.09     33136.49     35334.02     78.72495     157.2629     314.0578      1.655     3.72     857.8334      55.3578     2887.753        46     1.555     1.069  66.17   3
       141    710.1617    807.0788 307.6197518  +6.3652629     88066.83       134605     142861.6     78.60028     157.1382     314.0578      1.637     3.67     857.7759      55.3578     12561.43        94     1.666     1.218  57.60   3
       142    355.0039    807.8828 307.7672033  +6.3530238     20267.46     31515.05     33462.64      78.2251     156.7007     313.7767      1.634     3.79     862.1626      55.3578     2771.245        50     1.520     1.156  59.84   0
       143    416.8814    805.7567 307.7415810  +6.3559790     22447.63     34209.17     35770.16     78.72495     157.0757     314.0266      1.638     3.73     860.2499      55.3578     2933.859        52     1.503     1.179  58.15   0
       144    404.2956    808.1397 307.7467268  +6.3545728     1518.234     2138.507     2198.844     78.60028     157.0757     314.1515      1.487     3.58      860.724      55.3578     211.9674        16     1.251     0.768  62.45   0
       145    643.9214    807.5180 307.6472437  +6.3628640     887.0242      1276.26     1726.095     78.84941     157.3253     314.2139      1.459     4.75     858.3546      55.3578     113.2437        11     1.027     0.861 -53.51   0
       146    244.8931    792.1616 307.8134564  +6.3558135     776527.1      1790208      1979663     78.84941     157.0133     314.1203      2.282     5.80     861.4572      55.3578     64015.45       680     2.602     2.140  51.33   4
       147    954.1281    804.9014 307.5185146  +6.3743169     1942.203     3040.794     2543.225     78.47542     157.2006     314.0578      1.655     4.38     853.9589      55.3578     240.1962        19     1.345     1.009  53.23   0
       148    910.4306    802.6675 307.5367357  +6.3737799     6848.028      10789.9     11532.55     78.47542     157.0757     314.0266      1.745     3.86     855.0789      55.3578     862.7939        36     1.556     1.055  61.17   0
       149    882.8000    803.6301 307.5481775  +6.3724595     661.1164     983.2572      1243.39     77.97398     156.8258     313.8392      1.417     5.26     855.5404      55.3578     118.7983         9     1.308     0.597  37.59   0
       150    651.0142    801.6375 307.6444963  +6.3655291     6720.081     10134.65     10543.45     78.35036     156.8883     313.8079      1.607     3.67     858.0712      55.3578     901.2986        33     1.466     1.048  59.66   0
       151    439.6698    799.6222 307.7323253  +6.3592762     1758.959     2624.371     2588.594     78.35036     157.0133     314.0266      1.645     3.62     859.6934      55.3578     231.3667        16     1.158     0.886  79.81   0
       152    391.5961    801.2305 307.7522333  +6.3569987     435.9189     666.6102     945.2247      78.2251     156.9508     313.8392      1.284     3.49     860.8428      55.3578     73.14569         5     0.763     0.460 -73.77   0
       153    164.4041    798.5923 307.8466606  +6.3504516     825.7316     1243.007      1178.96     78.09964     156.7633     313.9017      1.650     5.79     861.2922      55.3578     116.9387        10     1.100     0.858  76.35   0
       154    879.2364    793.6923 307.5499911  +6.3764431     867.4338      1195.26     746.5463     78.84941     156.9508     314.0891      1.431     4.79     855.3291      55.3578     117.2292        10     1.104     0.848  60.23   0
       155    686.0784    791.8022 307.6302666  +6.3707633     2494.505     4052.525     4024.761     78.09964     156.5755     313.8392      1.675     4.16      857.606      55.3578     344.5217        24     1.492     0.944  59.81   0
       156    603.9418    793.7529 307.6643089  +6.3672073     964.8451     1599.894     2209.745     78.72495     157.0757     314.1827      1.694     4.55     858.1407      55.3578     134.5828        10     1.000     0.713  55.54   0
       157    419.8186    788.4272 307.7409461  +6.3632315     54031.89     82554.47      87078.2     78.35036     156.8883     313.9641      1.662     3.66     859.6993      55.3578     6911.982        78     1.565     1.262  59.38   0
       158    155.0377    792.4510 307.8507575  +6.3526716     965.6552     1399.791     1434.678     78.47542     156.9508     314.0266      1.644     4.40     860.8733      55.3578     153.5262        11     1.160     0.709  41.47   0
       159    130.1842    792.2606 307.8610838  +6.3519138     1105.173     1709.038     1120.572      78.2251     157.0133     313.8079      1.660     5.63     860.3201      55.3578     136.4237        11     1.157     0.772  55.70   0
       160    962.4283    790.6406 307.5155463  +6.3804814     671.0135     1028.327     864.5221     78.35036     156.8258     313.9017      1.655     5.55     853.3077      55.3578     96.84387         7     1.088     0.799  49.72   0
       161    537.6064    787.5031 307.6920657  +6.3675642     7277.403      10862.2     11106.37     78.47542     156.7007     313.8392      1.657     3.83     858.6268      55.3578     936.3845        30     1.427     1.012  54.27   0
       162    454.4163    786.0455 307.7266598  +6.3653758     4555.131     6934.501     7990.468      78.2251     156.9508     313.8392      1.670     3.59     859.1753      55.3578     642.3649        26     1.389     0.967  60.00   2
       163    450.9071    779.3370 307.7283433  +6.3680274     2420.659     3887.127     4410.564     78.72495     157.0757     314.1203      1.770     3.81     859.0526      55.3578     304.5641        23     1.345     1.026  50.33   2
       164    782.7866    784.1791 307.5903635  +6.3771462     11788.88     17745.24     18378.27     78.47542     156.7633     313.9641      1.600     3.61     856.4952      55.3578      1488.15        38     1.471     1.059  53.09   0
       165     12.1118    780.2004 307.9105187  +6.3529156     1252.481     1928.629     1831.707     77.97398     156.5755     313.7142      1.584     3.97      859.168      55.3578     205.9857        14     1.195     0.860  67.11   0
       166    804.4627    778.5048 307.5815528  +6.3802137      1312.49     1930.449      2186.75     78.60028     157.2006     314.0891      1.768     5.29     856.1718      55.3578     151.9855        17     1.287     0.948  52.19   0
       167    148.6025    776.1818 307.8539800  +6.3591711      2940.82     4620.127     4973.035     78.35036     156.6381     313.8392      1.732     3.80     860.1694      55.3578     375.2216        25     1.508     0.945  60.54   0
       168    132.8614    766.8809 307.8608309  +6.3624808     1912.274     3133.304     3612.448     78.84941     157.0757     314.0266      1.840     4.47      859.655      55.3578     255.0393        23     1.527     0.971  69.02   3
       169    140.5760    776.0220 307.8573183  +6.3589670     11696.25     18093.49     19496.77     78.35036     156.8883     314.0266      1.633     3.59     860.0439      55.3578     1621.067        43     1.459     1.185  54.96   3
       170    132.7001    773.3647 307.8606785  +6.3597988     3038.067     4633.005     5078.819     78.72495     156.9508     314.2139      1.731     4.14     859.8306      55.3578     389.8333        23     1.496     0.882  54.80   3
       171    928.2616    772.5891 307.5303409  +6.3867928      6348.66     9758.129     10578.63     78.09964     156.8884     313.8392      1.657     3.90      853.748      55.3578     795.2587        32     1.496     1.030  61.60   0
       172    977.4308    772.5740 307.5099224  +6.3884406     1409.916     2214.235     2224.115      78.2251     156.8884     313.9017      1.570     4.61     852.2636      55.3578     194.4545        17     1.521     0.755  46.02   0
       173    683.8730    770.3989 307.6319027  +6.3795253     1773.359     2835.636     3316.576     78.09964     156.5755     313.9329      1.732     4.30     857.1559      55.3578     224.9747        18     1.360     0.860  47.40   0
       174    570.6868    769.6350 307.6789308  +6.3760494     2457.898     3756.348     3606.813     78.72495     156.9508     314.0578      1.616     3.96     857.8658      55.3578     317.2766        20     1.400     0.848  64.45   0
       175    418.6538    768.9684 307.7420863  +6.3712253     1210.913      1884.61     2406.511     78.60028     157.1382     313.9954      1.696     4.80     859.3053      55.3578     168.8704        13     1.281     0.744  77.62   0
       176    702.1938    768.1220 307.6243713  +6.3810786     579.1718     823.3525     734.8118     78.35036     156.5755     313.8392      1.456     3.91     856.8605      55.3578     98.98346         5     0.983     0.446  43.17   0
       177    952.1574    764.3533 307.5206939  +6.3909906     3082.377     4588.458     5606.886     78.72495     157.0757     313.9954      1.660     4.00     852.7253      55.3578     444.5712        25     1.509     0.947  56.26   0
       178    922.5228    764.6829 307.5329895  +6.3898650     2992.926     4520.383       5061.2     78.84941     157.3876     314.1827      1.686     4.01     853.5562      55.3578     360.1897        22     1.460     0.947  59.45   0
       179    982.9972    764.0094 307.5078982  +6.3921622     1836.927     2742.617     2787.169     78.09964     156.7633     313.9017      1.511     3.85     851.8062      55.3578      255.137        18     1.304     0.871  60.40   0
       180    674.7228    763.8437 307.6359231  +6.3819252     1544.527     2152.545      2167.45     78.60028     157.0757     314.0891      1.564     4.57      857.159      55.3578     208.8101        13     1.214     0.740  55.48   0
       181    822.0972    762.3666 307.5747720  +6.3874655     1077.554     1486.641      1033.37     78.72495     156.9508     314.1827      1.493     3.87     855.3636      55.3578     181.5721         9     1.120     0.641  46.58   0
       182    897.6418    759.7740 307.5434870  +6.3910605     845.0707     1138.085     1226.286     78.35036     157.0133     313.9017      1.581     5.49     853.8585      55.3578     107.6263        10     1.147     0.740  31.11   0
       183    247.5141    758.9311 307.8134912  +6.3696196      1903.11     3077.812     4197.658     78.84941     157.3253     314.0891      2.013     4.21     860.3657      55.3578     260.3984        18     1.219     0.946  63.56   0
       184    684.7767    756.1911 307.6320056  +6.3854210     613.4893      1137.12     1518.311     78.35036     156.8258     313.9329      2.132     3.45     856.8403      55.3578     88.98651         5     0.988     0.348  45.09   0
       185    163.5494    754.7844 307.8484973  +6.3685072     757.7329     1322.923     1330.632     78.09964     157.1382     313.7767      1.646     6.01     859.5349      55.3578      130.501        10     1.464     0.694  44.77   0
       186    940.2499    754.4929 307.5259699  +6.3946638     1058.882     1414.548     1322.385     78.60028     156.9508     314.2139      1.630     5.27     852.7337      55.3578     133.5572        11     1.258     0.624  44.69   0
       187    267.7502    754.4113 307.8052410  +6.3721658      769.606     1106.872     1301.775     78.09964     156.9508     313.7454      1.724     5.17     860.2894      55.3578     112.2755         8     1.114     0.679  36.33   0
       188    967.0272    752.0588 307.5149313  +6.3965627     2394.435     3753.637     4030.204     78.35036     157.1382     313.9329      1.698     3.61     851.8959      55.3578     340.9718        23     1.418     0.942  63.99   0
       189    914.4883    753.2372 307.5367104  +6.3943218     1097.758      1498.41     1457.523     78.72495     156.9508     314.0578      1.587     4.66     853.3077      55.3578     153.9972        11     1.221     0.676  60.22   0
       190    686.7195    751.2203 307.6313661  +6.3875381     880.1195     1419.696     1764.475     78.47542     156.7633     314.0266      1.873     5.83     856.6995      55.3578     124.5723        10     1.188     0.806  64.77   0
       191   1008.7784    745.6495 307.4978075  +6.4006021     1639.427     2376.245     2425.041      78.2251     157.1382     313.9329      1.621     4.06     850.5333      55.3578      213.277        16     1.273     0.842  45.25   0
       192    407.0744    745.9503 307.7476715  +6.3803389     653.6169     874.9431     768.9362     78.72495     157.1382     314.0891      1.345     4.36     858.8913      55.3578     101.2977         7     0.851     0.697  69.14   0
       193    810.0019    744.0206 307.5804116  +6.3946349     1119.459     1573.524     1216.885     78.35036     156.7633     313.7767      1.408     4.14      855.085      55.3578     195.1135        12     1.300     0.640  57.24   0
       194    896.3720    741.1569 307.5446395  +6.3987037     1545.462     2417.125     2404.362     78.35036     157.1382     313.9641      1.703     4.25     853.2574      55.3578     214.0706        15     1.275     0.802  65.16   0
       195    870.6307    736.4799 307.5554867  +6.3997745     933.0017     1283.558     1506.286     78.60028     157.0757     314.0266      1.511     4.62     853.5991      55.3578     120.5411        10     1.114     0.662  52.52   0
       196    853.1944    732.4939 307.5628617  +6.4008373     1413.365     2328.575     2252.584     78.47542     156.7633     313.8392      1.777     4.84     853.8121      55.3578     206.6336        18     1.569     0.838  65.51   0
       197     52.1865    731.5477 307.8955263  +6.3743500     2557.892     3823.788     4073.361     78.09964     157.0133     313.8079      1.623     3.64     858.8359      55.3578     344.9453        19     1.292     0.871  70.23   0
       198    116.3559    730.1149 307.8689288  +6.3771025     1141.352       1918.3     2252.894     78.72495     156.9508     314.0266      1.901     4.81      858.696      55.3578     173.5053        17     1.476     0.824  74.88   0
       199    664.9297    720.0479 307.6414642  +6.3996773      6437.17     9640.029     9788.186     78.72495     157.0133     314.0891      1.571     3.62     855.8325      55.3578     883.4707        33     1.419     1.053  58.02   0
       200    611.6058    719.3641 307.6636317  +6.3981735     1530.818     2287.134      2442.09     77.84811     156.8258     313.8392      1.660     4.00     856.0447      55.3578      222.279        15     1.200     0.795  54.78   0
       201    533.2497    719.6845 307.6961606  +6.3954151     628.8528     804.9875     692.5684     78.72495     157.0757     314.1515      1.430     4.19     856.8865      55.3578     96.55267         6     0.962     0.520  43.16   0
       202    522.7955    719.5729 307.7005058  +6.3951106      851.761     1170.701     946.2473      78.2251     156.8883     313.9017      1.436     4.78     856.9501      55.3578     114.5324         9     1.117     0.578  65.82   0
       203    127.8689    715.8474 307.8646309  +6.3833798     3681.822     5985.779     6102.528     78.72495     157.0133     314.0891      1.717     3.76      858.447      55.3578     458.3009        27     1.455     0.997  59.58   0
       204   1002.0035    715.4054 307.5016358  +6.4128618     2627.763     3882.382     4025.009     78.09964     156.7633     313.9017      1.602     3.61     850.2559      55.3578     342.5097        23     1.405     0.913  63.46   0
       205    638.8452    715.8140 307.6524392  +6.4005516     2135.071     3271.136     3807.112     78.09964     156.8883     313.8392      1.642     3.96     855.7675      55.3578     283.8424        19     1.320     0.862  50.66   0
       206    314.9433    716.4939 307.7869247  +6.3894047     789.2642     1129.567     1482.512     78.60028     157.0757     314.2451      1.481     4.57     858.4019      55.3578     103.3522         8     0.825     0.718  79.20   0
       207    250.3245    715.3705 307.8137965  +6.3876965     752.9888     1197.324     1329.517     78.60028     157.1382     314.0578      1.923     4.84     858.7066      55.3578      127.954         7     1.135     0.586  69.67   0
       208    781.8338    712.1178 307.5931820  +6.4068633     20275.62     30967.97     32366.27     78.72495     157.0757     314.0266      1.609     3.79     854.4773      55.3578     2587.878        48     1.497     1.115  59.04   0
       209    911.8834    711.9854 307.5391774  +6.4112648     3630.898     5583.679     6363.588     78.35036     156.8258     313.9017      1.657     3.76     852.0145      55.3578     491.1601        25     1.400     0.924  56.93   0
       210    480.9143    712.0468 307.7181518  +6.3968129     1353.682     2074.848     2425.181     78.72495     157.0133     314.0578      1.650     4.50     857.0654      55.3578     192.1628        16     1.398     0.816  73.04   0
       211    509.7035    712.2785 307.7061885  +6.3976829     883.1981     1170.594     825.3615     78.47542     157.3253     314.1203      1.528     4.84     856.8926      55.3578     112.5572        11     1.114     0.904  47.81   0
       212    326.7246    711.5828 307.7821982  +6.3918280     752.6477     1082.667      931.183      78.2251     156.8258     313.9641      1.603     3.93     858.0905      55.3578     119.6367         6     0.992     0.445  87.60   0
       213    255.2577    705.6699 307.8120758  +6.3918669      6291.04     9520.073     10415.93     78.84941     157.0757     314.0266      1.645     3.76     858.3384      55.3578     816.8448        31     1.409     1.073  59.35   0
       214    662.2589    704.9507 307.6430816  +6.4058203     7162.479     10774.95     11675.66     78.72495     157.0757     314.1203      1.598     3.72     855.1015      55.3578     985.4965        34     1.423     1.088  56.67   0
       215    644.6684    706.3001 307.6503413  +6.4046742     926.4764     1336.481     1615.048     78.72495     157.2006     314.0266      1.446     3.32     855.2529      55.3578     155.7075         8     0.935     0.604  66.34   0
       216    922.4652    697.6001 307.5352658  +6.4175569     1295.885     1933.038     2167.512     77.97398     156.7007     313.7767      1.771     4.73     851.4668      55.3578     163.9105        15     1.240     0.868  60.75   0
       217     22.3906    697.2048 307.9090622  +6.3875229     545.4155     776.6795      1524.21     78.09964     156.8258     313.9017      1.446     3.40     858.8575      55.3578     84.63586         5     0.736     0.454  72.03   0
       218    734.0992    693.3192 307.6136382  +6.4130269     3708.006     5976.015      6171.51     78.72495     157.5122     314.1515      1.717     3.85     854.0413      55.3578     590.4451        27     1.494     0.988  63.73   0
       219    689.4728    693.6569 307.6321600  +6.4113939     1143.283     1883.526     1666.918     78.72495     157.0133     314.0266      1.759     4.19     854.3727      55.3578     164.0638        11     1.053     0.909 -11.11   0
       220   1000.4040    689.9362 307.5031546  +6.4233229     8730.207     13531.08     14339.41     77.97398     156.8258     313.8392      1.645     3.71      850.043      55.3578     1179.278        37     1.489     1.075  57.56   0
       221    938.8586    690.4729 307.5286969  +6.4210467      2418.49     3739.479     3450.048     78.84941     157.0757     314.0266      1.668     3.72     851.0133      55.3578     318.9502        22     1.351     0.930  56.56   0
       222    988.4374    690.8643 307.5080933  +6.4225403     549.9431     995.8217      1241.33     78.60028     157.0133     314.1203      1.804     5.57      850.247      55.3578     67.06995         7     1.060     0.824  57.13   0
       223     19.6644    689.6912 307.9104487  +6.3905327     1950.206     2927.827     3701.896     78.72495     157.2629     314.0891      1.911     4.39      858.859      55.3578     267.5466        18     1.334     0.961  32.60   0
       224    552.8162    687.7176 307.6891124  +6.4092677     548.6624     613.7876     1001.379     78.35036     156.7633     313.9329      1.408     3.75     856.0993      55.3578     101.9368         5     1.052     0.384 -86.90   0
       225    436.3486    687.9951 307.7374704  +6.4052465     732.0563     1071.037      1082.88     78.09963     156.8883     313.7142      1.451     4.23     856.8057      55.3578     104.1668         7     0.793     0.643  87.19   0
       226     77.7324    684.6269 307.8865072  +6.3945796      25464.5     39437.46      41545.8     78.35036     156.9508     313.9641      1.686     3.74     858.5956      55.3578      3157.36        56     1.558     1.170  61.47   0
       227    538.9411    685.6508 307.6949442  +6.4096558     2103.406     3263.473     3193.046     78.72495     157.0757     314.0578      1.627     3.61     856.3028      55.3578     297.0319        20     1.327     0.909  50.14   0
       228    507.8880    682.9453 307.7079315  +6.4097313     1313.586     1935.293     1705.843     78.72495     156.9508     314.2139      1.423     5.11     856.3934      55.3578     180.3246        15     1.428     0.813  63.41   0
       229    928.7994    682.1823 307.5331529  +6.4241334     1006.251     1505.305     1426.415     78.35036     156.6381     313.7454      1.486     4.41     850.9566      55.3578     146.3634        10     1.134     0.603  49.50   0
       230    548.1553    679.8111 307.6913145  +6.4123754      934.176     1322.134     1532.087      78.2251     156.9508     313.7767      1.497     5.49     856.0917      55.3578     137.3127        11     1.254     0.740  47.80   0
       231    723.8231    676.9784 307.6184556  +6.4194290     3656.427     5502.339     5820.416     78.47542     156.8883     314.0266      1.618     3.89     853.5219      55.3578     467.0477        27     1.376     1.005  58.83   0
       232    745.8691    675.2672 307.6093574  +6.4208731     4222.377      6293.62     6386.743     78.72495     157.1382     314.0578      1.624     3.69     853.4298      55.3578     549.9342        25     1.368     0.952  60.41   0
       233    577.3135    673.0775 307.6794322  +6.4161326     3301.746     4946.354     5089.683     78.72495     157.3876     314.1515      1.573     3.55     855.0186      55.3578     479.9341        22     1.385     0.917  55.75   0
       234    413.3180    673.6329 307.7475193  +6.4104024     1334.428     2057.649     2353.932     78.60028     157.0133     314.0266      1.577     5.08     856.3847      55.3578     180.3403        14     1.380     0.718  53.54   0
       235    237.6227    672.7576 307.8205117  +6.4048605     1707.164     2531.078      2842.63     78.35036     156.9508     313.9017      1.653     4.45     856.9881      55.3578     199.7207        17     1.233     0.919  66.85   0
       236   1018.6812    671.4465 307.4961842  +6.4315660     5077.484     7652.901     7914.231     78.72495     157.0757      300.951      1.626     3.64     849.5414      55.3578     658.0764        26     1.380     0.983  58.99  16
       237    984.0795    670.3454 307.5105918  +6.4308657     8130.413     12076.37     12132.32     78.84941     157.0757     314.0891      1.607     3.74     849.9399      55.3578     1058.559        33     1.465     1.021  61.44   0
       238    321.3797    672.0303 307.7857539  +6.4079762     1396.676     1780.685     1363.525      78.2251     156.8883     313.9641      1.493     3.95     856.6392      55.3578     175.9861        15     1.184     0.852  59.31   0
       239    538.1169    671.0268 307.6957795  +6.4156652     583.8014     915.8658     1144.335     78.60028     156.8258     313.9954      2.024     6.12     856.0184      55.3578     109.1647         8     1.373     0.768  48.55   0
       240    703.7009    668.3820 307.6271017  +6.4223043     976.6529     1399.468     1639.047     78.72495     156.9508     313.8079      1.526     3.53     853.3304      55.3578     167.8263        11     1.182     0.625  57.92   0
       241     95.6826    666.8500 307.8796550  +6.4025226     791.1696     1334.074     1588.412     78.72495     157.0757     314.0891      1.896     6.78      858.314      55.3578     121.8928        14     1.718     0.751  50.22   0
       242    142.5026    663.5435 307.8603241  +6.4054639     24345.18      36761.2     38468.73     78.60028     157.0757     314.2763      1.665     3.75     857.3314      55.3578     3329.848        53     1.524     1.167  62.53   0
       243    429.3733    664.6200 307.7411559  +6.4146621     2841.726     4529.524     4746.853      78.2251     156.8258     313.9329      1.713     3.64     856.1253      55.3578     404.1899        25     1.387     0.996  60.35   0
       244    810.7592    664.3827 307.5827741  +6.4275370     1241.163     1820.351     1850.246      78.2251     156.8884     313.8704      1.637     4.28      852.719      55.3578     158.0968        15     1.121     1.063 -66.98   0
       245    362.1687    658.7767 307.7692624  +6.4148178     865.8493     1438.859     1740.153     78.09964     156.8258     313.8392      1.777     4.39     855.9205      55.3578      132.459        10     1.104     0.789  82.41   0
       246    978.9205    653.2458 307.5133083  +6.4377528     6914.914     11265.38     12243.97     78.72495     157.0757     314.0578      1.747     3.96     849.3542      55.3578     962.5349        36     1.656     1.006  49.97   0
       247     23.7379    652.2833 307.9100246  +6.4061121     1106.271     1525.804     1302.392     78.84941     157.0757     314.0578      1.477     4.49     858.8416      55.3578     162.6088        11     1.155     0.657  52.11   0
       248    572.4654    648.4657 307.6822750  +6.4261304     49261.11     73846.47     77023.75     78.72495     157.0757     314.0891      1.653     3.72      854.359      55.3578     6882.677        64     1.543     1.160  58.67   0
       249    937.3151    650.5053 307.5306798  +6.4374950     675.8135      907.353     666.0251     78.72495     157.4499     314.1515      1.538     4.41     850.0626      55.3578     120.5095         8     1.127     0.745  67.02   0
       250    215.3590    649.5709 307.8305412  +6.4136834     700.8531     833.9451     1053.505     78.35036     156.9508     313.9017      1.323     4.66     856.5819      55.3578     101.8718         7     0.885     0.695 -62.61   0
       251    796.8306    648.2347 307.5891018  +6.4337376     590.8463     767.2002     590.8366     78.35036     156.8258     313.8392      1.428     3.90     852.4978      55.3578     98.33624         5     1.279     0.340  48.11   0
       252    531.4923    648.4423 307.6992920  +6.4247664     726.9029     1157.529     1221.788     78.72495     157.0757     314.1515      1.907     6.31     855.1681      55.3578     96.83606        10     1.294     0.865  12.80   0
       253    179.9568    644.9837 307.8453982  +6.4143860     2789.446     4297.868     4393.628      78.2251     156.9508     313.8392      1.612     3.85     856.7105      55.3578     360.1226        25     1.366     1.106  53.68   0
       254    984.2506    644.9829 307.5113719  +6.4413419     567.5602     1071.841     1218.281      78.2251     157.1382     313.8392      1.785     4.21     848.9457      55.3578     93.49536         5     1.092     0.463  21.62   0
       255     72.5474    639.4084 307.8901915  +6.4130714     1373.424     1963.723     2259.609      78.2251     156.9508     313.7767      1.616     3.46     858.0399      55.3578     200.7281        14     1.093     0.806  52.35   0
       256    469.7640    632.2604 307.7254735  +6.4293762     61754.32      94439.5     98693.34     78.72495     157.0757     314.0266      1.664     3.69     855.2172      55.3578     7880.426        75     1.576     1.212  58.40   0
       257     13.5435    633.9556 307.9148789  +6.4133342     1760.202     2803.342     3366.175     78.72495     157.0757     314.0578      1.772     4.52     859.0395      55.3578     236.2132        21     1.399     1.055  64.51   0
       258    655.6393    629.2377 307.6483798  +6.4368548     725.6864     1162.863      777.376     78.47542     157.0133     313.9329      1.605     5.59     852.9036      55.3578     97.62823        11     1.317     0.668  36.66   0
       259    144.1571    627.3743 307.8608610  +6.4204505     1700.704     2573.245     2045.041     78.35036     157.0757     313.9329      1.587     3.99     856.8663      55.3578     243.0961        16     1.289     0.787  57.31   0
       260    938.9332    625.8179 307.5308367  +6.4477407     732.5808     1379.247     1385.106     78.35036     157.0133     313.9641      1.875     5.26     849.3779      55.3578     98.46002         8     1.035     0.756 -10.05   0
       261    423.4754    625.0124 307.7449419  +6.4308148     945.0053     1405.782     1349.729     78.35036     156.7633     313.8704      1.543     4.05      855.032      55.3578     142.5854        11     1.134     0.729  64.19   0
       262    615.6036    623.9700 307.6651846  +6.4376884     980.3531     1547.566     1606.678      78.2251     156.9508     313.9017      1.733     5.41     852.9094      55.3578     139.8036        12     1.330     0.703  51.20   0
       263    352.2255    624.3798 307.7745533  +6.4286834     3470.195     3306.893     2943.814     78.35036     156.8883     313.9641      0.664     1.04     854.8373      55.3578     2118.487         5     0.610     0.287  55.66   0
       264     16.1961    623.1707 307.9141428  +6.4178757     636.2537     885.9855     1206.993      78.2251     156.8883     313.9017      1.349     3.49     859.0419      55.3578     113.1755         6     0.784     0.530  49.76   0
       265    315.1877    621.3416 307.7900377  +6.4286931     2064.321     3476.743       3155.5     78.09964     157.0133     313.7767      1.735     3.99      855.226      55.3578     274.8345        21     1.293     0.996  58.00   0
       266    467.0719    620.5902 307.7269853  +6.4341035     821.1536     1195.399     1721.614      78.2251     156.7007     313.8704      1.668     4.26     854.9193      55.3578     122.2261        11     1.114     0.773  50.96   0
       267    741.7643    615.8648 307.6130605  +6.4452586     5329.517     8075.904     8558.887     78.60028     157.0133     314.0891      1.633     3.81      852.579      55.3578     713.4698        29     1.458     0.984  62.14   0
       268    795.3619    611.0528 307.5909620  +6.4490381     14187.02     21140.59     21818.44     78.60028     157.1382     314.0578      1.585     3.75     851.2602      55.3578     2082.365        42     1.465     1.096  60.19   0
       269   1012.4729    611.5501 307.5007722  +6.4560859      1127.62     1651.782     1358.475     78.72495     157.1382     314.0891      1.686     4.81     846.7735      55.3578     161.7603        10     1.097     0.722  58.18   0
       270    537.7334    611.0920 307.6979591  +6.4403947     1111.463     1797.293     2208.628     78.60028     157.2629     314.0891      1.729     4.33      853.625      55.3578     171.7167        12     1.148     0.807  70.15   0
       271    619.1804    609.0618 307.6642012  +6.4439626     2934.254     4222.682     4055.889     78.35036     157.0757     313.9329      1.526     3.81     852.6041      55.3578     402.4108        19     1.295     0.858  54.42   0
       272     40.2764    609.7013 307.9045991  +6.4242474     798.2515     1212.497     1311.993     78.35036     157.2006     314.0578      1.766     5.09     858.4555      55.3578     115.7048         9     1.173     0.624 -75.79   0
       273    936.4963    605.4649 307.5325322  +6.4560617     1223.339     1871.552     2128.184     78.72495     157.2006     314.0891      1.842     4.51     848.9093      55.3578     180.6121        12     1.279     0.722  49.34   0
       274    231.5430    602.6776 307.8254059  +6.4335858     1132.652     1806.897     1881.375     78.72495     157.0133     314.0266      1.733     5.03     855.5217      55.3578     166.2264        14     1.309     0.738  53.47   0
       275    377.7607    602.3058 307.7646939  +6.4386535     839.6293     1137.061     1069.053     78.84941     157.0133     314.1515      1.680     4.40      854.272      55.3578      134.926         8     1.080     0.611  71.70   0
       276    195.4554    603.3866 307.8403690  +6.4320792     579.0032     920.1968     911.9925     78.09964     157.0133     313.8079      1.684     5.49     856.0027      55.3578     90.93896         6     1.152     0.738  -2.20   0
       277    871.3715    594.4219 307.5599518  +6.4584449     2885.657     4209.648     4792.224      78.2251     156.8884     313.9641      1.623     3.87     849.9783      55.3578     403.2003        20     1.361     0.870  62.69   0
       278    166.4674    594.0024 307.8527250  +6.4349776     825.2847     1466.811     2165.022     78.09964     156.7007     313.8704      1.970     4.92     856.2955      55.3578      124.648        11     1.139     0.764  64.40   0
       279    830.1468    591.8428 307.5771606  +6.4581317     2582.814     3886.637     4554.201     78.72495     157.0757     314.0578      1.624     4.17     850.5187      55.3578     363.9829        21     1.426     0.908  55.29   0
       280    810.7405    582.9583 307.5855194  +6.4611506     158845.1     239298.9     251044.4     78.72495     157.0757     314.1203      1.622     3.88     850.6779      55.3578     19863.52       119     1.641     1.241  59.71   0
       281    801.2134    587.5692 307.5893213  +6.4589285     2521.437     4052.478      5195.98     78.35036     156.8258     313.9954      1.916     5.65     850.8922      55.3578     340.0606        24     1.584     1.047  81.25   0
       282    258.1240    586.7360 307.8149057  +6.4410606     7591.013     11940.28     12465.34     78.97368     157.0757     314.0266      1.678     3.77       854.83      55.3578     983.9159        37     1.511     1.090  57.49   0
       283    740.5307    583.0014 307.6146786  +6.4587842     602.8208     1069.613     2021.362      78.2251     156.6381     313.9017      3.323     6.13     851.8156      55.3578     126.9006         8     1.656     0.638  53.89   2
       284    192.3350    581.1909 307.8424157  +6.4411368     57078.85     90353.26     96294.54      78.2251     156.8883     313.9329      1.690     3.69      855.686      55.3578     7970.063        83     1.641     1.288  58.49   0
       285    116.3751    577.4290 307.8740891  +6.4401330     6193.136     9628.015     10017.66      78.2251     156.8884     313.9329      1.696     3.62     856.5095      55.3578     855.7112        32     1.442     1.069  51.87   0
       286    981.6143    574.8168 307.5148218  +6.4702206     1506.055     2148.991     1710.563     78.47542     156.7633     313.9954      1.558     3.93     846.7066      55.3578     187.3973        16     1.267     0.817  60.04   0
       287   1002.3428    574.0462 307.5062381  +6.4712306      818.541     1320.689     1290.829     78.72495     157.0757     314.1827      1.791     4.88     846.1279      55.3578     147.5173         9     1.171     0.646  43.13   0
       288    230.8009    572.9996 307.8267176  +6.4458123     692.9739     1140.935     1510.373     78.09964     156.6381     313.7454      1.633     3.76     854.8542      55.3578     121.8115         6     0.925     0.438  47.86   0
       289    847.3640    570.2344 307.5707359  +6.4676278     4596.628     6947.972     7256.187     78.47542     156.8258     313.8079      1.606     3.57     849.6856      55.3578     670.0156        28     1.408     0.976  48.03   0
       290    365.7917    568.3580 307.7708111  +6.4522657     16656.94     26180.76     27235.35     78.09964     156.8883     313.8079      1.685     3.62     853.4215      55.3578     2142.602        46     1.530     1.138  56.75   0
       291    455.9505    568.4595 307.7333629  +6.4552508     721.3685     1076.979     1392.487     78.72495     157.0757     314.1203      1.761     4.52     853.3618      55.3578      96.3017         8     1.171     0.497  64.25   0
       292    167.5741    567.4864 307.8531626  +6.4459609     2031.694      2932.21     3422.639     78.84941     156.8884     313.9329      1.694     3.82     855.9198      55.3578     240.1616        18     1.194     0.973  40.83   0
       293    801.2596    563.6172 307.5901075  +6.4688180     6018.997     9237.687     9785.951     78.35036     157.0133     313.8079      1.659     4.01     850.7162      55.3578       852.67        31     1.409     1.040  60.15   0
       294    242.9901    565.2177 307.8219185  +6.4494347     888.4546     1358.666     1589.463     78.47542     156.8258     313.9329      1.732     4.74     854.4608      55.3578     120.6685         9     1.053     0.606  53.80   0
       295    172.9321    565.0418 307.8510201  +6.4471504     632.0865     1004.008     1477.312     78.72495     157.0133     314.1203      1.760     4.28     855.7965      55.3578     115.2805         6     1.245     0.420  53.23   0
       296    105.1242    564.4044 307.8792025  +6.4451307     811.6335     1500.195     1228.995     78.35036     156.5755     313.9017      1.914     6.61     856.4742      55.3578     107.2963        16     1.517     0.985  68.71   0
       297    532.1207    563.1874 307.7019052  +6.4599825     6475.443      10134.9     10599.55     78.35036     156.7633     313.9017      1.663     3.71     852.4953      55.3578     912.9559        32     1.447     1.046  65.62   0
       298    390.3627    559.9835 307.7608891  +6.4565481     1440.389     2296.041     2082.098     78.35036     156.9508     313.8079      1.645     5.09     853.1786      55.3578     182.4821        15     1.375     0.765  50.07   0
       299    179.0646    556.4380 307.8487643  +6.4509085     6683.887      10600.6     11404.26     78.60028     157.0133     314.1515      1.702     3.73     855.5497      55.3578     964.6573        36     1.497     1.147  72.14   0
       300    576.9099    556.4610 307.6835296  +6.4642609     2127.805     4018.894     3914.676     78.72495     157.2006     314.1203      1.957     4.48      852.075      55.3578     294.9936        26     1.381     1.266  72.52   0
       301    818.1285    555.9071 307.5833603  +6.4725651      1416.08     2213.337     2205.901     78.60028     157.1382     314.0891      1.607     4.35      850.158      55.3578     183.3727        15     1.253     0.833  68.19   0
       302    274.3591    552.8360 307.8093091  +6.4556008     85351.82     133319.1     140074.6     78.47542     157.0757     313.9017      1.678     3.65     853.5183      55.3578      11120.1        94     1.617     1.286  57.80   0
       303     50.7959    555.0209 307.9020828  +6.4471742     4720.446     7396.995     7396.785     78.35036     156.8258     313.8392      1.621     3.75     857.4235      55.3578     638.9047        27     1.451     0.947  64.04   0
       304    563.7664    550.7173 307.6891821  +6.4661914      809.187     1287.967     1872.147     78.72495     157.0133     314.0266      1.852     4.69     852.0021      55.3578     122.6759         9     1.170     0.533  45.30   0
       305    258.1079    547.8530 307.8162269  +6.4571114     1433.699      2166.85     851.4123     78.60028     156.9508     314.2139      1.550     4.10     853.7031      55.3578     198.7775        15     1.275     0.845  37.40   0
       306    501.1171    543.6922 307.7154394  +6.4669906     39397.94     65970.95     70585.32     78.47542     157.3876     314.1827      1.790     4.02     852.3832      55.3578     5083.283        80     1.711     1.385  48.12   0
       307    974.0129    546.6535 307.5189244  +6.4815935     1716.643     2328.455     2109.285     78.09963     157.0133     313.8079      1.482     3.84     846.1862      55.3578      223.249        15     1.149     0.836  42.10   0
       308    797.5093    545.3570 307.5922792  +6.4762309      16303.7     24321.91     25064.91     78.72495     157.0757     314.1515      1.646     3.86     850.5883      55.3578     2326.038        45     1.542     1.076  53.81   0
       309    723.8547    538.6520 307.6230971  +6.4765347     1096.857     2239.188     2510.301     78.84941     157.0757     314.0578      2.275     7.23     850.8217      55.3578     174.6078        19     1.982     0.739  63.31   0
       310    651.2035    542.0831 307.6531569  +6.4726857     938.5066     1570.237      1559.48      78.2251     156.7007     313.7454      1.658     3.90     851.7827      55.3578     127.1089        10     0.989     0.793  10.98   0
       311    213.5605    540.1035 307.8349903  +6.4588122     1608.282     2666.418     3076.603     78.72495     156.9508     314.2139      1.847     4.11     854.4393      55.3578     198.8047        19     1.356     0.951  65.62   0
       312    660.9601    538.8538 307.6492133  +6.4743456     2834.511     4439.094     4841.951     78.60028     157.0757     314.0578      1.634     3.93     851.6964      55.3578     361.3212        24     1.432     0.983  59.22   0
       313     99.4080    540.2812 307.8823932  +6.4548964     644.4078     962.9166     718.9457     78.35036     156.7007     313.9017      1.683     4.22     856.2334      55.3578     94.42603         7     1.043     0.488 -86.25   0
       314     49.1671    540.1752 307.9032622  +6.4532476     1212.951     2021.482     2079.983     78.09964     156.8258     313.8392      1.809     4.98     857.2223      55.3578     153.2714        15     1.316     0.799  39.38   0
       315    671.3868    538.7902 307.6448848  +6.4747211     1418.657     2165.635     2409.369     78.35036     156.8258     313.9954      1.620     4.05     851.6979      55.3578     213.1273        15     1.311     0.751  50.40   0
       316    398.9151    534.6525 307.7581923  +6.4672923     1701.677     2585.962     2926.181     78.72495     157.0133     314.1827      1.659     3.76      852.417      55.3578     257.2007        17     1.209     0.968  76.02   0
       317     79.2482    535.5828 307.8909249  +6.4561569     651.8067     1147.965     1330.254      78.2251     157.1382     313.8392      1.889     5.67     856.5233      55.3578     117.0951         7     1.067     0.888   6.99   0
       318    330.2223    532.5682 307.7867928  +6.4658452     3771.601     5894.086     5974.427      78.2251     156.8884     313.8704      1.661     3.87     852.4979      55.3578     469.4698        27     1.461     1.003  69.89   0
       319    145.4500    531.2231 307.8635781  +6.4601860     25319.14      39397.2     40829.42     78.35036     157.1382     313.9641      1.682     3.79     855.5553      55.3578     3394.833        54     1.559     1.152  58.48   0
       320    510.2584    532.0825 307.7120342  +6.4720900     1937.218     3017.179     2863.294     78.84941     157.0757     314.1203      1.643     4.02     851.8084      55.3578     255.6744        18     1.343     0.861  65.84   0
       321    873.4215    531.4984 307.5612147  +6.4844900     1608.666     2302.716     1987.189     78.60028     156.8884     313.8392      1.507     5.23     847.8111      55.3578      197.254        14     1.247     0.772  55.25   0
       322    110.5892    529.3614 307.8781193  +6.4597807     2493.673     4010.788     4183.589      78.2251     156.8884     313.7767      1.672     4.38     855.8422      55.3578      313.867        25     1.538     0.960  54.99   0
       323    347.7291    527.8187 307.7796821  +6.4683941       973.58     1499.874     1500.768     78.35036     156.9508     313.9954      1.504     5.44     852.3221      55.3578     173.4067        12     1.295     0.663  60.44   0
       324    970.9601    525.9061 307.5208889  +6.4900568     5055.103     7553.165     7736.877     78.84941     157.0133     314.1515      1.571     3.86     845.6313      55.3578      702.082        25     1.418     0.930  58.18   0
       325    544.2568    518.2536 307.6983796  +6.4789390     1329.644     2074.442     1720.968     78.84941     157.0757     314.0578      1.624     4.15     851.0227      55.3578     193.5794        15     1.206     0.926  62.88   0
       326      9.7207    515.5001 307.9204806  +6.4621041     24945.47     38544.13     40255.69     78.47542     157.3253     314.0891      1.675     3.62     857.5739      55.3578     3122.772        55     1.538     1.220  63.38  16
       327    442.4768    512.3931 307.7408509  +6.4779438     41554.13     64825.27     67928.96     78.35036     156.5755     313.9017      1.711     3.76     851.4695      55.3578     5556.257        65     1.567     1.232  55.95   0
       328    650.4411    512.1260 307.6544825  +6.4850271     11786.93     17968.91     18573.33     78.60028     157.1382     314.0891      1.627     3.86     850.9021      55.3578     1630.745        38     1.494     1.059  54.73   0
       329    290.0450    512.5479 307.8041561  +6.4727596     1053.609     1670.335     1381.931     78.72495     157.0133     314.0578      1.568     4.74     851.7944      55.3578     136.2466        12     1.217     0.771  84.18   0
       330    207.6440    509.9487 307.8384675  +6.4710613     18415.45     30533.45     31759.26     78.84941     157.0133     314.0891      1.776     3.88     853.5986      55.3578      2364.84        54     1.650     1.215  53.84   0
       331    173.3869    511.1802 307.8526536  +6.4694002     1456.325     2270.408     2336.584     78.47542     156.8258     313.9641      1.638     4.05     854.5208      55.3578     201.8274        16     1.335     0.820  67.17   0
       332    984.3804    510.4267 307.5158342  +6.4968951     1050.871     1605.875      1574.32     78.35036     156.8884     313.9641      1.692     5.86      844.884      55.3578     142.8674        11     1.235     0.782  61.29   0
       333    913.2802    509.8239 307.5453872  +6.4947697      760.618     1066.116     874.2587     78.35036     156.7633     314.0266      1.498     5.30     846.3286      55.3578     114.3335         9     1.577     0.503  59.61   0
       334    824.4727    509.9235 307.5822713  +6.4917605     934.1875     1362.449     1724.118     78.97368     157.3253     314.0578      1.511     3.83      848.445      55.3578     159.5638         7     0.939     0.587  37.25   0
       335    572.3176    508.8844 307.6870404  +6.4837476     2773.216     4091.105     3560.367     78.47542     157.3253     314.1203      1.574     3.58     850.7272      55.3578     372.3647        21     1.320     0.937  69.76   0
       336    946.1587    506.0174 307.5318583  +6.4974393     4708.305     7051.649     7460.215      78.2251     156.8883     313.8704      1.569     3.89     845.5205      55.3578     701.8555        28     1.456     0.984  61.01   0
       337    619.2682    504.4148 307.6676900  +6.4871662     6199.738     9550.776     9735.337      78.2251     156.9508     313.9641      1.659     3.71     850.5914      55.3578     909.7864        31     1.414     1.065  53.06   0
       338    106.8735    504.9934 307.8804875  +6.4697148     1032.363     1462.432     1027.846     78.35036     156.6381     313.9329      1.442     3.81       855.28      55.3578     146.3655        11     1.035     0.740  70.47   0
       339    968.7471    498.2661 307.5227361  +6.5013935     3361.086     5079.691     5041.754     78.72495     157.0133     314.0266      1.616     4.31     844.8218      55.3578     449.7268        21     1.352     0.854  64.79   0
       340    531.3934    495.6963 307.7044829  +6.4878197       7118.9     11155.27     12011.98     78.47542     156.7633     313.8704      1.729     3.81     850.3511      55.3578     883.3413        38     1.574     1.110  55.90   0
       341    887.9366    491.6619 307.5565243  +6.5014207      3127.73     4815.447     5909.257     78.72495     157.0757     314.0891      1.744     4.18     846.2654      55.3578     416.5357        22     1.368     0.944  56.99   0
       342    377.3855    495.9270 307.7684419  +6.4825557     2561.231     3933.396     3850.205      78.2251     156.8258     313.9641      1.620     3.69     851.1746      55.3578     310.7596        20     1.308     0.917  47.18   0
       343    235.8093    490.8973 307.8274139  +6.4798734     722.7834     1145.191      914.945     78.47542     156.7007     313.8704      1.695     4.34     852.2603      55.3578     107.8631         6     0.853     0.630  79.64   0
       344    895.2650    485.9334 307.5536727  +6.5040305     2120.506     2809.724     3358.418     78.72495     157.0757     314.0891      1.414     3.75      845.915      55.3578     303.2899        15     1.126     0.852  60.28   0
       345    934.8078    485.2201 307.5372716  +6.5056459     1305.981     1955.934     2313.447     78.35036     156.8258     313.8704      1.604     4.96     845.0137      55.3578     163.3717        13     1.368     0.736  60.32   0
       346    114.2577    484.7407 307.8781064  +6.4783239     732.1163     1262.481     1382.963     78.84941     157.0133     314.0891      1.804     5.36      854.688      55.3578     116.0204         8     0.990     0.844  40.92   0
       347    719.4008    482.0543 307.6268519  +6.4997505     2797.229     4222.476      4419.67     78.09963     156.7633     313.7142      1.580     4.05     848.9423      55.3578     400.4135        19     1.381     0.812  54.40   0
       348    390.4268    480.1286 307.7635587  +6.4895155     3602.826     5877.686     5774.646     78.35036     156.9508     313.9954      1.699     3.69     850.6147      55.3578     516.4868        31     1.504     1.103  60.16   0
       349     81.1959    480.7924 307.8919716  +6.4788402      1802.75     2779.259     2829.643     78.09964     156.7633     313.9017      1.657     3.99        855.2      55.3578     254.3754        20     1.307     0.971  76.88   0
       350    430.4279    480.1583 307.7469433  +6.4908464      987.803     1376.451      1721.99     78.35036     157.0133     313.9017      1.443     4.30     850.4416      55.3578     134.2493        10     1.097     0.682  59.91   0
       351    617.9514    476.6554 307.6691722  +6.4985818     9961.504     15460.97     15997.48     78.72495     157.0757     314.1515      1.661     3.78     849.5994      55.3578     1308.162        37     1.500     1.090  58.29   0
       352    780.6613    473.2311 307.6017030  +6.5054428     16091.51     24575.44        25802     78.47542     157.1382     313.9954      1.653     3.85     847.7982      55.3578     2136.097        48     1.521     1.139  61.76   2
       353    784.7675    468.5885 307.6001536  +6.5074967     1383.482     2093.579     2653.091      78.2251     156.8258     313.9329      1.715     4.56     847.6542      55.3578     186.2932        15     1.261     0.815  54.72   3
       354    300.5022    473.4505 307.8011342  +6.4892510     2591.321     4076.776      4084.65     78.60028     157.0133     314.2139      1.693     3.86     850.3223      55.3578     346.1556        24     1.457     0.966  59.09   0
       355    423.9776    472.8034 307.7498707  +6.4936660     630.3557     1152.383     903.0759     78.35036     156.7633     313.8704      1.961     5.84     850.1324      55.3578     110.6467         8     1.425     0.788  -0.20   0
       356    809.6318    470.2827 307.5897686  +6.5076290      1289.82     2060.927     1953.379     78.72495     156.8884     313.9329      1.628     3.89     847.3337      55.3578     168.6226        14     1.143     0.841  57.57   0
       357    383.2437    469.9811 307.7668849  +6.4934633     1520.265     2539.348     3112.759      78.2251     156.9508     313.8392      2.056     4.60     850.0735      55.3578     203.1925        16     1.442     0.769  59.17   0
       358    965.8571    468.2593 307.5249440  +6.5136846     2093.912     3120.855     3186.038     78.84941     157.0757     314.0891      1.592     4.36     843.7473      55.3578     278.9185        17     1.338     0.794  59.71   0
       359    714.4854    467.5042 307.6293833  +6.5055925     592.0985     867.1523     954.5592     78.72495     157.4499     314.1515      1.414     3.67     848.4639      55.3578     97.67468         6     0.980     0.395  70.06   0
       360    756.2751    464.2157 307.6121357  +6.5083487     2313.772     3705.623     4350.946      78.2251     156.8258     313.9329      1.701     3.72     847.7219      55.3578     353.8177        21     1.486     0.859  70.35   0
       361    372.0517    465.9862 307.7716684  +6.4947365     778.9815     1237.509     1148.106     78.09964     157.0133     313.8079      1.675     4.97     849.8571      55.3578     100.8845         9     1.167     0.599  61.53   0
       362    118.0375    465.0807 307.8772022  +6.4865670     4334.649      6732.47     7317.159     78.60028     157.1382     314.0266      1.652     3.56     854.0048      55.3578     584.9001        28     1.394     1.068  44.79   0
       363   1019.8756    463.0215 307.5026814  +6.5176501     3997.376     6776.451      7088.41     78.35036     156.8883     288.8468      1.745     4.48     841.9885      55.3578     518.8057        34     1.700     1.004  46.60  16
       364    275.7934    462.4181 307.8117698  +6.4929746     1398.641     2197.305     2932.385     78.35036     156.7633     313.9017      1.786     4.14     850.2056      55.3578     204.2706        19     1.287     1.058  66.80   0
       365    354.1453    459.9240 307.7793107  +6.4966376     3133.853     4887.644     5497.305     78.72495     157.0757     314.0578      1.704     3.79     849.5323      55.3578     411.9877        25     1.347     1.015  57.22   0
       366    709.9694    457.6852 307.6315896  +6.5094949      1595.23     2618.901     2306.133     78.72495     156.8883     313.9329      1.661     3.92     848.0897      55.3578     223.0715        18     1.392     0.807  70.26   0
       367    983.5152    456.5352 307.5180027  +6.5191142      810.352     1223.994      1178.96     78.84941     157.2629     314.1203      1.748     5.86      842.657      55.3578     139.0663        10     1.407     0.687  57.56   0
       368    241.4534    455.7338 307.8262589  +6.4945791     874.2417      1202.18     1515.737     78.72495     157.0133     314.0266      1.612     5.45     850.8096      55.3578     117.1731        11     1.065     0.797  44.06   0
       369    452.6897    451.5824 307.7386612  +6.5033902     658.9754      611.416     471.2437     78.47542     156.8258     313.9641      1.365     5.73     848.4084      55.3578     96.30444        10     1.276     0.724  81.78   0
       370    551.5886    450.5338 307.6976174  +6.5071409     961.3576     1524.881     1381.143      78.2251     156.8884     313.9329      1.868     3.85     847.8034      55.3578     141.8588        10     1.109     0.639  53.29   0
       371    473.5458    448.5103 307.7301020  +6.5053584     1234.427     1982.917     1887.856     78.72495     156.8884     314.1827      1.756     4.69     847.8071      55.3578     165.3969        16     1.340     0.799  56.01   0
       372    836.1669    447.6825 307.5795064  +6.5178462     1439.784     2127.186     2292.704     78.72495     157.0133     313.9954      1.560     3.98     845.9576      55.3578     197.7122        16     1.265     0.850  74.20   0
       373    821.7953    446.9500 307.5855007  +6.5176681     2066.461     2801.695     2715.727     78.09964     156.8883     313.6829      1.497     4.17     846.3447      55.3578     247.0311        16     1.267     0.824  57.08   0
       374    719.1479    444.9315 307.6282064  +6.5150672     14644.34     22338.11      23954.5     78.60028     156.9508     313.9954      1.616     3.76     847.3967      55.3578     2032.518        43     1.509     1.088  58.47   0
       375    640.1354    440.9208 307.6611615  +6.5140770     2585.566     4178.181     3981.535     78.97368     157.1382     314.0266      1.686     4.31     847.3903      55.3578      322.636        23     1.367     1.062  49.30   0
       376    612.6577    436.1354 307.6727363  +6.5151318     12463.53     26146.91     30389.32     78.84941     157.0133     314.0891      2.314     6.62     846.8263      55.3578     1862.697        68     2.469     1.193  37.87   0
       377    944.4397    434.8490 307.5349624  +6.5267622     3939.701     5780.791      5968.78     78.72495     157.0757     313.9954      1.587     4.06     843.2197      55.3578      525.405        22     1.336     0.927  59.73   0
       378    383.5425    430.7617 307.7680853  +6.5096637     28158.06     44059.63     46161.83     78.72495     157.1382     314.0578      1.713     3.72     847.9628      55.3578     3505.463        57     1.574     1.191  58.63   0
       379    129.6682    430.1769 307.8735533  +6.5013671     2292.703     3726.687     4069.093     78.35036     157.0133     314.0266      1.707     3.77     852.6382      55.3578     291.6431        21     1.346     0.921  61.62   0
       380    899.0359    429.2004 307.5540126  +6.5275774     1160.114     2593.478     3094.482     77.84811     156.8883     313.8704      2.552     8.81     844.0286      55.3578     189.4384        23     2.731     0.794  50.16   0
       381    913.2322    425.2763 307.5482474  +6.5296717     4943.283     7339.581     7404.223     78.60028     157.0757     313.9954      1.542     3.78      843.798      55.3578     676.1206        25     1.375     0.920  63.82   0
       382     62.7063    425.5335 307.9015228  +6.5010283     1458.039     2371.208     2651.784     78.60028     157.2629     314.0578      1.744     4.77     853.6666      55.3578     185.4663        16     1.309     0.933  56.79   0
       383    241.1182    421.2762 307.8275634  +6.5087922     13452.91     20997.37     21741.65     78.97368     157.3253     314.1827      1.665     3.61     849.4232      55.3578     1854.075        48     1.549     1.169  58.47   0
       384    735.6207    415.2859 307.6223617  +6.5278569     693.5426     1025.307     1866.231     78.60028     156.8258     313.9641      1.918     5.01     846.1495      55.3578     96.35449         9     0.999     0.711  52.71   0
       385    704.1548    415.1558 307.6354367  +6.5268574     817.0309     1107.967     1903.531     78.72495     157.0757     314.0266      1.599     4.77     846.1495      55.3578     138.4119         9     1.177     0.547  44.82   0
       386     76.4675    415.4284 307.8961495  +6.5056634     782.2703     1444.322     1780.266     78.47542     157.0133     314.0266      2.093     5.81     853.1019      55.3578     104.5113         9     1.141     0.834  33.83   0
       387   1013.6552    413.7880 307.5069176  +6.5377676     534.0053      648.787     957.7199     78.09964     157.0133     313.7454      1.436     3.07     838.5067      55.3578     91.18243         5     0.745     0.439  72.44   0
       388    964.6171    413.7296 307.5272901  +6.5361546     975.5554     1439.162     1437.859      78.2251     156.9508     313.9641      1.695     5.28     841.3013      55.3578     146.0673        10     1.171     0.672  67.24   0
       389    186.4965    411.3802 307.8505857  +6.5110396     781.3626     1176.799     1069.291     78.60028     156.8884     313.8392      1.693     6.16     850.6857      55.3578     115.3235        11     1.396     0.765  50.63   0
       390    354.2641    411.0508 307.7809123  +6.5168170     1269.354     1914.495     1760.777     78.72495     157.0133     314.0891      1.497     3.72     846.9144      55.3578     175.0344        14     1.145     0.791  82.53   0
       391    141.3689    409.8040 307.8693831  +6.5101711     5011.998     7826.999     7997.286      78.2251     156.9508     313.8392      1.676     3.64     851.8033      55.3578     644.3466        33     1.500     1.075  63.82   0
       392    246.2426    408.6286 307.8258626  +6.5141856     1062.639     1442.906     1468.729     78.35036     157.1382     313.9329      1.478     4.53      848.909      55.3578       172.87        13     1.377     0.773  73.00   0
       393    438.6033    408.9313 307.7459518  +6.5205244      688.206     937.1791     1110.356     78.09963     156.7007     313.8392      1.564     5.32     846.1418      55.3578     103.0166         8     1.089     0.735  35.44   0
       394    163.4885    405.7623 307.8603324  +6.5125843     2290.084     4080.248     4135.668     78.72495     156.9508     314.0578      1.881     4.30     851.2244      55.3578     294.1214        30     1.556     1.226  75.97   0
       395    827.4230    406.4182 307.5845259  +6.5345888     788.2847     1054.733     833.7573     78.47542     157.0133     313.9954      1.603     3.65     844.8495      55.3578     115.1895         8     1.035     0.698  53.87   0
       396    559.0292    404.8067 307.6960685  +6.5262674     957.5708     1461.498     1555.809      78.2251     156.8883     313.8704      1.558     3.88     844.9274      55.3578     138.7291         9     0.973     0.640  57.94   0
       397    274.8707    401.2131 307.8142223  +6.5182096     842.9545     1344.857     803.6325      78.2251     156.8258     313.9329      1.647     5.83     847.8705      55.3578     127.6956        11     1.335     0.756  68.01   0
       398    386.8227    400.6601 307.7677394  +6.5222002     2137.299     3266.149     3111.403     78.35036     157.0133     313.9641      1.625     4.08     846.2827      55.3578     278.1863        19     1.293     0.900  61.11   0
       399      5.7073    401.1385 307.9260238  +6.5091774     629.4828     903.8239     746.2972     78.60028     157.0757     295.1272      1.411     3.44     853.9097      55.3578     127.0585         5     0.985     0.347  41.90  16
       400    975.5757    399.5428 307.5232142  +6.5423773     1020.216     1456.851     1705.101     78.35036     157.0757     313.8704      1.570     5.03     840.1171      55.3578     145.9684        11     1.179     0.820  42.83   0
       401    440.7672    394.1748 307.7455510  +6.5266888     6981.085     11176.67     11587.98      78.2251     156.8883     313.9017      1.665     3.50     845.2026      55.3578     908.2209        38     1.502     1.153  63.95   0
       402     37.1258    394.8014 307.9131889  +6.5128525     2907.344     5331.771     5846.907     78.09964     156.5129     313.9329      1.934     4.34     853.3148      55.3578     342.7717        34     1.502     1.399 -50.43   0
       403    781.3972    391.5782 307.6041441  +6.5391757     13047.17     19225.39     19702.88     78.35036     156.7633     313.8079      1.627     3.67     845.1677      55.3578     1842.147        39     1.498     1.030  62.17   0
       404    773.4095    393.0118 307.6074140  +6.5383167     1859.739     2663.955     2800.068     78.47542     156.8883     314.0266      1.554     3.83     845.2369      55.3578     245.2001        19     1.281     0.888  56.49   0
       405    344.5506    389.9711 307.7856592  +6.5251926     1044.428     1565.653     1504.772     78.35036     157.1382     313.9641      1.653     5.38     846.0521      55.3578     140.6262        13     1.122     0.931  51.57   0
       406   1023.6789    386.1528 307.5036812  +6.5495107     1196.166     1607.746     1655.419      68.1778     124.7112     236.0502      1.217     2.92     836.9979      55.3578     305.4572        10     1.189     0.466  88.23  24
       407    956.2018    383.4968 307.5318011  +6.5483546     634.4151     1023.914     1371.965      78.2251     156.8258     313.7454      1.754     4.02     840.5009      55.3578      106.076         6     1.044     0.443  60.37   0
       408    189.6011    382.2690 307.8502813  +6.5231613     888.6445     1215.567     1534.898      78.2251     156.6381     313.8704      1.447     2.98     849.7546      55.3578     141.7839         7     0.911     0.484  84.58   0
       409    461.0274    378.3607 307.7376690  +6.5338971     2213.978     3475.614     3287.982     78.35036     156.8883     313.9329      1.634     3.81     843.9379      55.3578     296.2646        22     1.328     1.000  61.83   0
       410    528.5945    379.5740 307.7095615  +6.5356633     535.0507     687.8996     700.4463      78.2251     156.8884     313.9017      1.428     4.14     843.7197      55.3578     75.97534         5     0.989     0.494   1.86   0
       411    488.8723    377.7528 307.7261231  +6.5350825     3083.668     4985.619     5051.535     78.72495     157.1382     314.0578      1.685     4.31     843.6232      55.3578      383.403        22     1.470     0.890  65.18   0
       412    917.6855    377.6047 307.5479990  +6.5495006     756.6404     1291.224     1307.899      78.2251     156.7633     313.7454      1.762     4.55     841.9062      55.3578     132.6796         8     1.102     0.560  67.34   0
       413    846.6934    374.4864 307.5775946  +6.5484153     33021.26        51285     53932.89     78.72495     157.5122     314.1515      1.727     4.04     843.2136      55.3578     3940.229        60     1.632     1.151  65.64   0
       414    992.0001    374.5180 307.5172315  +6.5532565     492.5972     749.6413     893.5171     77.97398     156.5755     313.7142      1.579     3.78     838.2916      55.3578     74.04358         6     1.537     0.267  36.22   0
       415    338.6998    370.2599 307.7887555  +6.5331330     810.8024     1020.288     750.8182     78.47542     157.0757     314.1827      1.478     6.00     845.2528      55.3578     117.3113        10     1.255     0.807  73.91   0
       416     64.8420    370.5959 307.9024970  +6.5237786     548.5853     1056.023     999.6599     78.09964     156.7633     313.8079      2.088     5.45     852.4254      55.3578     107.5067         7     1.302     0.642  29.86   0
       417    618.4516    366.9665 307.6726603  +6.5438803     2686.862     3914.493         4412     78.60028     157.0757     313.9641      1.566     3.66     843.2823      55.3578     352.1915        19     1.313     0.861  56.53   0
       418     26.6929    367.4348 307.9184498  +6.5237977     1101.678     1468.171     912.0482     78.84941     156.9508     314.1203      1.532     5.58     852.9067      55.3578     137.1487        12     1.090     0.805  36.08   0
       419    703.1551    360.4150 307.6376949  +6.5494221     77607.01     119458.4     125261.6     78.09964     156.8883     313.8392      1.647     3.90     844.1717      55.3578      10707.5        83     1.612     1.206  57.15   0
       420    861.6342    362.0751 307.5718053  +6.5540385     1279.322     1957.009     2016.326     78.60028     157.0757     314.0266      1.624     3.90     842.5613      55.3578     173.8399        14     1.201     0.804  53.08   0
       421     82.2986    359.6714 307.8956163  +6.5288765     1310.772     2059.011     2219.243     78.47542     157.2629     314.0578      1.652     4.57     851.9657      55.3578     186.0552        16     1.341     0.842  64.68   0
       422    944.7864    357.6827 307.5374102  +6.5586301     837.5421     966.3511     949.5486     78.35036     156.8258     313.8704      1.374     4.51     839.9884      55.3578     144.3656        10     1.124     0.789  63.98   0
       423    565.4482    357.1094 307.6950102  +6.5461729     2684.394     4117.082     4626.592     78.72495     156.9508     314.2139      1.704     3.80     842.6103      55.3578     352.1754        21     1.341     0.952  51.54   0
       424    102.8223    355.8602 307.8872205  +6.5311412     6096.905     9636.982     9690.403     78.35036     157.0133     313.9954      1.661     3.88     851.4942      55.3578     771.5103        33     1.508     1.062  58.71   0
       425    548.9858    353.3942 307.7019739  +6.5471546     7033.784     10776.96     11369.44     78.35036     156.8258     313.9017      1.630     3.68      842.416      55.3578     933.3806        34     1.459     1.066  52.85   0
       426    277.8481    350.9510 307.8146849  +6.5390583     2446.704     3894.261     4031.853     78.72495     156.9508     314.0891      1.665     3.94     846.0864      55.3578     316.4841        23     1.413     0.964  65.59   0
       427    411.8124    348.4648 307.7591217  +6.5445864     25353.71     40034.82     42006.39      78.2251     156.8883     313.9641      1.709     3.68     842.9478      55.3578     3084.668        57     1.543     1.238  59.35   0
       428    519.7979    347.0944 307.7143111  +6.5487763      1253.39     2055.548     1755.803      78.2251     156.7633     313.7142      1.674     4.58     842.1868      55.3578     150.2377        14     1.199     0.810  67.72   0
       429    391.7326    346.7966 307.7675190  +6.5446006     1227.934     1768.053      2999.84     78.09964     156.7633     313.8392      2.330     3.89     843.2937      55.3578     166.4718        15     1.274     0.784  63.12   2
       430    490.9252    343.8835 307.7264131  +6.5491332     1181.116     1831.385     1551.008     78.84941     157.3876     314.1203      1.602     5.20     842.0724      55.3578     185.3809        13     1.141     0.799  58.26   0
       431    806.7605    341.1504 307.5953043  +6.5608419     918.4413     1502.835     1505.448     78.72495     157.0757     313.9954      1.868     6.16      842.752      55.3578     119.8796        13     1.323     0.807  68.53   0
       432    500.8739    338.8811 307.7224492  +6.5515321     8430.448     13037.58     14214.44     78.97368     157.3253     314.1203      1.665     3.58     841.8817      55.3578     1179.628        37     1.486     1.082  59.85   0
       433    925.4064    337.6062 307.5461355  +6.5662709     905.9329     1361.135     1190.775     78.09964     156.8884     313.8704      1.623     5.14     839.8796      55.3578     138.9727        11     1.275     0.742  70.05   0
       434    770.0472    337.7490 307.6106701  +6.5610180     3112.642     4795.849     5094.225     78.84941     156.9508     314.1203      1.651     3.80     842.9458      55.3578     384.9806        23     1.403     0.903  53.17   0
       435    718.1394    337.2899 307.6322489  +6.5594702     774.6609     1128.665     825.2834     78.60028     157.2006     314.1203      1.570     4.66     843.1528      55.3578     114.3409         7     1.000     0.615 -89.15   0
       436    327.3858    335.5150 307.7946294  +6.5470958       1122.1     1592.696     1139.279     78.35036     156.8258     313.9329      1.632     5.01     844.3908      55.3578     149.9516        13     1.324     0.708  51.83   0
       437    263.2313    329.7413 307.8214738  +6.5473223     570.3959      897.724     1083.057     78.47542     157.0757     313.9954      1.758     3.43     845.9495      55.3578     95.34521         5     0.963     0.353  43.50   0
       438    163.0555    329.5353 307.8630924  +6.5440366     1146.968     1602.301      1265.94     78.84941     157.0133     314.0578      1.530     4.26     849.3759      55.3578     163.2154        13     1.251     0.727  39.95   0
       439    246.6079    323.5579 307.8285881  +6.5493158     2089.707     3234.346     3160.437      78.2251     156.8884     313.7767      1.677     4.36     846.3121      55.3578     277.5455        20     1.395     0.940  70.27   0
       440    390.7839    323.0827 307.7687140  +6.5543582     7153.045     11355.68     11723.89     78.35036     156.7633     313.9329      1.660     3.78     842.7844      55.3578     910.2992        33     1.490     1.077  60.39   0
       441    758.6705    318.9934 307.6160274  +6.5683800     52456.24     81016.59      84719.8      78.2251     156.7007     313.9329      1.637     3.89     842.1553      55.3578      6801.47        69     1.571     1.172  58.86   0
       442    744.4497    322.8435 307.6218054  +6.5663147     1044.273     1578.017     1889.066     78.72495     157.0133     314.0891      1.704     4.10     842.4364      55.3578     149.9725        11     1.079     0.709  47.71   0
       443    430.1023    318.3025 307.7525425  +6.5576519     2358.589     3867.154     3799.395     78.72495     157.5744     313.9017      1.759     3.58     841.9018      55.3578     335.2654        24     1.370     1.038  56.48   0
       444    993.4648    316.0283 307.5185868  +6.5774516     1761.088     2592.495     2252.875     78.35036     157.0757     313.9954      1.543     3.81     837.0612      55.3578     234.7654        15     1.220     0.831  55.28   0
       445    934.5090    315.1779 307.5431075  +6.5758339     2468.465     3625.596     3651.768     78.72495     156.8883     313.9329      1.496     3.66     838.3703      55.3578     335.4249        20     1.350     0.830  67.36   0
       446    576.4725    315.7867 307.6918238  +6.5636012     1261.823     1830.453     1293.645      78.2251     156.7633     313.8704      1.590     4.55     841.1225      55.3578     181.2344        15     1.337     0.758  59.68   0
       447    467.4822    315.0670 307.7371239  +6.5602423     1047.833      1684.32     2162.556     78.84941     157.3253     314.1203      1.709     4.48     841.2004      55.3578     144.4948        14     1.189     0.863  42.52   0
       448    416.8122    314.0692 307.7582062  +6.5589532     1864.566     2912.786     3507.652      78.2251     156.8883     313.9329      1.675     3.54     842.0118      55.3578      278.998        21     1.286     0.986  62.11   0
       449    296.7763    313.7478 307.8080802  +6.5550526     658.3313     941.4076     814.7851      78.2251     157.0757     313.9641      1.579     6.49     844.4043      55.3578     109.2595        10     1.150     1.029  72.47   0
       450    838.1371    308.6166 307.5833639  +6.5753219     1220.734     1774.051     1841.717      78.2251     157.0133     313.9017      1.545     3.77     841.2549      55.3578     196.7427        12     1.174     0.672  72.02   0
       451    466.8778    308.7815 307.7375871  +6.5628168     671.7617     1295.932      1514.91      78.2251     156.7633     314.0266      2.193     2.95      840.989      55.3578     116.3589         5     0.723     0.664 -50.66   0
       452    447.3877    305.4081 307.7457973  +6.5635552     1156.905      1787.03     2004.888     78.35036     156.8884     313.9954      1.645     5.63     841.2242      55.3578     152.6994        17     1.545     0.766  75.91   0
       453    193.3640    305.2835 307.8513235  +6.5550681       2265.5      3547.86     3846.376     78.72495     157.0757     313.9954      1.736     3.82     847.8107      55.3578     299.3499        20     1.250     1.013  64.43   0
       454    757.0711    303.6132 307.6172094  +6.5746758      6024.97     9095.189     9463.624      78.2251     156.8258     313.9329      1.609     3.77     841.4738      55.3578     801.1039        29     1.470     0.962  60.97   0
       455    229.0281    303.3021 307.8365758  +6.5570861      695.287     827.2958     737.7327     78.84941     156.8258     314.0266      1.502     5.49      846.231      55.3578     105.0029         8     1.281     0.665  24.05   0
       456    773.4835    301.5983 307.6104590  +6.5760567     2566.868     3747.802     4054.938     77.97398     156.6381     313.7767      1.635     3.82     841.3066      55.3578      371.407        21     1.361     0.910  59.28   0
       457    348.1777    303.1839 307.7870850  +6.5611412     555.5645     868.9739     587.6884     78.47542     156.8883     313.9954      1.528     3.97     843.3059      55.3578     70.33124         6     0.783     0.576  49.11   0
       458     89.4266    302.6879 307.8945858  +6.5526395     1242.781      1999.53      1974.11     78.84941     156.8258     313.9641      1.844     3.65     850.7985      55.3578     175.0125        13     1.076     0.856  59.53   0
       459    362.8671    296.3121 307.7812152  +6.5644715     1563.749     3450.472     3823.828     78.84941     157.2629     314.0891      2.247     6.00     842.8643      55.3578      187.446        30     1.707     1.267   6.00   0
       460     76.8238    296.8658 307.9000181  +6.5546182       1271.3     1946.625     2037.362     78.35036     157.0757     313.9954      1.582     4.95     850.8956      55.3578     157.8549        13     1.247     0.787  55.14   0
       461   1011.6876    292.4665 307.5118074  +6.5877867      6219.36     9210.101     9491.498     78.72495     157.2629     314.0578      1.630     3.90     836.7039      55.3578     823.7346        29     1.386     0.996  57.88   0
       462    489.8414    292.2693 307.7286050  +6.5704039     2010.334     3004.745     2622.836     78.60028     157.0757     314.1203      1.583     3.92     840.0889      55.3578     282.0826        21     1.458     0.869  62.45   0
       463    252.3113    287.8337 307.8274272  +6.5642548     5606.451     9067.697     10069.82     78.84941     157.0133     314.0578      1.738     3.65     844.9927      55.3578     712.6721        34     1.488     1.145  53.45   0
       464    817.0935    286.6302 307.5928456  +6.5836947     501.7592     950.5493     1332.276     78.84941     156.8258     313.9954      1.497     3.73     840.5541      55.3578      82.3465         6     1.204     0.332  50.85   0
       465    943.3747    283.0445 307.5405039  +6.5893955     576.3661     836.1897     511.0826      78.2251     157.1382     313.9329      1.472     3.93     836.9777      55.3578     95.00653         5     0.923     0.480  85.45   0
       466    771.6188    281.1530 307.6119217  +6.5844346     712.4354     1316.209     1284.278      78.2251     157.0757     313.8704      1.813     5.64      840.585      55.3578     128.7214         9     1.304     0.689  67.48   0
       467    228.9692    281.1296 307.8373504  +6.5662370     637.1239     784.3043     595.6445     78.60028     157.0757     314.0266      1.432     4.84      845.679      55.3578     109.7335         5     1.026     0.648  35.31   0
       468    791.7829    279.4352 307.6036026  +6.5858184     486.1354     412.0517     212.9586     78.35036     156.8883     313.8392      1.254     3.43     840.4894      55.3578     86.68158         5     1.205     0.283  54.00   0
       469    386.4908    278.6466 307.7719984  +6.5725577     1657.892      2694.74     2767.111     78.72495     157.0133     314.1827      1.758     4.10     841.9264      55.3578     210.4479        19     1.251     1.022  72.14   0
       470    973.3656    277.3565 307.5282354  +6.5927452     1079.258     1641.895     2271.366     78.47542     157.0757     313.9017      1.724     6.34     836.6927      55.3578     146.3643        16     1.229     0.992  76.13   0
       471    308.3743    274.3034 307.8045958  +6.5717255     1247.845     1755.517     1289.028     78.84941     156.8258     313.9641      1.512     3.82     843.4822      55.3578     178.7208        13     1.211     0.729  47.53   0
       472    156.0227    274.2379 307.8678858  +6.5666268     1654.586     2681.437     2987.758     78.35036     156.8258     313.8704      1.693     3.89     848.4331      55.3578      227.113        19     1.227     0.999  56.49   0
       473    909.4269    269.2639 307.5550703  +6.5939504     1772.401     2765.388      2934.37     78.35036     157.0133     313.9641      1.636     3.97     837.7369      55.3578     281.8312        18     1.426     0.830  59.53   0
       474    565.8507    270.0228 307.6977794  +6.5821372     2112.548     3354.987     2838.834      78.2251     157.1382     313.9641      1.597     3.92     839.3359      55.3578     311.7337        19     1.301     0.945  63.76   0
       475    729.5187    267.6241 307.6298670  +6.5886107     5142.865     7762.608     8497.792     78.47542     156.8258     313.9641      1.647     3.93     840.3952      55.3578     690.5483        26     1.398     0.970  57.36   0
       476    670.5004    267.6364 307.6543849  +6.5866294     2166.232     3347.883     3323.795     78.72495     156.9508     314.2451      1.616     3.94     840.0187      55.3578     275.0625        19     1.325     0.891  52.88   0
       477    967.5715    267.5814 307.5309708  +6.5965872     707.6534     1022.958     711.0779     78.35036     156.8884     313.9954      1.425     4.73     836.5858      55.3578     116.6754         7     1.367     0.464  66.82   0
       478    385.2469    261.4919 307.7730946  +6.5795975     676.8644     1224.126     926.5874     78.72495     157.0133     314.1827      1.541     4.67     841.5281      55.3578     147.1939         8     1.509     0.410  72.79   0
       479    925.5363    259.9700 307.5486900  +6.5983254      1099.06      1580.39     1541.292     78.47542     157.1382     313.9954      1.595     4.66     836.9941      55.3578      188.759        12     1.302     0.663  53.05   0
       480    228.9252    252.9949 307.8383205  +6.5778497     2180.877     3552.828     3488.165     78.35036     156.5755     313.9954      1.702     4.10     845.3938      55.3578     273.9429        23     1.422     1.034  68.14   0
       481    871.7675    251.9770 307.5712969  +6.5998283     1709.178     2528.711     2557.127      78.2251     156.8883     313.8392      1.581     4.34     838.3124      55.3578     225.5248        18     1.342     0.861  63.46   0
       482    762.0862    251.5747 307.6168773  +6.5963262     1487.528      2076.43     2600.109     78.84941     156.8883     313.9017      1.522     3.97     840.0868      55.3578     219.7034        16     1.237     0.880  72.23   0
       483    462.9623    242.7888 307.7414411  +6.5899280     21822.52     35083.83      36767.9      78.2251     156.8883     313.7454      1.698     3.75     838.4577      55.3578     2840.909        52     1.565     1.191  59.80   0
       484    788.9919    241.9685 307.6060227  +6.6011920     12827.41     20378.55     21970.15      78.2251     156.8883     313.8392      1.705     3.98     839.8787      55.3578     1651.392        55     1.609     1.306  37.23   0
       485    468.5833    237.5550 307.7392827  +6.5922773     1382.354     2454.237     3042.557      78.2251     156.9508     313.8392      1.970     5.07      837.987      55.3578     178.9389        15     1.316     0.779  61.33   0
       486    151.1558    236.0734 307.8711996  +6.5822173     2214.483     3481.705     3454.127     78.60028     157.1382     314.0891      1.635     3.86        846.9      55.3578     285.0849        20     1.326     0.925  57.88   0
       487    126.0030    234.9765 307.8816856  +6.5818230     1071.199     1943.657     1737.748     78.35036     156.7633     313.8704      2.083     5.48     848.0396      55.3578      148.811        14     1.423     0.758  71.01   0
       488    925.3488    232.4688 307.5496920  +6.6096723     1437.413     1974.538     1775.812     78.60028     156.9508     313.9954      1.549     4.48     836.7411      55.3578      219.497        14     1.296     0.792  63.87   0
       489    727.1960    237.5895 307.6318431  +6.6009318     644.9326     1230.365     869.3615     78.35036     156.7633     313.9641      1.879     6.99     839.6982      55.3578     91.69348        11     1.831     0.748  65.43   0
       490    587.0985    228.6412 307.6903475  +6.5999325     4598.794     6968.698     7066.816     78.72495     156.9508     314.2763      1.604     3.63     837.5328      55.3578     678.4399        26     1.382     1.001  58.44   0
       491    549.6778    228.6683 307.7058928  +6.5986666     1988.859      3233.66     3084.662     78.84941     157.2006     314.0578      1.719     3.98     837.7604      55.3578     262.2926        19     1.367     0.889  52.06   0
       492    307.5753    229.1493 307.8064542  +6.5903386      1033.22     1559.264     935.0247     78.35036     157.0757     313.9641      1.678     5.60     843.3257      55.3578     129.2825        13     1.235     0.831  62.25   0
       493    391.6062    227.5944 307.7715979  +6.5938044     1449.662     2386.086     2085.864     78.09964     156.8884     313.8704      1.750     4.18     840.5974      55.3578     190.8604        19     1.285     1.030  72.52   0
       494    947.9323    225.7597 307.5405349  +6.6131963     2527.484     3674.795     3441.211     78.60028     157.0133     314.1203      1.534     4.39     836.2943      55.3578     354.5089        19     1.365     0.791  56.03   0
       495    894.0389    225.2526 307.5629425  +6.6116051        11077     16710.48     17008.43     78.60028     157.0757     314.0578      1.589     3.96     836.8346      55.3578     1460.038        34     1.483     1.001  57.46   0
       496    980.7198    223.0837 307.5270028  +6.6153959     9821.462     14832.02     15356.19     78.60028     157.3253     314.1515      1.617     4.09     835.5157      55.3578     1247.328        37     1.521     1.020  59.13   0
       497    692.2159    223.0775 307.6468643  +6.6057514     2716.114     4334.837     4340.603     78.35036     156.7633     313.9329      1.619     3.77      838.637      55.3578     455.8384        24     1.632     0.866  56.73   0
       498    569.1313    225.2048 307.6979278  +6.6007488     765.5248     1245.702      1381.38      78.2251     156.7007     313.8704      1.705     4.48     837.4777      55.3578     110.5261         9     1.159     0.777  42.76   0
       499    321.3682    224.7212 307.8008740  +6.5926302     776.4731       1662.5     1892.879     78.60028     157.0757     314.0266      2.352     3.02      842.757      55.3578     127.3459         7     0.821     0.662 -77.24   2
       500    213.2930    224.6119 307.8457748  +6.5890404     691.6685     1140.939     1137.054     78.47542     156.8258     313.8704      1.792     4.07     845.3091      55.3578     109.7021         5     1.131     0.418 -38.06   0
       501     20.1921    221.6492 307.9260920  +6.5837587     25119.96      39783.6     41799.71      78.2251     156.8883     313.7142      1.697     3.63     850.6841      55.3578     3325.503        58     1.587     1.194  57.91   0
       502    266.7470    222.6452 307.8236353  +6.5916506      1247.75     1865.514     1648.926     78.72495     157.0757     314.0891      1.633     4.18     844.4647      55.3578     183.9305        13     1.214     0.798  64.66   0
       503    500.6937    217.7878 307.7266099  +6.6015150     2016.584     3222.266     3199.978     78.47542     156.8258     313.8704      1.745     4.05      836.948      55.3578     249.7684        22     1.430     0.952  51.83   0
       504    832.6044    214.4919 307.5888279  +6.6139937     1889.301     2888.958     2948.059     78.35036     156.7633     313.8392      1.686     4.33     837.5123      55.3578     245.3669        18     1.370     0.834  60.51   0
       505    885.0078    213.6415 307.5670849  +6.6160966     1944.446     3128.792      3809.29     78.09963     156.8883     313.7767      1.662     4.09     836.2729      55.3578     272.3864        17     1.335     0.808  60.23   0
       506    512.7590    213.8462 307.7217305  +6.6035470     2468.179     3753.876     3956.024     78.60028     157.0757     313.9017      1.636     3.92     837.0027      55.3578     324.1625        20     1.361     0.897  49.78   0
       507    744.2206    211.1184 307.6256614  +6.6124294     40019.98     61062.46     63614.62     78.47542     156.7633     313.9954      1.619     3.75     838.6292      55.3578     5622.787        60     1.552     1.135  59.40   0
       508    347.3070    210.4034 307.7905821  +6.5994126     5710.838     12026.66     13292.59     78.35036     156.7633     313.7767      2.222     5.62     841.4484      55.3578     624.2737        49     2.065     1.234 -88.29   0
       509    977.9399    209.9226 307.5285997  +6.6207363     2749.406     4244.165     4466.872     78.84941     157.1382     314.0266      1.636     3.96     834.7288      55.3578     409.2132        22     1.467     0.904  59.04   0
       510   1016.3602    208.5278 307.5126841  +6.6225947     1793.287     2650.613      2734.32     78.60028     157.0757     314.1203      1.623     4.88     833.7923      55.3578     245.6644        15     1.319     0.815  62.42  16
       511    912.1036    208.2017 307.5560104  +6.6192478     7624.417     11537.64     12144.99      78.2251     156.8258     313.7142      1.567     3.94     835.8136      55.3578     1080.999        33     1.478     0.974  60.71   0
       512    455.5977    207.3564 307.7456968  +6.6043077     4771.786     7670.765     7869.128     78.09964     156.6381     313.7142      1.729     3.77     837.5427      55.3578     584.4913        35     1.533     1.084  57.54   0
       513    230.0537    204.2693 307.8395003  +6.5980019      785.043      1390.35     1215.848     78.60028     157.0133     313.9641      1.957     6.35     845.0406      55.3578     113.2228        12     1.147     0.986  22.69   0
       514    113.0480    198.4637 307.8883041  +6.5964591     4695.243     7310.947     7534.502     78.60028     156.9508     314.0891      1.647     3.71     847.6958      55.3578      622.118        27     1.431     0.995  61.08   0
       515    932.1971    197.7725 307.5480127  +6.6242245     657.0602     1045.958     1528.265      78.2251     156.8258     313.8704      1.739     5.20     835.1191      55.3578     108.4814         7     1.176     0.649  88.94   0
       516    283.3206    195.2310 307.8176772  +6.6035247     32877.77     52751.83     55937.16     78.60028     157.0757     314.0266      1.728     3.82     843.8341      55.3578     4338.716        65     1.636     1.237  54.47   0
       517    258.7096    196.3367 307.8278641  +6.6022405     6588.542     10478.58     10797.06     78.72495     157.2006     314.1203      1.711     3.68     844.3786      55.3578     823.7699        33     1.462     1.105  58.27   0
       518     83.6356    197.7284 307.9005475  +6.5957717     466.4501     385.3816     175.4184     78.60028     157.0757     314.0578      1.259     3.93     848.8701      55.3578     84.87585         5     0.823     0.689 -39.46   0
       519    899.3861    196.7984 307.5616774  +6.6235303     376.6582     518.3108     551.7181     78.35036     156.7633     313.8392      1.663     4.13     835.2708      55.3578     73.22754         5     1.478     0.329  49.51   0
       520    610.0681    197.7809 307.6818452  +6.6134421      540.847     895.3046     1398.701     78.35036     156.9508     313.9641      2.078     4.80     836.4149      55.3578     96.04108         7     1.321     0.493  41.85   2
       521    610.0000    193.5203 307.6820171  +6.6151987     446.7133     910.9902     1128.909     77.97398     156.4502     313.7767      1.540     3.87     836.2962      55.3578     81.86194         5     1.488     0.289  90.00   3
       522    712.5822    194.4240 307.6393679  +6.6182620     934.3472     1287.199     1154.514     78.35036     157.0133     313.9954      1.560     4.85     837.3155      55.3578     125.5457        12     1.211     0.742  70.92   0
       523    407.3924    190.7292 307.7662849  +6.6095529     48720.61     77243.07     81234.65      78.2251     156.7007     313.9641      1.697     3.72     838.7125      55.3578     6391.665        70     1.636     1.206  56.49   0
       524    163.3480    192.0383 307.8676257  +6.6008056     3848.318     6213.363     6182.165     78.47542     157.1382     314.0578      1.688     3.53     845.4515      55.3578     562.1586        30     1.466     1.084  57.36   0
       525    424.8242    191.0655 307.7590316  +6.6099995     1360.813     2294.342     2058.911     78.35036     157.0757     313.9641      1.710     3.89     838.0511      55.3578     193.0746        15     1.350     0.837  69.44   0
       526    311.4376    188.4571 307.8062254  +6.6072665     18141.49     28082.84     29223.73     78.72495     157.1382     314.0578      1.712     3.72     842.6741      55.3578     2400.828        50     1.552     1.158  55.95   2
       527    318.9426    188.5751 307.8031035  +6.6074700     2044.874     3566.978      4091.33     78.35036     157.0757     313.9017      1.880     7.91     842.3505      55.3578     254.4061        31     2.211     1.181 -82.95   2
       528    746.6776    187.0056 307.6254523  +6.6224659     32797.92     50424.98     53213.31     78.35036     156.5755     313.8704      1.634     3.93     836.9422      55.3578     4155.549        56     1.562     1.107  58.60   0
       529    694.8268    188.8966 307.6469308  +6.6199493     946.3848     1440.886     1741.038     78.84941     156.8258     313.9954      1.799     5.17     836.8975      55.3578     152.1279        10     1.134     0.666  64.50   0
       530    795.0781    187.3369 307.6053323  +6.6239487     1143.561     1671.196     1602.983     78.97368     157.1382     314.0578      1.600     5.08     836.4113      55.3578      159.353        14     1.253     0.821  63.30   0
       531     34.7760    188.1698 307.9211687  +6.5980705     584.3029     717.0649     957.4061      78.2251     156.9508     313.9017      1.409     3.37     850.6733      55.3578     101.7734         5     0.963     0.342  41.97   0
       532     63.4908    184.1490 307.9093763  +6.6006983     9002.975     14323.42     15035.57     78.72495     156.8883     314.2139      1.712     3.77     849.4806      55.3578     1161.236        39     1.518     1.116  66.17   0
       533    936.1681    184.1688 307.5468199  +6.6299730     377.1075     234.5049    -25.33229      78.2251     156.8258     313.8079      1.334     3.67     834.2412      55.3578     82.74237         5     1.177     0.330 -81.04   0
       534     97.4477    182.4319 307.8953279  +6.6025514     1450.744     2280.406     2071.229     78.47542     157.0757     313.9641      1.684     3.24     847.9303      55.3578     254.3961        14     1.155     0.778  43.00   0
       535   1005.1483    181.4678 307.5182509  +6.6333915     1256.709     1967.502     2168.816     78.60028     156.9508     314.0266      1.674     4.60     832.0487      55.3578     173.1774        13     1.261     0.704  63.24   0
       536    972.7850    180.5523 307.5317279  +6.6326890     533.0388     684.9418     620.1974     78.09964     157.0133     313.8079      1.690     5.72     832.9884      55.3578     89.38843         6     1.121     0.821  52.65   0
       537    731.2874    175.0916 307.6322476  +6.6268690     678.9481     808.5671     748.9493     78.72495     157.5122     314.1827      1.493     4.72     836.2372      55.3578     86.51794         6     0.960     0.659  14.36   0
       538    580.3967    171.7709 307.6950494  +6.6231848       798.78     1158.455     743.3804      78.2251     156.8258     313.9017      1.564     5.24     835.8992      55.3578     104.5688        10     1.105     0.926  45.05   0
       539   1006.1981    168.0872 307.5182641  +6.6389504     2206.333     3512.751     4220.122     77.97398     156.7007     313.7767      1.944     6.94     831.0897      55.3578     307.0971        24     1.851     0.894  66.98   0
       540    589.1111    165.0286 307.6916562  +6.6262602     990.7253     1514.927     1473.354     78.84941     156.8258     313.9641      1.638     4.86     835.6174      55.3578     176.1805         9     1.228     0.545  63.48   0
       541    597.5953    163.4215 307.6881855  +6.6272081     2043.138     3093.462     3335.023     78.35036     156.8258     313.8704      1.713     4.26     835.4759      55.3578     250.8742        21     1.396     0.973  59.93   0
       542    282.2423    161.5066 307.8192657  +6.6174101     30467.81     47871.86     51057.62     78.84941     157.0133     314.1827      1.717     3.69     843.4372      55.3578     4009.203        60     1.606     1.216  57.61   0
       543    341.6897    163.1821 307.7945118  +6.6187170     988.1306      1696.94     1499.684     78.47542     156.8258     313.9641      1.687     3.72      841.034      55.3578     140.7733        11     1.005     0.855  36.27   0
       544     27.5223    159.9759 307.9251379  +6.6094643     4337.964     6929.611     7401.117     78.35036     156.9508     314.0266      1.679     3.56     851.2896      55.3578     552.3387        32     1.530     1.071  53.42   0
       545    713.9598    158.2570 307.6400136  +6.6332385     8010.991     12046.69     13023.09     78.72495     157.1382     314.0891      1.605     3.85      835.236      55.3578     1044.374        33     1.414     1.034  55.22   0
       546    191.5454    159.4220 307.8570158  +6.6152189     851.2375     1263.075     1230.913      78.2251     157.0757     313.8704      1.691     4.90       845.03      55.3578      123.951         9     1.077     0.631  82.98   0
       547    268.4433    156.2708 307.8251756  +6.6191073     769.7656     1247.743     1178.697     78.60028     157.0757     314.0891      1.751     4.27     843.7814      55.3578     121.2064         8     0.958     0.773  69.12   0
       548    124.6277    155.1044 307.8849622  +6.6147479     4856.572      7445.64     7336.393     78.84941     156.8258     313.9641      1.640     3.62      846.044      55.3578     636.8122        29     1.446     1.015  63.20   0
       549    652.8029    152.7658 307.6656076  +6.6334571     795.8784     1274.359     914.6365     77.97398     156.8883     313.8079      1.665     4.53     835.1105      55.3578     139.6985         8     1.155     0.520  59.36   0
       550    586.6342    153.3231 307.6930800  +6.6310094     653.7321     881.8951     755.0944     78.60028     157.0757     314.0266      1.588     5.49     835.2518      55.3578      94.0517         8     1.173     0.724  48.66   0
       551    395.2564    151.3383 307.7726575  +6.6254062     3806.477     6316.696     5989.402     78.84941     157.0757     314.0891      1.769     3.78     838.0074      55.3578     490.4767        27     1.474     1.006  62.13   0
       552    359.8271    150.1151 307.7874182  +6.6247208     3152.818     4940.346      5167.04     78.84941     156.8258     313.9329      1.684     3.69     840.1166      55.3578     420.4751        26     1.438     0.996  53.67   0
       553    114.2123    149.9478 307.8894638  +6.6165256     1716.784     2702.319     3088.989     78.09964     157.0133     313.7767      1.675     3.80     846.1735      55.3578     265.6365        20     1.306     1.010  53.16   0
       554    463.5002    152.6141 307.7442618  +6.6271712     1158.655     1938.819     1640.401     78.72495     156.8258     313.7767      1.694     4.56     835.9566      55.3578     188.0332        18     1.491     0.891  68.83   0
       555    675.7781    148.1144 307.6562187  +6.6361469     803.8897     1239.023     649.4553     78.72495     156.8258     313.9641      1.528     4.43     834.9078      55.3578     123.3966         8     1.334     0.419  52.44   0
       556    750.1691    147.7674 307.6253227  +6.6387810     529.9435      861.623     572.1232      78.2251     156.8258     313.7767      1.636     3.40     834.5141      55.3578     83.84009         5     0.968     0.346  46.65   0
       557   1006.7123    144.4805 307.5188431  +6.6487129     1456.425     2275.026     2320.902     78.47542     157.3253     314.1827      1.585     3.96     830.0086      55.3578     217.9221        16     1.361     0.749  58.19   0
       558    211.6383    139.0377 307.8493582  +6.6243099     5188.112     8158.974     8352.318     78.47542     156.9508     313.9329      1.649     3.53     844.9048      55.3578      708.743        29     1.422     1.014  61.65   0
       559    673.4412    137.8748 307.6575346  +6.6402957     6133.966     9464.569     9798.427     78.60028     157.0757     314.0891      1.642     3.65     834.4888      55.3578     859.5663        32     1.476     1.015  56.75   0
       560     94.3621    138.8379 307.8980868  +6.6204430     2197.083     3623.149     4054.311     78.47542     156.9508     313.9329      1.846     4.14      846.356      55.3578     261.5374        22     1.352     1.021  65.29   0
       561    821.8394    138.1564 307.5958684  +6.6451464     950.8286      1654.92     1626.699     78.47542     157.0757     313.9329      1.769     5.95     833.3239      55.3578     146.4366        13     1.573     0.634  54.72   0
       562    625.5865    135.1301 307.6775097  +6.6398254     9269.656     14773.53     16922.19      78.2251     156.8258     313.9329      1.757     4.11     834.4614      55.3578     1242.719        40     1.573     1.083  59.71   0
       563    260.6730    135.9375 307.8290916  +6.6272396      674.546     909.4446     984.0538     78.84941     157.0757     314.1203      1.472     3.72     843.8249      55.3578     104.7521         5     0.819     0.484  37.60   0
       564     24.0655    134.5619 307.9274357  +6.6198385     737.2045     1448.808     574.4333     78.60028     157.0133     314.1203      1.916     6.56      851.032      55.3578     97.87775        11     1.331     0.908  81.67   0
       565    352.9272    130.8146 307.7909371  +6.6324563     4365.209     7097.833     7361.367      78.2251     156.8258     313.9641      1.706     4.47     840.5275      55.3578     912.1349        35     1.493     1.213 -71.94   0
       566    534.6045    130.2926 307.7154736  +6.6387718     1708.123     2506.288     2248.744     78.35036     156.7633     313.8079      1.600     4.52     834.8018      55.3578     233.0759        14     1.316     0.693  60.81   0
       567    629.1711    126.6856 307.6763050  +6.6434315      52622.1        81421     85733.23     78.84941     156.7633     313.9017      1.669     3.74     834.1752      55.3578     6920.017        66     1.605     1.187  58.00   0
       568    998.9269    129.6173 307.5225771  +6.6545889     748.5121     1282.524     1377.029      78.2251     157.0133     313.9641      1.826     4.91     829.7937      55.3578     104.6158         8     1.060     0.686  87.09   0
       569    308.2458    120.5237 307.8098484  +6.6352024     3674.978     5654.784     6307.339     78.60028     157.1382     314.0891      1.718     3.68     842.0081      55.3578     475.5572        25     1.392     1.001  66.96   0
       570    708.1619    115.6073 307.6438589  +6.6506509     936.4599     1375.413     1281.734     77.97398     156.8258     313.7767      1.508     6.22     833.3635      55.3578      136.608        12     1.638     0.674  63.61   0
       571    679.7257    113.6990 307.6557381  +6.6504863     1253.274     2053.602     2542.747      78.2251     157.2006     314.0266      1.841     4.54     833.4224      55.3578     164.3694        15     1.212     0.907  69.42   0
       572      5.8249    103.4020 307.9360702  +6.6320860     734845.9      1651910      1791811     78.35036     156.7633     296.0892      2.225     5.30     851.9111      55.3578     61646.09       320     2.117     1.737  67.42  28
       573    693.5704    110.5815 307.6500908  +6.6522370     3178.854     5027.454     5007.437     78.35036     156.8884     313.9954      1.696     4.22     833.2156      55.3578      458.991        25     1.363     1.025  63.23   0
       574    435.3568    101.6230 307.7576763  +6.6472758     4224.256     6409.827     6365.249      78.2251     156.9508     313.8704      1.616     3.58     835.5804      55.3578     555.8659        26     1.382     0.976  67.25   0
       575    889.9215     98.0372 307.5689299  +6.6639847     2074.417     3197.659     2974.965     78.60028     157.1382     314.0578      1.583     4.40     831.6059      55.3578     271.0057        17     1.344     0.791  55.42   0
       576    907.8329     97.0802 307.5615199  +6.6649783     3925.659     5993.197     6058.749     78.60028     157.0757     314.0578      1.619     4.60      831.041      55.3578     538.7106        22     1.379     0.904  59.91   0
       577    587.9405     97.9626 307.6944041  +6.6539067     740.4434     1114.764     1415.475     78.72495     157.1382     314.0578      1.520     3.97     833.3943      55.3578      123.735         8     0.930     0.783  39.80   0
       578    600.0997     95.5633 307.6894329  +6.6553048     1709.204     2352.542     2009.486     78.72495     156.9508     314.2763      1.531     4.31     833.3022      55.3578     198.6078        15     1.142     0.867  62.68   0
       579    245.8871     95.6117 307.8365988  +6.6433887     708.2664     1384.465     1911.682     78.35036     156.8258     313.9329      2.335     5.45     844.1172      55.3578     102.9425         8     1.209     0.692  27.19   0
       580    398.7083     93.3295 307.7731831  +6.6494686     1826.666     2820.381     2906.552     78.60028     157.2006     314.0891      1.639     3.86     837.2797      55.3578      253.822        15     1.243     0.842  58.48   0
       581    146.6499     90.4160 307.8780042  +6.6421929     3218.244     5099.221     5262.546      78.2251     157.1382     313.7767      1.732     3.82     842.9049      55.3578     445.1362        24     1.422     0.971  69.60   0
       582    294.8848     88.6453 307.8164775  +6.6479126     1323.161     2386.523     2939.629     78.72495     157.0133     314.0578      1.991     5.93     842.1079      55.3578     170.4058        16     1.407     0.865  54.32   0
       583     28.5354     88.1268 307.9271532  +6.6391573     12365.49     19190.52     20326.37     78.84941     157.0757     314.0578      1.677     3.63     848.9281      55.3578     1647.666        40     1.490     1.120  58.75   0
       584    555.5024     87.7963 307.7082246  +6.6570157     915.2382     1287.266     1405.363     78.47542     156.7633     313.7454      1.744     5.75     833.2111      55.3578     122.6233        11     1.340     0.695  60.39   0
       585    949.7684     87.0416 307.5444328  +6.6705235     491.6043     632.1654     310.6645      78.2251     156.9508     313.9017      1.796     5.02      829.572      55.3578      84.9541         5     1.492     0.477  65.05   0
       586    762.9774     87.6202 307.6220258  +6.6640394     800.1655     1181.785      1447.66     78.47542     156.9508     313.9954      1.656     5.33     832.0684      55.3578     104.7612         9     0.992     0.810  31.04   0
       587    567.8620     87.8165 307.7030886  +6.6574219     674.4621     1130.019     1391.886      78.2251     157.0133     313.8704      1.627     3.89     833.1774      55.3578     91.43237         6     0.769     0.564  52.83   0
       588    986.0779     86.5389 307.5293627  +6.6719436     463.0622     930.8908     605.6025     78.84941     157.1382     314.0266      1.514     3.76      828.503      55.3578     79.09131         6     1.191     0.340  49.65   0
       589    157.7068     86.6391 307.8735384  +6.6441244     446.0965     752.1329      888.245     78.84941     157.0133     314.1515      2.028     3.86     842.6791      55.3578     81.46857         5     1.374     0.311  59.36   0
       590    896.9891     83.0051 307.5664987  +6.6704264     501.6162     829.5984     343.9698     78.35036     156.8258     313.9641      1.389     4.42     830.8552      55.3578     96.07855         6     1.025     0.542 -77.02   2
       591    830.2006     82.8171 307.5942560  +6.6682711      6176.03      9493.33     10569.49     78.35036     156.6381     313.7454      1.632     3.99      831.769      55.3578     869.3124        31     1.475     0.992  58.14   0
       592    775.2294     83.1993 307.6170839  +6.6662744      3181.01     4935.187     5231.004     78.09964     156.8883     313.8704      1.613     4.10     831.9197      55.3578      459.939        21     1.406     0.867  66.56   0
       593    420.2851     83.4331 307.7645527  +6.6542787     1126.058     1582.996     1642.073     78.72495     156.8884     314.0266      1.518     3.46     836.1733      55.3578     160.0732        12     1.079     0.750  62.30   0
       594    761.8260     82.2632 307.6226845  +6.6662123     614.3405     965.6844     1689.083     78.35036     157.0757     313.9954      2.043     4.85     831.8974      55.3578     83.09857         7     1.007     0.662  85.50   0
       595    537.7966     81.0923 307.7158073  +6.6591893     1164.638     1887.229       1906.5     78.35036     156.7633     313.8392      1.642     4.28       833.15      55.3578     145.5827        13     1.170     0.893  78.19   0
       596     68.8983     80.0193 307.9106591  +6.6438648     3257.582     5042.406       5120.2     78.72495     156.9508     313.8079      1.622     3.88     845.4548      55.3578     421.9348        26     1.503     0.951  66.87   0
       597     53.4382     80.5705 307.9170634  +6.6431162     997.7614     1514.174     1076.442     78.35036     156.8258     313.9329      1.644     5.59     846.5899      55.3578     126.2774        11     1.271     0.692  65.74   0
       598    429.9872     79.5494 307.7606528  +6.6562077     847.1868     1515.031     1583.183     78.09964     157.0133     313.7767      1.836     4.69     835.8486      55.3578     141.3879        10     1.094     0.621  64.64   0
       599    592.5903     76.8512 307.6931841  +6.6627776      1177.67     1778.023     1478.511      78.2251     156.9508     313.7767      1.585     4.54     832.8132      55.3578     172.9908        14     1.273     0.749  66.45   0
       600     11.0619     75.4686 307.9348419  +6.6437933     2500.179      4199.63     5111.366     78.72495     157.0133     314.0891      1.860     4.54     848.6811      55.3578     330.6167        23     1.492     0.955  44.85   0
       601    410.8993     70.9982 307.7688724  +6.6590966     1084.209     1716.745     1858.715      78.2251     156.8258     313.7767      1.723     5.84     836.9565      55.3578     143.1689        13     1.424     0.846  61.72   0
       602    769.9242     70.6891 307.6197093  +6.6712613     2048.123     3214.983     3826.311     78.72495     157.3876     314.1515      1.749     3.94     831.5764      55.3578     267.0597        18     1.303     0.850  61.34   0
       603     83.7104     71.1602 307.9048055  +6.6480211     916.1158     1589.668     1480.039     78.72495     157.0757     314.0891      1.737     5.14     844.1242      55.3578      118.205        10     1.117     0.822  74.73   0
       604    661.7362     70.3744 307.6646724  +6.6677687       606.53     954.0547     1008.171     78.35036     157.0757     313.9954      1.787     4.72     832.3004      55.3578     94.71643         6     0.945     0.669 -74.01   0
       605    107.6928     69.8286 307.8948868  +6.6493789     871.9388     1485.756     1707.732     78.84941     156.8258     313.9641      1.842     3.77     843.2273      55.3578     126.8084         8     0.979     0.610  80.03   0
       606     96.5612     64.2992 307.8996990  +6.6512863     9428.993     14703.24      15253.6     78.72495     156.9508     314.2763      1.699     3.67     843.2478      55.3578     1232.128        41     1.566     1.104  61.40   0
       607    425.7843     64.3063 307.7629139  +6.6623590     2528.857     3994.059     3720.311     78.47542     156.8883     313.9017      1.650     4.19     836.2875      55.3578     355.4816        25     1.548     0.970  49.34   0
       608    246.9994     63.5314 307.8372222  +6.6566689     717.6399     1014.273     1571.145      78.2251     156.5755     313.8704      1.573     5.19      843.128      55.3578     101.0204         8     1.226     0.621  40.96   0
       609    263.2621     58.2374 307.8306446  +6.6594014      1470.18     2582.217     3846.096     78.72495     157.1382     314.0578      2.398     4.16     842.6798      55.3578     225.6545        19     1.449     0.859  67.71   0
       610    639.3301     56.4389 307.6744519  +6.6727707     18659.81     28223.56     29761.22     78.60028     157.0757     314.1203      1.645     3.81     832.1004      55.3578     2654.446        46     1.536     1.086  54.61   0
       611    257.4494     52.7778 307.8332443  +6.6614596     1997.452     3341.193     4935.271     78.35036     157.1382     313.9641      2.229     4.29     842.6672      55.3578     253.7568        22     1.436     0.998  61.74   1
       612    539.1132     52.5280 307.7162241  +6.6710250     5292.958      7967.35     8422.429     78.84941     157.3253     314.0578      1.615     3.73     832.3918      55.3578     656.2614        27     1.420     0.993  57.15   0
       613    265.2203     48.4969 307.8301605  +6.6634882      9435.37     14750.58     16432.37     78.60028     156.8884     313.8392      1.731     3.84      842.472      55.3578     1270.582        41     1.512     1.167  64.93   0
       614    625.7266     47.0779 307.6804198  +6.6761791     2957.112     5369.785     6697.952     78.97368     157.3253     314.0891      2.149     6.14     831.9206      55.3578       433.11        32     2.111     0.933  67.74   0
       615    444.6203     48.0815 307.7556357  +6.6696892     22400.78     35195.89     36452.31     78.47542     156.7633     313.9954      1.671     3.68     835.2419      55.3578     2867.338        52     1.553     1.157  56.90   0
       616      6.3441     50.5199 307.9376481  +6.6539327     1272.927     2070.295     2054.737     78.84941     157.0757     301.1139      1.750     4.62     845.8654      55.3578      161.052        13     1.199     0.800  79.26  16
       617    922.5191     48.2716 307.5570582  +6.6856182      2022.11     2934.653     2978.783     78.97368     157.3876     314.0891      1.597     4.07     829.3871      55.3578     277.5696        17     1.327     0.818  57.11   0
       618    325.1591     48.6798 307.8052506  +6.6654284     1064.645     1655.357     1581.745     78.72495     157.0757     313.9954      1.670     5.01     841.1885      55.3578     143.0015        12     1.135     0.823  47.76   0
       619     30.6047     48.0417 307.9276527  +6.6557740     2394.395     3917.242     4059.679     78.09963     156.7633     313.7767      1.701     3.66     844.7675      55.3578     325.4028        22     1.310     1.001  45.02   0
       620    695.4021     51.6453 307.6513151  +6.6766280     523.3417     936.4938     900.5099     78.09964     156.7007     313.6829      1.579     5.61     831.6301      55.3578     70.11182         5     1.259     0.705  43.29   0
       621    253.1584     44.9396 307.8352924  +6.6645508     3094.343     5039.678     5790.805     78.72495     157.0757     314.1203      1.796     4.15     842.5172      55.3578     417.6364        26     1.499     0.963  63.23   0
       622    305.9007     43.5022 307.8134273  +6.6669182     1074.305     1766.748     2679.091     78.72495     157.4499     313.9017      2.223     6.04     841.7302      55.3578     136.9619        14     1.300     0.958  40.82   0
       623    942.8849     38.3459 307.5489294  +6.6903960     1042.907       1471.3     1674.912     78.72495     157.0757     314.2139      1.453     3.70     828.3596      55.3578     166.9825         9     0.958     0.804  32.65   0
       624    694.6636     37.7788 307.6520892  +6.6823275     1824.688     2712.495     2622.305     78.35036     157.0757     313.9329      1.567     3.74     831.3311      55.3578     253.7668        16     1.285     0.797  61.47   0
       625     99.6746     37.6795 307.8993075  +6.6623797     623.7457     1077.949     830.8923     78.97368     157.3253     314.1203      2.115     4.05     842.6585      55.3578     99.44788         6     0.872     0.538 -46.44   0
       626    260.2139     32.5370 307.8327806  +6.6699080     879.8145     1443.005      1693.04      78.2251     156.8883     313.9017      1.719     4.55      842.211      55.3578     122.8276        10     1.185     0.612  55.04   0
       627    182.7471     30.4390 307.8650379  +6.6681668     10809.97     16852.65     17393.04     78.60028     157.1382     314.0578      1.688     3.63       842.15      55.3578     1398.457        40     1.485     1.141  62.28   0
       628    928.3470     28.2901 307.5553082  +6.6940616     4117.738     5774.706     5642.224     78.72495     156.8884     314.1827      1.528     3.94     828.9066      55.3578     525.3145        22     1.401     0.901  62.62   0
       629    526.9460     28.6223 307.7220862  +6.6804853     2918.552      4446.76     4142.345      78.2251     157.0757     313.8704      1.588     3.65     831.8184      55.3578     408.7681        22     1.352     0.922  65.66   0
       630    729.2366     27.0002 307.6380866  +6.6879348     1911.546     2938.239     2547.775     77.72204     156.8883     313.8704      1.527     3.66     830.5223      55.3578     283.2654        19     1.324     0.871  64.67   0
       631    465.2842     27.2843 307.7477522  +6.6789682     1866.771      2793.75     3149.147     78.47542     157.2006     314.1515      1.578     3.54     833.4367      55.3578     297.7867        16     1.229     0.810  67.13   0
       632    993.0616     24.6378 307.5285401  +6.6977307     1910.991     3103.451     3079.603     78.72495     157.1382     314.0578      1.701     4.20     824.9092      55.3578     236.0407        21     1.257     1.085  46.72   0
       633    787.7384     23.7759 307.6138865  +6.6912239     498.8416     707.0808     303.1169     78.35036     157.0133     313.9641      1.542     3.93     830.1771      55.3578     93.40576         5     0.896     0.494  44.01   0
       634    977.9574   1020.5051 307.5013859  +6.2861045     534.8651     934.7239     1084.346     78.72495     157.0133     281.7315      1.834     5.85      858.275      55.3578     88.68835         7     1.648     0.584  73.15  16
       635    632.6909     20.3575 307.6784268  +6.6874430     3769.267     5900.363     6076.788     78.72495     157.0757     314.1515      1.716     4.02     831.2681      55.3578      473.932        25     1.470     0.919  56.62   0
       636    706.0200   1018.4464 307.6143615  +6.2778664      456.258      812.272     961.2173     78.35036     157.0757     302.7702      1.793     4.09     862.5051      55.3578     81.37311         5     0.778     0.614  87.22  16
       637    549.1649   1012.4763 307.6796863  +6.2750779     4118.883     6869.035     7686.904     78.60028     157.1382     314.0891      1.845     4.14     864.3769      55.3578     574.9014        33     1.677     1.077  63.59   3
       638    546.5157   1004.7200 307.6810474  +6.2781911     8182.663     12826.42     13550.59     78.60028     157.3876     314.1515      1.691     3.68     864.3096      55.3578      1066.31        39     1.536     1.112  56.75   3
       639    679.8874     15.3973 307.6589830  +6.6910720     792.0671     1128.371     688.3176     78.09964     156.7007     313.8079      1.446     4.49       831.12      55.3578     124.3303         8     1.082     0.530  55.65   0
       640    753.7964   1011.9977 307.5947421  +6.2821269     7761.593     12472.07     13022.23     78.09964     156.6381     313.8079      1.699     3.71     861.9576      55.3578     956.0967        37     1.494     1.112  56.20   0
       641    519.5059   1013.6690 307.6919599  +6.2735914     1079.959     1665.299     1524.258     78.60028     157.2006     314.0891      1.737     5.62     864.9941      55.3578     128.2714        11     1.132     0.786  66.61   0
       642    299.5526   1011.1194 307.7833646  +6.2672620     14737.28     23680.97     26192.07     78.72495     157.0757     314.0891      1.786     3.85     865.0122      55.3578     2012.841        58     1.576     1.506 -49.06   0
       643    814.9274   1011.5353 307.5693765  +6.2843620     985.8524     1729.005     1965.163     78.72495     157.0757     314.0891      1.832     5.24     860.9602      55.3578     153.9224        14     1.482     0.739  58.94   0
       644    423.5740   1011.8142 307.7318511  +6.2711394     938.2698     1400.782     1536.525     78.47542     156.8883     313.9954      1.594     4.27     865.1076      55.3578     123.7528         9     1.081     0.587  27.33   0
       645    270.8143   1008.9398 307.7953694  +6.2671961      1021.03     1752.671     1544.305      78.2251     156.9508     313.8079      1.888     5.93     864.6033      55.3578      134.975        13     1.351     0.732  68.63   0
       646    915.1765   1005.4523 307.5279575  +6.2902227     8043.307     13914.31     14799.11      78.2251     157.0757     313.9329      1.843     3.90      859.186      55.3578      981.863        44     1.629     1.223  57.59   0
       647   1010.4432   1001.0585 307.4885499  +6.2952167     4354.436     7709.782     7939.419     78.60028     157.0133     314.1515      1.867     4.22     857.0936      55.3578      489.387        36     1.625     1.183  53.28   0
       648    888.8121   1001.6155 307.5390329  +6.2909261     11422.01     19948.71     21796.81     78.60028     156.7633     313.9954      1.871     3.78     859.7192      55.3578     1488.425        51     1.642     1.329  49.59   0
       649    601.5694   1002.1828 307.6582754  +6.2810832     1359.747     2206.903     2311.375     78.35036     156.8883     313.9641      1.761     4.70     863.8668      55.3578     162.5266        16     1.317     0.912  44.80   0
       650    533.1280   1000.5952 307.6867448  +6.2794451     4260.981         6801     7824.083     78.35036     156.6381     313.9641      1.844     3.78      864.512      55.3578      561.503        35     1.863     1.108  35.43   0
       651    642.3065    999.6226 307.6414479  +6.2835045     1270.491      2181.66     1807.595     78.72495     156.8884     313.9017      1.721     4.71     863.0637      55.3578     167.4937        17     1.371     0.974  73.17   0
       652     68.2282    999.0850 307.8798082  +6.2644494     831.2668     1334.127     984.2361     78.84941     156.7633     313.9329      1.548     4.64     861.8619      55.3578     154.5455        10     1.374     0.731  68.57   0
       653    486.0526    996.9288 307.7064132  +6.2793803     2016.344     3220.176     3193.947     78.60028     157.0133     314.0266      1.684     4.53     865.3146      55.3578     274.4164        19     1.336     0.986  52.19   0
       654    920.4960    989.1403 307.5262964  +6.2971345     40978.45     68515.52     73259.34     78.60028     157.0757     314.1515      1.806     3.81     858.6947      55.3578     5061.227        76     1.698     1.318  58.95   0
       655    227.6208    987.1901 307.8140367  +6.2747227     1770.907     2729.568     3238.084     78.35036     156.7633     313.8704      1.740     4.50     863.4008      55.3578     206.7316        17     1.260     0.923  71.65   0
