#   1 NUMBER                 Running object number                                     
#   2 X_IMAGE                Object position along x                                    [pixel]
#   3 Y_IMAGE                Object position along y                                    [pixel]
#   4 ALPHA_J2000            Right ascension of barycenter (J2000)                      [deg]
#   5 DELTA_J2000            Declination of barycenter (J2000)                          [deg]
#   6 FLUX_APER              Flux vector within fixed circular aperture(s)              [count]
#   9 FLUXERR_APER           RMS error vector for aperture flux(es)                     [count]
#  12 FLUX_RADIUS            Fraction-of-light radii                                    [pixel]
#  13 FWHM_IMAGE             FWHM assuming a gaussian core                              [pixel]
#  14 BACKGROUND             Background at centroid position                            [count]
#  15 THRESHOLD              Detection threshold above background                       [count]
#  16 FLUX_MAX               Peak flux above background                                 [count]
#  17 ISOAREA_IMAGE          Isophotal area above Analysis threshold                    [pixel**2]
#  18 A_IMAGE                Profile RMS along major axis                               [pixel]
#  19 B_IMAGE                Profile RMS along minor axis                               [pixel]
#  20 THETA_IMAGE            Position angle (CCW/x)                                     [deg]
#  21 FLAGS                  Extraction flags                                          
         1      8.8598     88.3410 307.9360979  +6.6321080     743986.2      1707315      1893004     78.20011     156.0286     311.9951      2.285     5.74     838.8251     54.98875     61986.36       458     2.332     1.876  73.93  28
         2    185.8598     15.4207 307.8650273  +6.6681685     10164.92     16315.11     17192.17     77.82803     155.9045       311.84      1.722     3.61     831.2214     54.98875     1451.803        46     1.610     1.154  62.32   0
         3    529.9435     13.6963 307.7221263  +6.6804347     2838.304     4469.057     4568.275     78.07628     155.9666     312.1812      1.665     3.65     820.6743     54.98875     397.5779        24     1.430     0.942  65.75   0
         4    931.4412     13.0757 307.5553249  +6.6941212     3813.995     5987.264     5940.263     78.07628     156.0286     311.9951      1.640     3.73     817.7671     54.98875     503.2615        26     1.414     0.967  75.74   0
         5    468.1370     12.1596 307.7478579  +6.6789966     1724.085     2628.365     2653.844     78.20011     155.9666     311.9951      1.570     4.01     821.3954     54.98875     239.3591        19     1.392     0.907  75.60   0
         6    732.3301     11.7738 307.6381003  +6.6880053     1907.653      2859.92     2869.827     77.82803     155.9045     311.9021      1.562     3.82     820.5655     54.98875     280.6121        21     1.408     0.875  64.79   0
         7    996.3783      9.4156 307.5284654  +6.6977990     1902.507     3314.061     3203.582     77.95225     155.8424     311.9021      1.830     4.70     815.7571     54.98875     234.3502        24     1.520     1.025  71.98  16
         8    715.6108      5.9841 307.6452416  +6.6898360     7013.265     10715.84     10945.33     77.95225     155.7182     295.7229      1.615     3.50     820.4194     54.98875     974.2946        32     1.470     0.990  64.86  16
         9    635.8331      5.2090 307.6784152  +6.6874859     3545.839     5586.188     6006.004      77.7036     155.8424     287.7966      1.682     3.66     820.2399     54.98875     497.4313        26     1.423     0.962  64.66  16
        10    337.5355      4.8333 307.8023673  +6.6776374     833.2228     1477.123      1478.04     78.07628     156.0286     283.7675      1.705     5.91     830.4671     54.98875     119.6714         9     1.259     0.782  27.69  16
        11    391.3934      3.0433 307.7800507  +6.6801847     767.6487     1310.613     1293.857      77.7036     145.7025     260.5144      1.755     5.47     827.4852     54.98875       99.625         9     1.235     0.684  67.60  24
        12     37.2811      1.9013 307.9272128  +6.6687472     6692.254     8547.551     8748.936     74.26536     132.5582     243.9419      1.322     3.11     831.0901     54.98875     1158.703        28     1.401     0.925   6.17  24
        13    436.1746      2.1094 307.7614762  +6.6820732     5591.879     7082.864     7508.065     76.19465     134.7303     246.8989      1.368     3.17      823.815     54.98875     875.5019        22     1.149     0.965  17.51  24
        14    549.7014    989.6827 307.6811156  +6.2781926     7563.506     12528.78     13242.07     78.20011     156.4002     312.0572      1.770     3.63      855.679     54.98875      981.017        41     1.590     1.160  65.43   3
        15    724.1949   1022.0073 307.6075874  +6.2706864     6347.483     10397.73      11182.5     77.57897     145.1036     259.8077      1.769     3.87     854.4422     54.98875     802.6787        33     1.457     1.180  47.11  24
        16    590.9014   1023.4737 307.6628764  +6.2656223     21385.19     26942.27     28635.41     70.24799     127.0419     237.7957      1.198     3.10      857.072     54.98875     5053.553        40     1.588     0.764   1.04  24
        17    580.2675   1021.3089 307.6673638  +6.2661600     3757.484       6535.4     7097.693     78.32375     151.8805     269.6042      1.842     3.93     856.8973     54.98875     457.7269        35     1.587     1.170  66.75  24
        18    438.9710   1021.9857 307.7260007  +6.2611474     3393.525     5663.266     6311.298     77.82803     145.5697     260.2914      1.843     4.06     856.0741     54.98875      477.162        28     1.501     1.057  62.26  24
        19    220.5646   1023.6748 307.8166135  +6.2531210     1060.279     1233.643     1313.216     67.72328     123.8016     234.5178      1.147     3.23      854.788     54.98875     237.5784         8     1.093     0.454  -6.63  24
        20    522.9810    998.7635 307.6919039  +6.2735489     1019.616     1459.657     1270.295      77.7036     155.8424     311.7469      1.643     4.77     855.8193     54.98875     166.3717        12     1.414     0.707  69.22   0
        21    302.7747    996.0607 307.7834146  +6.2672810     13596.72     23131.62     26055.14     77.82803     156.0286     311.8711      1.879     3.87      855.226     54.98875     1671.285        62     1.709     1.529 -64.80   0
        22    818.4120    996.5344 307.5693247  +6.2843504     1020.302     1462.716     1681.584      77.7036     155.8424       311.84      1.684     4.54     852.0211     54.98875     165.7567        13     1.272     0.774  54.68   0
        23    426.9192    996.6539 307.7318557  +6.2712007     874.6013     1474.278     1721.303     78.20011     156.0286     312.0262      1.772     3.74     855.5032     54.98875     144.6477         9     1.132     0.597  70.07   0
        24    274.1965    993.7784 307.7953556  +6.2672637     866.9048     1575.313      1676.57     77.82803     155.7182     311.7469      1.847     5.70     854.8669     54.98875     103.7225        11     1.350     0.679  75.38   0
        25    918.4605    990.3771 307.5279927  +6.2902321     7415.219     13504.29     15110.74     77.82803     155.9666     311.8711      1.973     4.12      849.563     54.98875     803.5549        51     1.714     1.386  60.32   0
        26    891.9874    986.4811 307.5391143  +6.2909571     10633.07     19172.29     20438.64     77.82803     155.7182      311.809      1.934     3.93      850.245     54.98875     1234.477        56     1.727     1.387  55.57   0
        27   1013.7467    985.9639 307.4885789  +6.2952318     3949.088     7320.422     7596.622     78.07628     156.0286     311.9951      1.952     4.13     846.9954     54.98875     431.5062        37     1.574     1.299  63.95  16
        28    604.8640    987.1114 307.6583002  +6.2811008       1341.6     1991.126     1735.687     78.07628     156.2764     311.9951      1.540     3.79       855.49     54.98875     194.2496        13     1.144     0.806  61.93   0
        29    536.1113    985.4941 307.6868984  +6.2794666     3961.112     6728.318     7550.189     78.20011     156.4621     312.0262      1.908     3.78     855.4885     54.98875     503.7164        34     1.510     1.208  39.76   0
        30    645.8674    985.1158 307.6413437  +6.2832967     1269.466     2060.097      2176.77     78.44719     156.2764     311.9951      1.855     5.78     854.5953     54.98875     152.7987        17     1.289     1.033  55.69   0
        31    489.2731    981.9960 307.7064615  +6.2793417     2012.152     3320.715     3044.455      77.7036     155.5939      311.809      1.714     4.11     855.1818     54.98875     274.9259        21     1.468     0.899  73.24   0
        32     70.5107    983.7728 307.8802515  +6.2645484     783.6439     1304.797     1492.446     78.32375     155.7803       311.84      1.824     6.37     852.0612     54.98875     95.29742        11     1.246     0.914  41.85   0
        33    608.2916    983.8312 307.6569872  +6.2825696     1462.488     1539.017     1623.667     78.32375     155.8424     311.9641      0.684     1.03     855.3405     54.98875      763.837         5     0.559     0.362 -13.15   0
        34    923.7515    974.0803 307.5263413  +6.2971365     37750.52     67213.12      73464.4     78.20011     156.0906     311.9331      1.930     3.97     848.9102     54.98875     4521.524        87     1.834     1.431  65.19   0
        35    231.0615    972.3962 307.8139833  +6.2746419     1569.943     2622.201     2575.031     77.57897     155.7803     311.6848      1.742     3.88     853.5758     54.98875     217.5375        20     1.317     1.000  62.61   0
        36    629.9219    970.8078 307.6484439  +6.2886698     740.7528     1287.795      967.647     77.82803     155.5317     311.7469      1.712     5.97     854.3716     54.98875     88.80579        12     1.349     0.743  54.17   0
        37    119.3330    971.4937 307.8603976  +6.2712594     633.4391     1110.208      1121.98     78.07628     156.2145     311.9641      1.966     5.37     852.4949     54.98875     105.4717         5     1.109     0.734 -14.20   0
        38    769.9426    965.6833 307.5904818  +6.2954673      6140.79     10270.54     11393.61     78.20011     156.0286     312.0262      1.827     3.60     852.2463     54.98875     837.5492        43     1.617     1.282  65.04   2
        39    821.4720    967.9002 307.5690133  +6.2962736     2214.626     3776.857     4010.491     77.95225     156.2145     311.9951      1.811     3.72     851.2595     54.98875     300.8478        25     1.292     1.196  72.39   0
        40    556.5176    964.9924 307.6791148  +6.2886135     786.2955     1047.993     1278.395     77.82803      155.656       311.84      1.460     3.93     854.8342     54.98875     146.8129         9     1.158     0.647  62.62   0
        41    239.1478    964.7906 307.8108825  +6.2780532     1332.775     2321.727     2408.021     77.57897     155.9045     311.7159      1.849     5.22     853.5559     54.98875     164.2098        16     1.389     0.817  62.01   0
        42    203.6178    964.1106 307.8256558  +6.2771403      871.369     1556.408     1575.159     77.95225     155.7803     311.8711      1.903     5.50     853.0419     54.98875     114.6624        11     1.138     0.821  58.08   0
        43     64.1649    962.6892 307.8835973  +6.2730383     2565.243     3961.826      4205.58     78.32375     155.9666     311.9641      1.672     3.81     851.5446     54.98875      341.472        22     1.359     1.029  65.66   0
        44    958.1399    960.7885 307.5125081  +6.3037708     5787.472     10362.36     10554.32     77.57897     155.9045     311.6848      1.889     3.97     847.6317     54.98875     736.8042        41     1.639     1.229  63.89   0
        45    214.5043    956.7612 307.8213839  +6.2805400     631.9199     1119.629      1601.41     78.20011     155.9045     312.0882      2.090     6.44     852.9686     54.98875     84.10181        10     1.358     0.857  73.51   0
        46    640.2145    955.1016 307.6446977  +6.2954981     700.8522     1081.535     934.7966     78.07628     155.7803     311.7469      1.626     2.98     853.6259     54.98875     118.3405         6     0.747     0.554  52.64   0
        47    931.9319    952.3605 307.5236715  +6.3063759     2004.779     3546.159     3318.111     78.07628     156.0286     312.0882      1.831     4.04     848.0398     54.98875     279.9182        23     1.422     1.007  70.78   0
        48    791.3979    949.3881 307.5821199  +6.3029113     1163.776     2115.453     1784.921     77.82803     155.7182     311.7469      1.838     5.89     851.3942     54.98875     150.5355        20     1.520     0.964  86.06   0
        49    264.6694    948.6252 307.8008314  +6.2855836     4221.518     6909.009     7613.469     77.82803     155.9045     311.9021      1.799     3.74     853.7393     54.98875     541.0474        33     1.476     1.128  73.30   0
        50    652.5128    948.3971 307.6398166  +6.2986773     4257.049     6719.607     6010.487     77.57897     155.6561     311.7159      1.700     3.84     853.2755     54.98875     524.9027        28     1.445     1.046  62.04   0
        51   1002.2161    948.4482 307.4946205  +6.3103350     592.1476     1070.191     1551.536      77.7036     156.0286     311.7469      1.616     3.82     846.0815     54.98875     94.14496         5     1.047     0.399 -84.03   0
        52     33.3896    946.0594 307.8969348  +6.2788675     1904.088     3087.044      2740.18     77.57897     155.9045     311.6848      1.661     4.18      851.019     54.98875     234.3427        22     1.396     1.001  76.66   0
        53    474.8230    946.5048 307.7136535  +6.2935089      1079.23     1793.094     1923.788     78.20011     155.7803      311.809      1.710     4.13     854.2985     54.98875     165.1483        12     1.176     0.793  64.58   0
        54    884.0899    944.6099 307.5437947  +6.3079791      685.187     1306.188     845.9325     77.95225     155.7182      311.778      1.925     5.69     849.2446     54.98875     98.82025         9     1.394     0.654  44.78   0
        55   1008.6019    941.7425 307.4921933  +6.3133163     734.4683     1584.935     2137.483     77.57897     155.7182     311.7159      2.331     3.63     845.7045     54.98875     114.2941         7     1.010     0.503  45.70   0
        56    956.8530    941.3817 307.5136916  +6.3117397     564.0171     1038.076     1152.168      77.7036     156.0906     311.7469      1.827     5.22     847.0542     54.98875     80.04352         5     1.261     0.612 -29.06   0
        57    577.1114    940.9789 307.6713710  +6.2992163     1592.872     2486.043     2399.313     78.20011     155.7803       311.84      1.634     3.51     853.7315     54.98875     238.8812        15     1.228     0.758  58.41   0
        58    616.4661    937.1797 307.6551591  +6.3021020     1157.689     2029.373     2067.716     77.82803     156.0286     311.8711      1.849     4.72     853.0406     54.98875     176.6116        15     1.387     0.738  52.33   0
        59     66.0713    937.8468 307.8836442  +6.2833575     727.1705     1041.448     1097.972     78.20011     156.0286     311.9641      1.439     4.32     851.1671     54.98875     123.8293         8     0.966     0.632  59.82   0
        60     61.2953    936.6129 307.8856686  +6.2837062     572.8192     994.4308     933.5185     77.95225     155.7803      311.778      1.834     4.17     851.1307     54.98875      100.977         5     0.935     0.816   0.92   0
        61    296.1445    935.0225 307.7882221  +6.2922558     1324.771     2310.821     2790.733     77.82803     156.0286      311.778      1.879     4.26     854.0229     54.98875      176.608        18     1.246     0.983  82.91   0
        62    763.4403    931.1819 307.5943378  +6.3094931     792.9064      1289.54     1231.406     77.82803     155.8424     311.7159      1.696     4.95     851.5907     54.98875     106.7449         8     1.010     0.735  65.79   0
        63    138.9818    930.8362 307.8536115  +6.2887038     428.5939     616.4146     219.5113      77.7036     155.8424     311.7469      1.577     3.91     851.7162     54.98875     77.37878         5     0.839     0.523 -62.28   0
        64    900.7725    927.7127 307.5374337  +6.3155116     6300.913      10811.9     11132.87     78.32375     155.7803       311.84      1.830     3.89      848.237     54.98875     767.6308        38     1.576     1.178  67.59   0
        65    436.6788    924.7015 307.7302231  +6.3012312     2103.416     3319.173     3872.305     77.95225     156.3383     311.9951      1.722     4.10     853.8464     54.98875     233.5425        20     1.289     1.031  62.89   0
        66    338.2686    923.1957 307.7711315  +6.2985519     8921.167     14744.45     15782.24     77.57897     155.6561     311.7469      1.754     3.70     853.8741     54.98875     1096.863        44     1.592     1.202  75.67   0
        67    605.5637    925.2009 307.6600877  +6.3066822     694.2219     974.8285     1115.064     77.32912     155.8424      311.778      1.794     5.09     852.6321     54.98875     106.1122         7     0.999     0.734   0.36   0
        68    258.3694    922.1785 307.8043378  +6.2962896     6736.021     10937.83     11484.58      77.7036     155.8424       311.84      1.710     3.60      853.093     54.98875     830.0482        34     1.480     1.104  60.16   0
        69    770.8680    916.1646 307.5917571  +6.3159409     610.4787     832.4252     938.0906     78.07628     156.0906     312.0572      1.308     3.98     850.9995     54.98875     115.5578         6     1.120     0.405  63.26   0
        70    586.6417    916.3328 307.6682417  +6.3097098     982.9384     1714.967     1631.392     78.20011     155.9666     312.0262      1.774     4.67     852.7484     54.98875     159.7598        10     1.012     0.900  42.17   0
        71    916.5974    912.7348 307.5313644  +6.3222230     930.1891     1397.454     1962.864     77.57897     155.7803     311.7469      1.895     4.59     847.4052     54.98875     134.6868        11     1.157     0.803 -72.51   0
        72    873.8707    912.6186 307.5491087  +6.3208449     554.7839     1186.661     1280.158     77.82803     155.9045     311.9021      2.023     3.48     848.5649     54.98875     78.26794         5     0.784     0.445  17.46   0
        73    752.8916    905.8652 307.5995661  +6.3195920     1519.326     2478.661     3021.422     78.07628     156.2145     311.9641      1.758     4.51     850.9871     54.98875     226.8586        15     1.405     0.736  80.96   0
        74    576.9083    906.8954 307.6725998  +6.3132799     702.1204     1193.509     1157.907     78.20011     156.5857     311.9331      1.709     4.79     852.6928     54.98875     97.03015         9     0.984     0.859  51.16   0
        75    844.9674    905.5032 307.5613478  +6.3228174     526.9485     921.8482     974.8049     78.32375     155.9045     312.0572      2.068     4.25     849.1083     54.98875     83.79584         5     1.149     0.447  61.92   0
        76      3.6474    903.2733 307.9107269  +6.2955286     801.3738      1254.88     923.2321     78.07628     151.6254     269.1732      1.532     5.29     849.7322     54.98875     110.7551         9     1.179     0.670 -87.96  16
        77    984.4417    902.0971 307.5035504  +6.3288776     1306.218     2346.075     3388.877     78.20011     155.9045     312.1812      2.344     4.94     845.4991     54.98875     156.5227        19     1.330     1.029  65.18   0
        78    628.7245    902.3803 307.6512374  +6.3168782     645.0975     1056.894     1012.955     77.82803     155.7803     311.9021      1.825     4.63     851.8755     54.98875     84.73071         7     0.928     0.657  69.95   0
        79    616.7169    902.5789 307.6562163  +6.3163944     987.6376     1148.957     1212.412     77.95225     155.7182     311.8711      1.449     4.56     851.9892     54.98875     124.7178        11     0.946     0.855  59.28   0
        80    537.8483    901.6041 307.6889950  +6.3141563     1182.071     1999.926     2124.213     77.57897     155.8424     311.6227      1.683     5.03     853.1066     54.98875     171.8057        16     1.411     0.892  79.83   0
        81    671.3379    898.9823 307.6336583  +6.3197067     2261.766     3845.871     4159.666     77.82803     155.9666      311.809      1.866     4.53     851.4473     54.98875     285.3423        25     1.619     0.963  75.49   0
        82   1022.3668    898.1304 307.4879360  +6.3317795     472.2684     732.7433     973.2108     78.07628     141.5936     255.0719      1.901     3.52      844.528     54.98875     83.62622         5     0.814     0.440  73.39  16
        83    961.9765    897.2197 307.5130415  +6.3301419     500.5804     814.1496      1270.47     77.95225     155.8424     311.9021      1.489     4.27     845.9335     54.98875     91.90656         5     1.052     0.493  34.61   0
        84     67.8868    895.1411 307.8843316  +6.3010477     2676.395     4406.177     4958.814     78.20011     156.0286     312.0882      1.816     3.96     849.9974     54.98875      320.804        25     1.460     1.042  75.60   0
        85    832.6983    895.3301 307.5667828  +6.3266074     691.8998     1022.243     1208.594     78.07628     156.1526     311.9641      1.471     4.62     849.1337     54.98875     128.0576         8     1.106     0.623  89.24   0
        86     85.5615    894.5457 307.8770138  +6.3018881     1988.339     3095.256     3468.816     78.20011     156.0906     311.9641      1.743     3.86     850.1833     54.98875     236.2385        19     1.299     0.913  66.02   0
        87    949.5500    894.2559 307.5183003  +6.3309510     658.8503     1205.565     1040.951     78.20011     156.0286     311.9951      1.842     5.67      846.155     54.98875     83.96332         9     1.377     0.657 -65.99   0
        88    211.5682    894.0349 307.8247166  +6.3063354     2081.509     3439.801     3386.384     77.82803     155.7803     311.7159      1.753     4.13     851.9685     54.98875     264.6353        23     1.416     1.018  63.87   0
        89    350.3428    890.4620 307.7672202  +6.3124701     911.0058      1400.57     2024.958     78.32375     155.9666     311.9951      1.918     5.97      853.687     54.98875     125.5162        10     1.312     0.764  48.65   0
        90    245.6906    891.0413 307.8106506  +6.3087176     759.8853     1202.174     584.9896     78.20011     156.0286     311.9951      1.670     5.47      852.642     54.98875     113.7778         9     1.249     0.676 -85.77   0
        91    666.0933    888.3837 307.6361915  +6.3239066     6489.665     10803.02     11674.79     77.95225     155.8424       311.84      1.804     3.83     851.0525     54.98875     838.7637        37     1.551     1.127  65.43   0
        92    803.5571    889.2157 307.5790873  +6.3281583     797.8915     1077.639     763.2131      77.7036     155.7803     311.7469      1.436     4.10     849.8145     54.98875     116.8113         7     1.026     0.468  79.51   0
        93     26.0922    886.2139 307.9019846  +6.3033263     1184.807     1672.201     1940.842     77.95225     155.7803     311.7469      1.526     4.11     849.1783     54.98875     155.7535        13     1.179     0.773  85.30   0
        94    903.8779    884.4842 307.5375911  +6.3334612     2714.602     4562.801     4983.741     78.32375     156.3383     312.0572      1.835     4.27     846.9934     54.98875     330.5511        24     1.409     1.076  59.53   0
        95    455.1669    885.1584 307.7238765  +6.3181750     510.3538     866.4446       663.04     77.95225     156.0286      311.809      1.603     5.36     852.6628     54.98875     82.59619         6     1.441     0.563  70.99   0
        96     39.2935    885.1656 307.8965393  +6.3042034     1129.669     1545.102     1106.845     78.32375     155.9045     312.0572      1.536     4.45     849.3093     54.98875      164.712        16     1.308     0.837  60.40   0
        97    349.0210    881.4475 307.7680724  +6.3161470     15579.87     24654.14     26338.04     77.82803     156.0286      311.809      1.699     3.64     853.6359     54.98875     2024.331        47     1.528     1.187  69.26   0
        98     83.5000    882.6191 307.8782721  +6.3067422     1334.244     2227.533     2230.389     78.20011     155.9045     311.7469      1.869     5.12     849.8466     54.98875      180.215        16     1.291     0.894  70.60   0
        99    219.9991    880.8734 307.8216598  +6.3120519     1143.298      1987.05     1984.445     77.57897     155.4694      311.809      1.887     4.89     852.0009     54.98875     167.7735        14     1.279     0.787  83.42   0
       100    399.8770    881.1158 307.7469685  +6.3179900     644.6651      1007.91     793.2021     78.32375     156.3383     312.0572      1.571     3.73     852.8563     54.98875     106.2646         6     0.776     0.551 -52.91   0
       101    426.7923    872.6645 307.7360777  +6.3223815     1014.291     1379.187     1114.137      77.7036     155.7803      311.809      1.537     4.17     852.3306     54.98875     135.2743        12     1.044     0.906  41.50   0
       102    112.4078    871.9457 307.8666304  +6.3121206      1622.02     2460.658     3117.977      77.7036     155.9045     311.6848      1.799     4.34      850.048     54.98875     214.6234        20     1.403     0.965  57.04   0
       103    507.6660    869.3010 307.7026119  +6.3264806     626.7858     964.8704      1145.88     78.20011     156.1526     311.9641      1.746     4.87      852.203     54.98875     86.57623         7     1.035     0.649  70.03   0
       104    828.3428    865.3522 307.5695954  +6.3388377     2850.618     4940.247     5799.209     78.20011     156.0286     312.0882      1.930     4.54     848.5152     54.98875      384.809        29     1.698     1.066  74.33   0
       105    680.2687    868.0704 307.6309871  +6.3327665     800.2188     1224.703     2070.504     78.20011     156.1526     311.9331      2.192     5.09     850.1078     54.98875     112.3264        10     1.137     0.696  75.65   0
       106    894.1998    866.4120 307.5422146  +6.3405989     1763.642      2934.35     3192.495     77.82803     155.7182      311.778      1.804     4.39     846.7278     54.98875      209.856        22     1.436     0.991  60.01   0
       107    865.0040    865.9199 307.5543538  +6.3398275     1917.687     3089.207     2974.498      77.7036     155.5939     311.7159      1.633     3.88     847.3298     54.98875     250.2126        21     1.370     0.938  68.62   0
       108     95.8015    865.6490 307.8737374  +6.3141613     2416.885     3809.708     4514.016     77.57897      155.656     311.5606      1.709     4.08      849.662     54.98875     302.2725        22     1.333     1.018  77.51   0
       109    564.1451    856.6889 307.6795851  +6.3335789     319172.5     508758.7     541052.6     78.20011     155.9045     312.0882      1.736     3.68     851.5524     54.98875     43080.46       193     1.796     1.419  67.26   0
       110    343.7587    863.8944 307.7708480  +6.3232166     725.3451     937.7245     1448.207     78.20011     155.9666     312.0882      1.713     4.99     853.5024     54.98875     85.60846         9     1.080     0.652  60.90   0
       111    408.3869    859.3096 307.7441687  +6.3272774     7402.233     11833.57     12747.56     77.95225     155.7803      311.809      1.749     3.62     852.0934     54.98875     905.3185        40     1.535     1.156  65.76   0
       112    351.5929    857.7015 307.7678037  +6.3260360     12245.97     19250.62     20441.81     77.95225     155.6561      311.778      1.719     3.57     853.2321     54.98875     1626.619        43     1.567     1.134  68.78   0
       113    652.0133    859.7447 307.6429985  +6.3352584     1267.951     1957.287     1886.005     77.57897     155.9666     311.7159      1.546     3.89     850.3169     54.98875     208.2095        14     1.103     0.969  32.69   0
       114    902.4293    852.8644 307.5392509  +6.3464665     4743.019     8173.831     9093.692     77.95225     156.0906     311.9021      1.892     4.11     846.3529     54.98875     551.5101        40     1.608     1.316  62.89   0
       115    670.0324    853.8559 307.6357143  +6.3382923     3338.918     5183.655     5246.836     78.07628     156.0286     311.9331      1.614     3.65     849.9614     54.98875     404.8966        26     1.382     1.031  70.86   0
       116    741.6072    851.0826 307.6060880  +6.3418305     697.3492     845.3444     525.3976     77.82803     155.7182       311.84      1.532     5.64     849.3792     54.98875     101.0034         9     1.399     0.641  51.42   0
       117    833.4402    847.1949 307.5680870  +6.3465038     1491.502     2437.046     2576.698     77.45415     155.7182     311.6848      1.770     4.73      847.926     54.98875     173.3311        17     1.331     0.887  76.65   0
       118    644.7532    847.8866 307.6464109  +6.3399108     3121.388     5169.031     5890.296     78.20011     155.9045     311.9641      1.824     3.83     850.2554     54.98875     446.9757        26     1.353     1.094  70.21   0
       119    635.3798    847.4117 307.6503189  +6.3397932     1061.244     1654.515     2085.807     77.82803     155.7182     311.8711      1.666     3.25     850.3811     54.98875     163.6794        11     1.047     0.703  57.26   2
       120    637.7029    842.7496 307.6495107  +6.3417956     2022.886     3308.015     4028.578     78.07628     155.9666     312.1192      1.937     4.15     850.2753     54.98875     285.9056        21     1.412     0.966  75.05   3
       121    960.3038    846.7106 307.5154256  +6.3509379     590.5026     944.7809     1070.205     78.20011     156.4621     311.9641      1.918     4.97     844.9795     54.98875     79.04486         7     1.156     0.606  36.54   0
       122    921.4709    840.8271 307.5317472  +6.3520712     2977.054     4944.013     5144.625     77.82803     155.9045     311.9021      1.773     4.00     845.7897     54.98875     367.5573        25     1.525     0.949  57.53   0
       123    331.3266    841.0679 307.7767781  +6.3322225     804.6649      1249.09      1009.46     78.32375     156.1526     311.9331      1.633     6.13     852.5978     54.98875     111.6431        12     1.429     0.738  63.18   0
       124    379.4734    836.5898 307.7569381  +6.3356867     2639.405     4162.632     3596.806      77.7036     155.6561       311.84      1.714     3.65     851.8409     54.98875     334.5516        22     1.379     0.933  72.61   0
       125    860.2322    826.5777 307.5576526  +6.3559098     836.5313     1623.771     2176.853      77.7036     155.8424      311.778      2.822     9.58     846.8074     54.98875     126.6279        20     2.610     0.980 -88.10   0
       126    515.6661    826.4536 307.7007300  +6.3444369     2941.684     4719.828     4673.921     78.20011     155.9666     311.9331      1.710     3.97     850.6813     54.98875     352.7139        24     1.442     0.982  62.37   0
       127    581.2847    824.3787 307.6735535  +6.3474912     755.6584     1059.012     1314.544     77.95225     155.7182     311.9021      1.546     4.04     850.4132     54.98875      128.275         7     1.096     0.618 -78.40   0
       128    562.5694    822.4968 307.6813877  +6.3476414     6013.135     9146.799     10015.72     78.32375     155.7803     312.0262      1.677     3.49     850.4472     54.98875     815.2992        31     1.407     1.046  58.38   0
       129    569.2630    821.9117 307.6786280  +6.3481070     1191.088     1757.099     2308.328     78.07628     156.2145     311.9951      1.570     4.03     850.4174     54.98875     161.9465        13     1.150     0.771  58.32   0
       130    480.3094    821.5257 307.7155763  +6.3452865     1545.494     2244.676     2062.664     78.20011     156.2145     311.9951      1.550     3.78     850.5392     54.98875     228.7286        15     1.197     0.847  68.79   0
       131    274.5999    823.0037 307.8009395  +6.3377752     601.3908     768.6035     774.7708     77.57897     155.5939     311.7159      1.471     3.87     852.1292     54.98875     76.58917         5     0.878     0.489 -88.25   0
       132    122.1497    820.8770 307.8643084  +6.3335298     1371.449     2113.584     2120.413     78.07628     156.0906     311.9331      1.603     4.58     849.1417     54.98875     193.8878        17     1.419     0.837  50.41   0
       133    898.1706    820.4136 307.5421056  +6.3597209      1193.74     2115.237     2152.009     77.82803     155.8424     311.8711      1.809     4.70     845.9299     54.98875     165.6218        16     1.231     1.045  61.77   0
       134    698.6614    819.6367 307.6249747  +6.3533763     733.4221     1066.557     1213.308     78.20011     156.0906     311.9331      1.694     4.24     849.2753     54.98875     100.4557         7     1.091     0.470  60.40   0
       135    533.2098    816.3219 307.6937859  +6.3492072     18762.57     29756.41     30995.43     77.82803     155.7182       311.84      1.708     3.59     850.3193     54.98875     2432.291        55     1.609     1.180  62.60   0
       136    374.1596    817.8332 307.7597756  +6.3432515     686.3315     1198.407     680.2485     77.95225     155.9666      311.809      1.497     4.48     851.1514     54.98875     102.6043         7     0.954     0.599  73.45   0
       137    946.8289    814.6534 307.5220934  +6.3637226     3433.082     5744.452     5783.429     77.95225     156.0906     311.8711      1.755     3.92     844.7104     54.98875      437.291        29     1.474     1.083  73.06   0
       138    179.5692    815.6378 307.8406447  +6.3376231     384.8839     503.9435     70.58307     77.82803     155.7803      311.809      1.652     3.91     850.3223     54.98875     78.06793         5     1.015     0.431  74.63   0
       139     67.1759    813.0229 307.8873982  +6.3349226     544.1107     913.3439     1051.483      77.7036     155.9045     311.9331      1.681     4.01     848.1207     54.98875     95.42584         6     1.031     0.446  51.03   0
       140     43.5452    806.7040 307.8974228  +6.3367358     1451.794     2376.086     2357.365     78.07628     155.9666     312.1812      1.750     4.10     847.8126     54.98875     197.5359        15     1.218     0.883  69.50   0
       141    325.9140    805.0865 307.7802368  +6.3468945     3191.355     5155.232     4990.863     77.95225     156.2145     311.9951      1.704     3.64     851.2516     54.98875     403.1151        26     1.397     1.037  53.29   0
       142    791.4459    800.9228 307.5870747  +6.3642034     51861.11     83130.49     88452.39     78.07628     156.0906     311.9641      1.729     3.69     847.5748     54.98875      6591.68        82     1.672     1.289  65.99   0
       143     25.6737    802.9689 307.9049690  +6.3376761     2069.111     3050.359     3052.275     78.07628     156.0286     311.9951      1.534     3.67     847.6149     54.98875     275.5013        16     1.249     0.798  59.50   0
       144    248.1846    777.3170 307.8134465  +6.3557481     766206.6      1890864      2126000     77.82803     155.7182       311.84      2.372     7.26     850.1658     54.98875     63906.16       656     2.840     2.109  80.74   4
       145    719.5886    795.4409 307.6170965  +6.3640647     20424.48     34055.53      37556.8     77.57897     155.8424     311.6848      1.816     3.75     848.5217     54.98875      2774.99        56     1.711     1.203  66.83   3
       146    713.3720    792.0108 307.6197929  +6.3652729     83248.53     133573.7     142104.7     77.82803     155.8424       311.84      1.721     3.68     848.5114     54.98875     10885.04        91     1.691     1.270  69.94   3
       147    434.5679    799.5629 307.7353076  +6.3528198     745.9299     1068.206     862.5732     77.82803     155.7803     311.7469      1.630     4.63     849.9121     54.98875     97.02209        10     0.970     0.795  41.00   0
       148    916.6918    796.1290 307.5352276  +6.3703645      7891.82     13060.13     13931.34     78.07628     156.2145     311.9641      1.788     3.71     845.1379     54.98875     988.4806        42     1.606     1.146  70.22   3
       149    913.6471    787.6636 307.5367753  +6.3737576     6159.285     10089.25     10289.24     78.07628     155.9045     312.0262      1.760     3.88     844.9794     54.98875     747.7123        38     1.594     1.145  71.00   3
       150    358.2296    792.8862 307.7672295  +6.3530155     19835.76     31413.03     34146.11     78.32375     155.7182     311.8711      1.711     3.67     850.3334     54.98875     2629.976        56     1.594     1.216  62.85   0
       151    420.0760    790.7102 307.7416227  +6.3559884      21247.3     33880.27     36016.58     78.20011     156.2764     311.9951      1.698     3.69     849.5494     54.98875     2860.122        56     1.577     1.239  64.92   0
       152    407.4700    793.0226 307.7467792  +6.3546110     1490.977     2203.097     2033.674     77.82803     155.9666     311.9331      1.610     3.86     849.7686     54.98875     191.4814        14     1.155     0.816  66.89   0
       153    647.1898    792.5102 307.6472576  +6.3628530     889.1317      1381.85         1754     77.95225     155.7182      311.778      1.628     3.59     849.1686     54.98875     148.5943        10     1.106     0.623  51.41   0
       154    957.2490    789.4542 307.5186096  +6.3744732     1957.064     3262.238     3418.057     78.20011     156.0286     312.0262      1.783     4.65     843.9226     54.98875      239.572        23     1.509     0.987  66.52   0
       155    886.2708    788.5125 307.5481149  +6.3724935     721.3211      1019.07     677.4308     78.32375     156.2764     311.9641      1.492     4.67     845.5975     54.98875     89.79126         8     1.135     0.545 -72.01   0
       156    654.0881    786.5901 307.6445918  +6.3655278     6292.879     9979.947     10828.69     77.82803     155.7182     311.7469      1.683     3.53     848.8443     54.98875     836.3911        36     1.517     1.095  61.13   0
       157    393.8311    786.5604 307.7526598  +6.3568213     453.9767     700.2715     745.8763     77.82803     155.8424      311.809      1.399     3.47     849.6635     54.98875     91.49072         5     0.955     0.365 -84.50   0
       158    442.7981    784.5076 307.7323965  +6.3593109      1631.46     2503.611     2430.963     77.57897     155.7182     311.6848      1.628     4.01     849.2006     54.98875     219.5718        19     1.367     0.854  72.03   0
       159    168.9212    784.7130 307.8461085  +6.3500313     514.2317      860.254     713.0979     77.95225     156.3383     312.0882      1.427     4.82     849.4006     54.98875     101.1176         8     1.699     0.387   8.13   0
       160     40.7094    783.3995 307.8993870  +6.3462606     1914.017     1821.571     1740.981     77.45415     155.5317     311.7469      0.827     3.37      847.312     54.98875     683.6374         8     0.869     0.377 -51.50   0
       161    607.2380    778.9963 307.6643007  +6.3670949     831.8475     1615.518     1818.472     77.32912     155.7803     311.7159      2.112     4.84     848.6625     54.98875     153.8125        10     1.253     0.642  74.99   0
       162    882.2104    778.1346 307.5501484  +6.3766422     686.6022     931.1824     861.3355      77.7036     155.8424       311.84      1.480     5.24     845.4406     54.98875     101.6996         9     1.014     0.765  50.70   0
       163    689.3746    776.6876 307.6302717  +6.3707962     2405.645     3708.798     3742.294     78.32375     155.8424       311.84      1.715     3.79     848.1748     54.98875     308.0615        22     1.351     0.964  55.12   0
       164    158.0573    777.4064 307.8508657  +6.3526822     815.6999     1526.028     1381.757      77.7036     155.9045     311.6848      1.901     6.54     848.9899     54.98875     128.9698        10     1.471     0.829  31.51   0
       165    423.0367    773.3688 307.7409766  +6.3632465     51282.64     81739.52     86549.15     77.82803     155.7803     311.7469      1.705     3.60     848.7007     54.98875     6944.738        81     1.629     1.296  64.06   0
       166    133.7508    776.9830 307.8609723  +6.3520397     1038.939     1521.675     1817.742      77.7036     156.0906     311.7159      1.630     4.96     848.3932     54.98875     146.4408         9     1.008     0.692  64.38   0
       167    965.4072    775.9163 307.5156748  +6.3803341     1315.495     2021.206     2198.201     77.82803     155.7182      311.809      1.530     4.92     843.5254     54.98875     847.7237         9     1.452     0.471 -70.33   0
       168    540.7054    772.3972 307.6921492  +6.3675913     6719.688     10588.85     10981.42     77.95225     155.7182     311.6848      1.677     3.77      848.322     54.98875     908.3679        33     1.494     1.047  66.47   0
       169    785.9846    769.0814 307.5904096  +6.3771659     10929.02     17689.04     18883.96     77.82803     155.7803       311.84      1.711     3.57     846.9178     54.98875     1507.567        43     1.580     1.158  64.44   0
       170    457.5696    771.0133 307.7267167  +6.3653768     4217.003     6734.646     7424.531      77.7036     155.8424     311.9021      1.716     3.82     848.5339     54.98875     539.2639        32     1.568     1.019  67.94   3
       171    454.2605    764.4724 307.7283107  +6.3679661     2256.151     3718.962      4262.28     78.32375     156.0286     311.9951      1.776     3.96     848.2296     54.98875     321.8027        23     1.336     1.070  73.19   3
       172     15.5828    764.7974 307.9104478  +6.3530937     1020.019     1821.018     1387.629     77.82803     155.5939      311.778      1.803     6.07     846.8159     54.98875     120.1125        13     1.453     0.713  70.46   0
       173    807.6942    763.2217 307.5815910  +6.3803103     1280.496     1820.747     2203.125     78.07628     155.8424      311.809      1.684     4.05     846.4493     54.98875     152.1039        12     1.067     0.851  80.01   0
       174    151.9668    761.4307 307.8539333  +6.3590724     2811.981     4882.619     4995.781      77.7036     155.7803     311.6848      1.771     4.13     848.4385     54.98875     393.7689        29     1.551     1.077  60.59   0
       175    143.7554    761.0277 307.8573564  +6.3589626     11075.53     17942.79     19602.56     77.82803     156.0906     311.8711      1.756     3.76      848.235     54.98875     1441.601        44     1.545     1.196  62.66   1
       176    931.4665    757.7100 307.5303782  +6.3867180     6149.154     9816.145     10362.49     78.32375     156.1526     311.9951      1.756     3.93       843.74     54.98875     745.9581        36     1.518     1.188  75.26   0
       177    135.9019    758.5204 307.8607019  +6.3597336     2746.225     4619.862     5423.166     78.07628     156.4002     311.9951      1.889     4.26     847.9801     54.98875     349.0102        28     1.604     1.015  59.77   3
       178    136.0719    752.0297 307.8608503  +6.3624187     1843.785     3251.154     3905.544     78.07628     156.0286     311.9331      2.140     3.99     847.8001     54.98875     250.6272        18     1.333     0.929  76.77   3
       179    980.7648    757.8636 307.5099014  +6.3882990     1497.824     2456.437     3174.414     78.07628     156.0906     311.9641      1.752     3.90     843.0621     54.98875     210.8416        16     1.171     0.901  72.07   0
       180    687.0486    755.1159 307.6319612  +6.3796237     1593.155     2643.581     2603.847     78.20011     156.0286     311.9951      1.655     4.95     847.2648     54.98875     218.8022        19     1.415     1.012  55.73   0
       181    573.7550    754.4662 307.6790280  +6.3761004     2201.303     3783.201     3683.952     78.20011     155.9666     311.9951      1.817     4.22      847.397     54.98875     343.6763        23     1.489     0.950  60.23   0
       182    421.7591    753.6077 307.7421718  +6.3713614     1076.022      1851.83     2114.573     77.57897     155.8424     311.6538      1.906     4.37     847.8163     54.98875     161.3732        12     1.269     0.723  80.06   0
       183    704.9991    753.0280 307.6245773  +6.3810860       463.19     610.8063     175.2826      77.7036     155.7803      311.778      1.338     3.66     847.2026     54.98875     71.46301         5     0.634     0.607  89.96   0
       184    925.6206    749.6250 307.5330764  +6.3898607     2927.503       4847.5     5391.235     77.82803     155.8424     311.9021      1.862     3.90     843.6117     54.98875     403.3588        28     1.498     1.114  64.18   0
       185    955.2062    749.1061 307.5208079  +6.3910619     2832.777     4756.214     5204.774     77.82803     155.7182      311.778      1.781     3.91     843.2512     54.98875     402.7668        29     1.644     1.051  52.35   0
       186    985.8942    748.8492 307.5080729  +6.3921915     1610.218     2769.799     2802.069     78.07628     155.9045     312.0882      1.770     4.84     842.9556     54.98875     221.5121        22     1.348     1.163  80.10   0
       187    678.1968    748.9454 307.6358440  +6.3818750     1372.629     2228.847     2662.195     77.57897     155.8424     311.6227      1.832     4.05     846.9901     54.98875     207.2925        16     1.207     0.940  59.08   0
       188    825.4022    747.4157 307.5747673  +6.3874270     1023.173     1528.396     1536.912     77.82803     155.6561      311.778      1.714     6.02     845.8408     54.98875     126.2521        14     1.197     0.851  44.81   0
       189    250.5449    743.8250 307.8135950  +6.3696532     1681.395     2993.171     3727.873     77.82803     156.0286      311.778      1.973     4.97     848.5971     54.98875     233.7861        22     1.608     0.895  62.38   0
       190    900.9011    744.7274 307.5435055  +6.3910576      762.887     1285.393     1067.487     77.95225     156.1526     311.9641      1.614     5.26     844.1764     54.98875     95.99298         9     1.140     0.686  77.76   0
       191    943.3535    739.0237 307.5260674  +6.3948288     1132.509     1863.883     1743.884     77.82803     156.0286       311.84      1.644     4.90     843.1304     54.98875      134.476        14     1.231     0.863  88.38   0
       192    970.1179    736.8522 307.5150256  +6.3966181     2152.644     3590.278     3564.361     78.20011     156.0286     311.9951      1.761     4.14     842.9708     54.98875     289.9933        25     1.637     1.035  70.98   0
       193    917.0876    738.0564 307.5370071  +6.3943518     1003.842     1769.512     1979.002     78.20011     155.9045     312.0882      1.783     5.34     843.5269     54.98875     148.5256        13     1.257     0.705  70.06   0
       194    165.8624    738.3550 307.8489418  +6.3690654     694.2742     747.6161     642.0655     78.07628     155.9666     312.0262      1.433     5.01     848.1026     54.98875     106.5234         9     1.141     0.660  77.93   0
       195    689.7341    736.0826 307.6314846  +6.3875710     1053.943     1668.662     2395.889     78.44719     156.2764     312.0262      1.743     3.09     846.5134     54.98875     184.6795        10     0.908     0.764  57.60   0
       196   1011.9106    730.4587 307.4978841  +6.4006512     1610.859     2370.292     2002.184     78.07628     156.0286     312.0882      1.574     4.07     842.5684     54.98875     215.2281        16     1.273     0.814  82.81   0
       197    481.0308    731.3566 307.7183080  +6.3825342     680.1686     1028.017     1424.544     77.82803     155.9666       311.84      1.791     4.61     846.8491     54.98875     90.91125         7     0.980     0.616  54.41   0
       198    638.1043    729.8135 307.6531347  +6.3884317     697.8477     1040.836     1690.355     77.95225     155.7803      311.778      1.831     5.72     846.3862     54.98875     130.8481        10     1.480     0.623  57.76   0
       199    812.9020    728.6500 307.5805869  +6.3947564     1050.486     1722.078     1747.412     78.20011     155.9666     312.1192      1.781     4.98     845.5594     54.98875     163.2566        17     1.396     0.931  85.09   0
       200    899.3893    726.0053 307.5447600  +6.3987362     1378.991     2253.922     2972.917     77.82803     155.7803     311.8711      1.795     4.46     843.8137     54.98875     194.0986        17     1.428     0.799  83.43   0
       201    874.2582    721.2551 307.5553553  +6.3998583     865.3043     1200.373      1484.77     78.32375     156.0906     311.9951      1.662     4.35     844.3592     54.98875     169.9057        10     1.188     0.703  70.03   0
       202    856.2199    717.5236 307.5629711  +6.4007965     1405.786     2209.944     1868.276     77.82803     155.7182     311.9021      1.672     5.36     844.6304     54.98875     167.3076        20     1.586     0.895  76.71   0
       203     55.2918    716.2941 307.8955978  +6.3744528       2409.2     3758.119     4239.391     78.20011     156.5239     311.9641      1.729     3.71     846.2303     54.98875     324.8853        22     1.401     0.922  76.35   0
       204    119.7144    715.3046 307.8688812  +6.3770289     905.0941     1926.102     2116.982     78.20011     156.4002     312.0262      2.332     7.02     846.5626     54.98875     134.2342        16     1.686     0.819  73.09   0
       205    467.9685    714.9995 307.7242821  +6.3888489     529.2374     751.6332     577.3482     77.57897     155.8424     311.7469      1.213     3.79     846.3848     54.98875     86.42395         5     1.044     0.396  58.08   0
       206    572.9587    710.9424 307.6808206  +6.3940413     569.3212     721.5943      424.795     78.20011     156.0286     311.9951      1.441     3.04     846.1565     54.98875     114.4604         7     0.874     0.722  82.33   0
       207    711.2322    707.9340 307.6235015  +6.3999104     555.7003     848.4055     493.4753     78.07628     156.0906     311.9021      1.609     4.63     846.1219     54.98875     103.1169         6     0.971     0.627 -32.69   0
       208    668.1344    704.9905 307.6414974  +6.3996840     5936.236      9142.67     9671.697      77.7036     155.8424     311.8711      1.625     3.64      846.014     54.98875     857.0487        29     1.431     0.971  67.18   0
       209    615.1622    704.1235 307.6635241  +6.3982693     1370.439     2302.045     2443.293     78.07628     156.0906     311.9641      1.804     4.86     846.0488     54.98875     204.5228        16     1.336     0.869  64.78   0
       210    536.5529    704.6165 307.6961510  +6.3954335     623.2095      869.476     494.5014      77.7036     155.9666     311.7469      1.612     5.59      846.072     54.98875     98.30267         9     1.127     0.783  81.22   0
       211    526.0092    704.1842 307.7005439  +6.3952587      724.541     1263.329     981.7205     77.95225     155.7803       311.84      1.789     5.17     846.0576     54.98875      120.187         8     1.099     0.820  76.83   0
       212   1005.0534    700.1293 307.5017461  +6.4129435     2281.615     3750.739     3402.338     78.07628     155.9666      311.871      1.698     4.29     841.6848     54.98875     313.3267        21     1.453     0.909  62.94   0
       213    641.7352    700.4745 307.6526117  +6.4006650     1987.714     3088.057      3339.18     78.32375     156.0286     311.9331      1.726     3.99     845.9699     54.98875     301.1997        17     1.308     0.819  72.23   0
       214    131.0779    700.6172 307.8646583  +6.3834742     3400.202     5701.219     5786.692      77.7036     155.7803     311.9021      1.787     4.05     846.3658     54.98875     479.5754        28     1.446     1.080  69.15   0
       215    317.5595    700.8970 307.7872139  +6.3896250     689.7779     1061.322     1289.812     78.20011     155.9045     312.1812      1.661     4.23     847.1788     54.98875     120.1136         7     1.042     0.698  52.43   0
       216    785.0220    696.9989 307.5932254  +6.4068913     19096.11     30266.39     31846.69     77.82803     155.7182     311.6848      1.682     3.53     845.0333     54.98875     2640.087        57     1.626     1.205  65.40   0
       217    483.8919    697.1497 307.7182699  +6.3967514     1421.258     2149.666     1828.164     78.07628     155.9045     312.1501      1.621     4.98     845.8666     54.98875     199.8983        19     1.507     0.841  58.44   0
       218    915.0025    696.6993 307.5392574  +6.4113557     3511.314     5644.158     6289.355     77.82803     155.7803     311.6538      1.665     3.74     842.9106     54.98875     516.3004        26     1.401     1.019  56.86   0
       219    512.5761    696.9792 307.7063642  +6.3977830      908.373     1376.473     1277.061     77.82803     155.8424     311.9331      1.635     5.17     845.9072     54.98875     134.5445        11     1.444     0.523  62.90   0
       220    665.5835    689.8941 307.6430633  +6.4058308     6660.783     10667.59     11694.59     77.95225     155.8424      311.809      1.732     3.65     845.8215     54.98875     860.2919        36     1.563     1.087  62.67   0
       221    258.4322    690.5900 307.8121136  +6.3918942     6036.834     9342.266     9232.249      77.7036     155.7803      311.809      1.673     3.59     846.5101     54.98875     831.8492        34     1.516     1.050  61.19   0
       222    647.9131    690.8751 307.6503684  +6.4048346     965.6351     1591.735     2189.689     78.20011     156.3383     312.0261      1.965     5.25     845.8438     54.98875     160.1904        13     1.495     0.628  79.19   0
       223    360.9838    689.6522 307.7695606  +6.3957245     640.6874     996.0358     1118.131      77.7036     156.0906     311.6848      1.602     5.59     846.6471     54.98875     89.68854         9     1.382     0.637 -89.74   0
       224    925.1084    682.8267 307.5355250  +6.4174199     1205.456     1984.936     2110.774     78.32375     155.7803      311.809      1.788     5.80     842.5188     54.98875     169.4374        13     1.198     0.791  76.72   0
       225    737.2883    678.2879 307.6136755  +6.4130203     3587.608     5948.114     6949.708     77.95225     156.5239     312.0572      1.781     3.84     845.4863     54.98875     440.9651        31     1.545     1.059  72.87   0
       226    692.8059    678.7328 307.6321331  +6.4113491     882.2579     1505.139     1488.154      77.7036     155.7182      311.778      1.816     5.37     845.6251     54.98875     139.8444        10     1.142     0.774  57.19   0
       227   1003.5084    674.8221 307.5032342  +6.4233396     8370.834     13778.73      14855.5     78.20011     155.8424      311.809      1.790     3.81     840.9333     54.98875     985.7677        43     1.611     1.161  64.28   0
       228    941.9589    675.2581 307.5287805  +6.4211067     2337.247     3766.837     3808.429     78.20011     156.0286     312.0262      1.752     4.37      842.105     54.98875     297.4663        19     1.382     0.848  57.53   0
       229     22.6666    674.5234 307.9105552  +6.3905976     1856.779     2988.939      3987.34     78.32375     156.0906     311.9331      1.980     3.66     846.1222     54.98875       288.12        20     1.266     1.037  57.36   0
       230    439.7264    673.0894 307.7374193  +6.4052033     563.9873     808.4362      593.533     78.20011     156.2764     311.9951      1.751     4.06     845.1661     54.98875     74.29926         6     1.454     0.325  61.19   0
       231     80.9053    669.6425 307.8865371  +6.3945728     24260.79     38905.17     41342.72     78.20011     155.9666     312.0882      1.726     3.60     845.9233     54.98875     3358.852        58     1.618     1.231  64.98   0
       232    542.1713    670.7437 307.6949560  +6.4096051     2024.596      3280.21     3117.449     77.82803     156.0906     311.8711      1.712     3.73     845.5255     54.98875     281.7873        21     1.308     1.014  57.93   0
       233    510.9816    668.0795 307.7079978  +6.4096600     1427.072     2245.419     2169.636     77.82803     155.7182     311.9021      1.627     4.28     845.2482     54.98875     188.9801        18     1.375     0.875  59.22   0
       234    931.8370    666.8132 307.5332667  +6.4242553     1018.214     1722.618     1556.174      77.7036     155.8424     311.6848      1.729     5.11     842.1188     54.98875     172.8105        16     1.330     0.932  74.63   0
       235    726.9123    662.0751 307.6185282  +6.4193664      3260.41     5149.184     5204.075     78.20011     156.3383     312.0572      1.697     3.72     845.0184     54.98875     438.9032        30     1.498     1.041  79.45   0
       236    551.1883    664.2577 307.6914294  +6.4125847     904.7544     1448.757     1141.534     77.57897     155.9666     311.6848      1.675     4.80     845.3358     54.98875     146.4269        11     1.153     0.804  45.14   0
       237    748.9335    660.0963 307.6094495  +6.4209195     4010.634     6086.562     6723.229     78.20011     156.0906     311.9951      1.641     3.71     844.7241     54.98875     551.1023        29     1.540     0.941  64.39   0
       238    580.3427    658.1478 307.6795276  +6.4160833     3077.774      4853.12     4905.271     78.20011     156.0286     311.9641      1.688     3.52     845.0494     54.98875     417.0109        27     1.395     1.041  60.12   0
       239    416.3097    658.5568 307.7476323  +6.4104173     1338.835     1894.326     1917.587     78.20011     155.9666     312.0262      1.566     4.11     844.6407     54.98875     178.7523        13     1.127     0.790  46.00   0
       240    240.8590    657.5086 307.8205257  +6.4049603     1617.506     2418.946     2673.953     78.07628     155.9666     312.0882      1.608     4.19     845.2218     54.98875     217.1168        17     1.311     0.846  70.94   0
       241   1021.8182    656.2839 307.4962503  +6.4316032     4603.228     7519.769     7698.979     77.82803     147.0905      262.623      1.739     3.92     839.8457     54.98875     591.7794        33     1.568     1.067  65.33  24
       242    987.2506    655.2393 307.5106410  +6.4308818     7529.416     12327.87     12706.65     78.07628     156.0286     311.9331      1.734     3.78       840.59     54.98875     1010.024        39     1.591     1.110  63.57   0
       243    324.3746    657.1653 307.7858566  +6.4079068     1357.102     1964.387     1941.126     77.57897     155.8424     311.7469      1.563     4.33     845.4577     54.98875     184.1934        13     1.281     0.709  70.94   0
       244    706.9995    654.0051 307.6270684  +6.4220321     884.4056     1391.495     1673.471     77.57897     155.7182     311.7469      1.771     3.89     844.7456     54.98875     130.4944        10     1.192     0.639  74.40   0
       245     98.8048    652.7711 307.8796739  +6.4021397      807.805      1219.46     1236.155      77.7036     155.8424      311.778      1.546     3.00     845.5522     54.98875     131.8755         6     0.748     0.554  52.15   0
       246    145.6503    648.5246 307.8603645  +6.4054685     22829.21     36398.25     38181.46     78.20011     156.0906     311.9641      1.760     3.71     845.0183     54.98875     3028.018        64     1.671     1.251  67.95   0
       247    813.9590    649.3914 307.5828039  +6.4275118     970.4645     1693.612     1264.345     77.57897     155.8424     311.6848      1.627     5.28     843.4716     54.98875     133.5597        15     1.410     0.842  69.52   0
       248    432.6983    649.5126 307.7411309  +6.4147005     2648.512     4244.263     4689.057     78.20011     156.4621     311.9951      1.690     4.24     844.3817     54.98875     338.0634        24     1.548     0.941  67.59   0
       249    365.1560    643.1895 307.7693920  +6.4150450     675.2581     993.1104     666.6971      77.7036     155.9045     311.6848      1.514     4.62     844.4532     54.98875      118.248         6     1.401     0.609 -88.95   0
       250    982.0930    638.0929 307.5133566  +6.4377884     6646.591     11346.49     12219.62     78.20011     156.5239     311.9331      1.807     4.21     840.1387     54.98875     853.8076        39     1.712     1.084  57.75   0
       251     26.9205    637.2545 307.9100475  +6.4061256     1041.827     1761.924     1436.227     78.32375     156.0286     311.9951      1.687     5.11     846.0624     54.98875     163.2019        13     1.324     0.762  81.75   0
       252    575.6511    633.4316 307.6823062  +6.4261296     46810.42     72618.33     76884.82     78.07628     156.0906     311.9021      1.697     3.54       844.17     54.98875     6453.419        74     1.613     1.250  65.45   0
       253    219.2851    634.2927 307.8302670  +6.4138191     579.5888     1075.588     1442.333     77.95225     156.4621     312.0572      2.068     5.43     844.5308     54.98875     96.62805         7     1.257     0.662  85.35   0
       254    534.8698    633.6378 307.6992351  +6.4246786     697.3724     921.7434     1285.116     78.07628     156.0286     312.0262      1.345     3.54     844.4839     54.98875     119.0089         6     0.912     0.556  62.14   0
       255    183.2839    630.0117 307.8453613  +6.4143762     2579.285      4353.74     4864.344     77.82803     155.8424      311.809      1.755     3.96     844.4402     54.98875     335.8018        28     1.468     1.104  62.73   0
       256     75.7768    624.0099 307.8902071  +6.4132376      1336.53     1828.116     1659.984     77.82803     155.8424      311.809      1.481     4.23     845.3572     54.98875     204.6614        13     1.212     0.763  85.68   0
       257    472.9391    617.2568 307.7255046  +6.4293655     60149.73     94441.78     100018.1     78.32375     155.9666     311.9951      1.687     3.55     843.8599     54.98875     8090.804        79     1.659     1.252  64.49   0
       258    658.9645    614.2647 307.6483505  +6.4368310     925.4569     1389.853     1400.549     78.07628     155.9666     311.9951      1.625     3.62     842.9997     54.98875      114.866        10     0.909     0.761  86.86   0
       259    147.3638    612.2933 307.8608753  +6.4204827     1575.062     2561.171     2444.072     78.32375     155.9045     312.0572      1.719     4.22     844.2117     54.98875     210.6577        19     1.396     0.861  70.39   0
       260    942.5720    610.4692 307.5306944  +6.4478739     640.1503     858.9252      717.613     77.95226     156.0286     311.9021      1.525     4.74     840.3802     54.98875     100.1829         8     1.044     0.610  47.07   0
       261    618.9920    609.3493 307.6651159  +6.4375224     942.0626     1506.615     1256.492      77.7036     155.9045     311.6538      1.643     5.19     842.7792     54.98875     142.5867        13     1.415     0.755  87.47   0
       262    426.7805    610.3416 307.7449062  +6.4306725     904.7319      1443.28     1683.176     77.82803     155.9045      311.778      1.663     4.69     842.9157     54.98875     136.0375         9     0.907     0.764  83.12   0
       263    318.3269    606.6117 307.7900706  +6.4285730     2159.908     3394.524     3831.085      77.7036     155.6561      311.809      1.740     4.11     843.3469     54.98875     273.3762        19     1.424     0.808  71.57   0
       264     19.3238    607.6320 307.9142026  +6.4180980     638.0837     905.3141     1214.579     78.07628     156.0286     311.9021      1.602     5.24     846.1567     54.98875     83.38629         7     1.208     0.641  73.24   0
       265     16.4932    618.8609 307.9149987  +6.4133674     1605.027     2367.735     2719.112     78.07628     156.0286     312.0262      1.654     3.95      846.208     54.98875     217.5595        18     1.268     0.882  71.55   0
       266    744.9528    600.7745 307.6130921  +6.4452760     4999.563       7880.9     8037.365     77.82803     156.0906       311.84      1.662     3.66     842.8999     54.98875     726.2952        30     1.425     1.039  64.87   0
       267    798.5243    596.0215 307.5910028  +6.4490287     13244.11        20408     21548.57     77.82803     155.8424     311.9021      1.626     3.50     842.5392     54.98875      1772.69        38     1.489     1.058  61.91   0
       268   1015.9553    596.5445 307.5006832  +6.4560700     814.7903      1257.58     770.1149     78.20011     156.0286     311.9641      1.639     4.13     838.0152     54.98875     149.1669         7     1.082     0.525  30.83   0
       269    540.5585    595.7934 307.6981444  +6.4404921     1061.076     1606.209     1638.418     77.57897     155.7182     311.6848      1.674     5.40     843.4239     54.98875     141.6932        10     1.363     0.604  76.89   0
       270    945.3534    595.3727 307.5300446  +6.4541990     439.6623       538.88     630.0646     77.82803     156.0906     311.8711      1.476     4.91     839.9194     54.98875     76.98608         5     1.309     0.521 -43.51   0
       271    622.3781    594.1059 307.6642216  +6.4439286     2827.726     4304.015     4490.738     78.20011     155.8424      311.809      1.672     3.83      842.454     54.98875     360.6534        21     1.387     0.918  68.45   0
       272     43.4121    595.2719 307.9046172  +6.4240114     662.3578     843.8873     740.3063      77.7036     155.6561      311.778      1.675     4.59     845.5311     54.98875     112.4354         6     1.347     0.445  64.43   0
       273    939.5364    590.3784 307.5326276  +6.4560667     1159.028     1818.793     1616.093     77.82803     156.0286       311.84      1.740     5.73     839.9162     54.98875     139.3594        14     1.259     0.808  51.25   0
       274    380.8777    587.4583 307.7647391  +6.4385793     922.8568     1416.066      945.746     78.32375     156.0286     311.9021      1.671     4.65     842.4207     54.98875     137.5538        11     1.156     0.693  84.42   0
       275    234.9176    587.6943 307.8253461  +6.4335807     1180.177     1926.042      2172.03     77.95225     156.3383     312.0882      1.712     4.53     843.2814     54.98875     166.6792        15     1.231     0.901  68.67   0
       276    198.4603    587.8527 307.8404807  +6.4322900     516.3321     845.7368     889.7884     78.20011     155.9666     311.9641      1.458     4.88     843.4555     54.98875     85.24512         6     1.424     0.474 -65.12   0
       277    365.4102    587.5126 307.7711608  +6.4380378     597.8386     866.8962     1011.192     77.82803     155.7182      311.809      1.271     3.72       842.43     54.98875     115.3043         6     0.957     0.416  72.29   0
       278    874.4332    579.2966 307.5600372  +6.4584686     2824.641     4406.207     4152.313     78.32375     155.9045     312.0572      1.663     3.81     840.6959     54.98875     368.8042        23     1.436     0.980  68.49   0
       279    170.2929    579.6501 307.8524546  +6.4347292     675.3024     1085.773     1245.102     78.07628     155.9045     312.1501      1.765     4.12     843.5083     54.98875     94.70844         8     0.974     0.591  67.96   0
       280    833.3464    576.7843 307.5771855  +6.4581337     2396.675     3708.424     3903.112     77.57897     156.0286     311.6848      1.665     3.72     841.2056     54.98875     307.0519        21     1.383     0.866  64.18   0
       281    804.3098    572.8027 307.5893783  +6.4588073      2323.05     3734.653     4878.262     77.57897     155.7182     311.7159      1.834     3.42     841.4175     54.98875     335.9088        22     1.259     1.097  79.27   2
       282    813.9166    567.8894 307.5855531  +6.4611566     150908.1     235911.5     250660.9     77.95225     156.2764     312.0572      1.653     3.56     841.0722     54.98875     21130.81       129     1.723     1.321  63.06   2
       283    746.1181    571.9788 307.6135739  +6.4572026     641.3066     1751.031      2432.23     77.95225     155.7182     311.9021      3.284     8.77     841.8014     54.98875     110.5482        16     2.653     0.810  56.91   0
       284    261.2985    571.6226 307.8149323  +6.4411017     7331.015     11462.02     11554.08     78.20011     155.7803      311.778      1.685     3.68     842.7527     54.98875     944.8037        37     1.540     1.067  71.86   0
       285    195.4807    566.1508 307.8424499  +6.4411486     54765.84     88787.18     96149.33     78.20011     156.0906     311.9641      1.767     3.71     842.9612     54.98875     6908.535        94     1.730     1.371  71.40   0
       286    119.5568    562.4177 307.8741056  +6.4401363     5938.667     9395.925     10084.26      77.7036     155.9045     311.7469      1.739     3.69     843.5855     54.98875     746.4397        33     1.511     1.054  69.21   0
       287    984.9343    559.6259 307.5148020  +6.4702767     1257.301      2067.83      2128.73     77.82803     155.9666       311.84      1.708     4.94     838.1996     54.98875     173.1761        10     1.056     0.654  60.69   0
       288   1005.8521    558.9415 307.5061371  +6.4712568     619.3229     733.5439     261.3612     78.20011     156.0286     311.9641      1.290     5.17      837.774     54.98875     86.67883         7     1.060     0.711  23.54   0
       289    233.8273    558.0605 307.8267978  +6.4457772      782.888     1308.163     1536.487     77.82803     156.0906     311.8711      1.862     5.48     842.3057     54.98875     122.5323        11     1.398     0.720  62.87   0
       290    850.4527    555.1118 307.5708071  +6.4676520     4064.289      6524.75     7079.779     78.20011     155.9045     312.0882      1.716     3.93     840.2051     54.98875     550.3976        27     1.562     0.940  63.81   0
       291    368.9229    553.2637 307.7708550  +6.4522942     16222.07     25799.75     27499.62     78.44719     156.0286     311.9331      1.717     3.57       841.97     54.98875     2161.196        54     1.599     1.213  64.50   0
       292    459.7094    553.7024 307.7331363  +6.4551584        610.1     1037.978     989.9876     78.20011     156.4621     311.9641      1.644     3.12     842.1649     54.98875     120.5663         6     0.723     0.644 -41.79   0
       293    170.8206    552.3453 307.8531565  +6.4460185     1749.011     2931.381     2798.968      77.7036     156.0286      311.778      1.763     3.84     843.0503     54.98875     258.8099        20     1.358     0.930  81.17   0
       294    804.5093    548.4338 307.5901123  +6.4688741     5652.429     8557.987     9247.254     78.32375     155.9045     311.9641      1.660     3.74     840.2582     54.98875     752.1183        31     1.467     1.021  69.64   0
       295    535.2772    548.2236 307.7019365  +6.4599529     6172.958     9862.841     10200.16     77.82803     155.9045     311.9331      1.690     3.52     842.0007     54.98875     806.3555        39     1.548     1.125  70.84   0
       296    246.0498    550.2063 307.8219867  +6.4494302     889.3184      1365.61     1276.193      77.7036     155.8424     311.5917      1.675     5.08     842.0395     54.98875     126.6287        11     1.146     0.746  82.91   0
       297    176.0403    549.5809 307.8510820  +6.4473352     693.0609      1119.22     1544.654     77.82803     155.8424     311.6848      1.709     4.41     842.9285     54.98875     113.6158         5     1.031     0.536  73.34   0
       298    108.0346    549.3619 307.8793312  +6.4451382     881.2499     1294.271     1209.063     77.95225     155.9045     311.7469      1.581     4.81     843.3763     54.98875     141.0747         9     0.976     0.671  64.22   0
       299    393.5378    544.8102 307.7609169  +6.4566098     1211.986     2017.787     2395.581      77.7036     155.8424      311.778      1.791     5.04     841.8823     54.98875     177.1674        12     1.291     0.626  60.56   0
       300    579.8675    541.3058 307.6836500  +6.4643023     2148.665     4076.254     4344.728     78.07628     156.2145     311.9951      2.061     4.50     841.5231     54.98875     270.0182        26     1.466     1.205 -81.33   0
       301    277.5060    537.8017 307.8093411  +6.4556078     80595.41     130366.2     138989.5      77.7036     155.7182     311.6227      1.752     3.69     841.6312     54.98875     10312.68        97     1.696     1.331  67.33   0
       302    182.2676    541.3393 307.8487739  +6.4509468     6288.276     9944.752      10225.9     78.32375     155.9666     311.9641      1.716     3.64     842.6292     54.98875     777.7854        31     1.483     1.036  66.15   0
       303    821.1010    540.8740 307.5834747  +6.4725494     1422.814     2020.469     2132.989      77.7036     156.1526     311.9331      1.569     3.82     839.9257     54.98875     198.1321        17     1.276     0.882  54.30   0
       304     53.9124    540.0223 307.9021226  +6.4471721     4577.936     7556.562     7886.541     78.20011     155.8424      311.871      1.741     3.74     844.4229     54.98875     571.5132        31     1.511     1.048  66.65   0
       305    566.9495    535.1913 307.6892205  +6.4663939     813.8445      1345.99     1895.041      77.7036     155.9045     311.6538      1.797     4.36     841.3198     54.98875     128.7476         9     1.037     0.722  70.71   0
       306    261.3896    532.8865 307.8161999  +6.4570954     1374.577     2358.613     2369.463     77.82803     155.7803      311.809      1.834     4.07     841.5363     54.98875     224.9323        20     1.380     0.991  73.71   0
       307    976.8889    531.6170 307.5190808  +6.4815713     1465.853     2146.895     2707.253     77.95225     155.7803       311.84      1.565     3.99     837.8539     54.98875     201.8914        19     1.283     1.006 -84.03   0
       308    800.6324    530.2801 307.5923311  +6.4762389     15355.08     23742.29     24882.56     78.07628     155.9666     311.9331      1.669     3.55     839.7386     54.98875      2199.15        46     1.539     1.117  61.17   0
       309    504.2920    528.6497 307.7154631  +6.4669951     38546.01     64850.64     70592.67     78.07628     155.9045     312.1192      1.841     3.82     841.2999     54.98875     4793.581        82     1.751     1.409  52.07   0
       310    654.5031    527.3585 307.6531207  +6.4725586     1012.024     1578.325     2001.932     78.20011     155.9045     312.1501      1.724     3.89     840.4459     54.98875     176.0801        10     1.172     0.620 -83.91   0
       311    216.8616    524.8542 307.8349631  +6.4589149     1613.405     2873.583     2999.617     78.32375     155.9666     311.9331      1.891     4.17     841.6736     54.98875     205.4103        19     1.315     0.960  86.42   0
       312     52.3703    524.9975 307.9032704  +6.4533225      1169.63     1842.205     2287.595      77.7036     155.8424      311.778      1.650     3.68     844.3542     54.98875     170.5529        12     1.157     0.712 -89.21   0
       313    664.1429    523.6308 307.6492422  +6.4744200     2881.703      4563.92     4473.603     78.07628     156.0286     311.8711      1.659     3.64     840.2614     54.98875     376.7589        26     1.450     0.976  68.16   0
       314    726.3495    522.9171 307.6234300  +6.4767955     1301.333     2297.718     2172.091     78.20011     156.0286     311.9951      1.911     4.91     840.2781     54.98875     194.0031        15     1.426     0.732  61.75   0
       315    674.5860    523.7606 307.6449005  +6.4747158     1409.684     2321.656     2560.362      77.7036     155.8424     311.7159      1.650     3.60     840.1847     54.98875     187.3932        13     1.068     0.810  46.29   0
       316    401.9178    519.3025 307.7582951  +6.4674210     1491.311     2412.983     2418.776     78.07628     156.4002     312.0262      1.765     4.24     840.9443     54.98875     215.3641        18     1.464     0.798  71.44   0
       317     82.9601    520.9667 307.8907029  +6.4560161     617.7526     1001.898      1420.98     77.95225     155.8424      311.809      1.804     4.50     843.2631     54.98875     79.85944         6     0.989     0.582  43.72   0
       318    513.3378    517.2291 307.7120903  +6.4720129     1975.429     3279.965     3213.671     77.95225     156.0286     311.9021      1.747     4.58     840.7458     54.98875     238.7587        22     1.531     0.968  80.43   0
       319    148.5970    516.1516 307.8636068  +6.4602122     23858.39     38751.09     41250.97     77.57897     155.7803     311.5606      1.741     3.70     842.4138     54.98875     3047.917        63     1.641     1.250  65.48   0
       320    333.4424    517.6038 307.7867909  +6.4658241     3678.908     5595.373     5028.906     77.57897     155.7182     311.6848      1.622     3.69      840.888     54.98875     509.0027        25     1.397     0.965  69.48   0
       321    876.6085    516.2333 307.5612462  +6.4845756     1505.978     2368.815     2125.333      77.7036     155.8424      311.809      1.693     4.00     838.9439     54.98875     233.0049        19     1.438     0.823  62.38   0
       322    418.9976    516.4335 307.7512982  +6.4691783     454.5951     784.3375     722.2062     77.45415     155.8424      311.778      2.819     4.56     840.8443     54.98875     73.31714         5     1.044     0.566  75.45   0
       323    113.7654    514.4585 307.8781294  +6.4597393     2387.906     3880.348     3878.501     78.07628     156.0286     311.9331      1.712     4.03     842.5411     54.98875     336.9477        23     1.443     0.931  63.56   0
       324    350.8355    512.7953 307.7797293  +6.4683930     897.1448     1631.937     1885.044     77.32912     155.8424     311.7469      1.880     6.14     840.7092     54.98875     126.9891        13     1.534     0.691  77.93   0
       325    974.2624    510.8024 307.5208683  +6.4900765     4737.836     7464.211     7898.385     77.57897     155.9045     311.6848      1.700     3.81     837.5456     54.98875     623.2266        28     1.452     1.020  63.73   0
       326    547.3663    503.4627 307.6984201  +6.4788360     1309.895      2200.25     2193.617     78.07628     156.0906     311.9021      1.746     4.16     839.8288     54.98875     189.3785        18     1.229     1.034 -86.46   0
       327     12.8902    500.5052 307.9204934  +6.4621036     23849.41     38270.38     40930.91     78.20011     156.5239     311.9951      1.748     3.62     845.7296     54.98875     3251.814        58     1.617     1.240  66.05   0
       328    445.6355    497.3251 307.7408779  +6.4779600     39984.11     63729.21     67405.59     78.07628     156.0906     311.9641      1.732     3.64     840.1982     54.98875     5461.582        71     1.668     1.232  64.76   0
       329    653.6534    496.9748 307.6544937  +6.4850732     11448.36     17869.14     18782.92      77.7036     156.0906      311.809      1.646     3.50     839.4237     54.98875     1530.593        38     1.508     1.070  67.83   0
       330    293.8505    497.8033 307.8039009  +6.4726686     881.4442     1525.834     955.3926     77.57897     155.7803     311.5606      1.814     6.57     840.1729     54.98875     107.2526        12     1.139     1.064 -89.75   0
       331      1.3865    495.2466 307.9254484  +6.4638868       745.12     1526.294      2282.16      68.2924     124.5808     235.4649      2.874     6.89     846.2603     54.98875     138.7171        15     2.319     0.573 -87.11  24
       332    210.7847    494.9036 307.8384968  +6.4710745     17879.17     30099.47     31787.87     77.95225     155.7803     311.7469      1.809     3.79      841.191     54.98875     2286.851        54     1.669     1.228  61.25   0
       333    176.5032    495.9919 307.8526974  +6.4694727     1495.295     2366.727      1921.25     77.95225      155.656      311.778      1.649     3.82      841.623     54.98875     214.1066        14     1.276     0.695  55.07   0
       334    987.7716    495.3192 307.5157754  +6.4969191     1212.516     1783.057     1915.709     78.07628     155.8424     311.9331      1.524     4.10     837.2306     54.98875     175.0143        13     1.150     0.822  74.08   0
       335    575.3749    493.8402 307.6871107  +6.4837466     2532.947     3856.103     3788.415     77.82803     155.8424     311.7469      1.569     3.62     839.5155     54.98875     363.8856        20     1.423     0.795  71.75   0
       336    916.4523    494.4081 307.5454283  +6.4949157     741.0168     1126.104     1238.561      77.7036     155.9045     311.6848      1.826     4.75     837.6732     54.98875     106.4084        10     1.207     0.753  87.19   0
       337    827.7964    494.7963 307.5822382  +6.4917951     871.7989     1499.256     1427.132     77.57897     155.5939      311.778      1.842     5.28     838.7579     54.98875     113.3845        10     1.241     0.633  67.94   0
       338    949.3553    490.9901 307.5318765  +6.4974247     4509.106     7130.863     7213.482      77.7036     155.9045     311.6848      1.646     3.65     837.2787     54.98875     582.4908        30     1.467     0.998  64.85   0
       339    622.3865    489.2982 307.6677377  +6.4871958     6127.405     9623.318     10320.69     78.07628     155.7803     311.7159      1.716     3.64     839.3909     54.98875     835.6985        33     1.497     1.046  61.63   0
       340    110.0403    489.7709 307.8805097  +6.4698052     1034.418     1684.199     1828.031     77.82803     155.7803       311.84      1.796     5.09     842.0015     54.98875     163.6219        13     1.434     0.843  71.99   0
       341    221.8867    488.7665 307.8340930  +6.4739811     599.0332     647.6849      1048.06     78.20011     155.9045     311.9641      1.455     4.71     840.9528     54.98875     88.21484         7     1.020     0.618 -89.51   0
       342    971.8925    483.3516 307.5227713  +6.5013300     3135.898     5040.044     4721.089     78.07628     155.9045     312.0882      1.672     4.01     837.0833     54.98875     455.8914        23     1.416     0.940  69.21   0
       343    534.6264    480.6187 307.7044792  +6.4878397     7072.869     11219.37     12288.13     77.82803     155.8424     311.8711      1.718     3.61     838.8843     54.98875     943.7892        37     1.508     1.130  66.04   0
       344    410.5678    482.2875 307.7559484  +6.4829915     764.9103     1133.236     1529.733     78.32375     155.9045     311.9641      1.652     4.67     839.6015     54.98875     110.8071         8     0.839     0.805  45.77   0
       345    380.5721    480.6978 307.7684599  +6.4826413     2433.532     3832.125     4038.005     78.32375     155.7803     311.9331      1.723     3.80     839.5651     54.98875     327.2284        23     1.376     1.011  63.62   0
       346    103.5509    480.3854 307.8835216  +6.4734612     754.3943     1086.886     940.1866     77.57897     155.9666     311.6848      1.488     4.65     841.8284     54.98875     99.67731         7     0.895     0.686 -28.58   0
       347    891.1021    476.3640 307.5565619  +6.5015186     3109.574     4898.525     5755.851     78.20011     155.9045     312.1192      1.710     3.51     837.6392     54.98875     434.3475        22     1.325     0.923  58.11   0
       348    898.4653    470.8553 307.5536881  +6.5040385      1970.97     3033.414     3211.276     78.32375     155.9666     311.9641      1.602     4.16     837.2833     54.98875     285.3033        20     1.399     0.936  62.13   0
       349    938.1241    470.3249 307.5372333  +6.5055812      1261.21     1796.978     1926.199     78.44719     156.2764     312.0572      1.633     3.83     836.6235     54.98875     172.8635        14     1.144     0.817  72.38   0
       350    117.3407    470.1123 307.8781414  +6.4781660     603.5636     929.0018     1159.505     78.20011     156.0906     312.0572      1.728     3.51      841.623     54.98875     106.3124         5     0.816     0.435  74.19   0
       351    722.5199    466.8582 307.6269014  +6.4998099     2905.298     4412.083      4206.47     78.20011     156.0286     311.9331      1.594     3.64     838.3942     54.98875     381.7939        22     1.383     0.886  69.91   0
       352     84.4098    465.9139 307.8919596  +6.4787909     1809.878     3121.741     3333.269     77.82803     155.7182      311.809      1.904     4.60      842.287     54.98875     270.2684        22     1.470     1.052  83.93   0
       353    433.8677    465.6907 307.7468298  +6.4906245      867.791     1636.291     1674.671     78.32375     156.1526     311.9641      1.924     4.65     838.4897     54.98875     130.2949        11     1.264     0.775  55.67   0
       354    393.3578    464.7957 307.7636850  +6.4896350      3446.16     5642.517     6376.004     77.57897     155.7182     311.6848      1.802     4.29      838.391     54.98875     406.8805        26     1.414     1.073  76.06   0
       355    621.1317    461.5356 307.6691914  +6.4986147     9688.021     14928.35     15553.38     78.20011     156.0906     311.9951      1.673     3.54      838.059     54.98875     1259.593        40     1.506     1.102  69.73   0
       356    783.8101    458.1374 307.6017369  +6.5054591     15332.26     24134.13     25821.59      77.7036     155.8424      311.778      1.679     3.51     837.5547     54.98875     2146.585        50     1.590     1.174  72.36   2
       357    787.7343    453.2185 307.6002719  +6.5076209      1298.04     2067.956      2855.32     77.82803     156.0286     311.8711      1.701     3.95      837.295     54.98875     219.1813        17     1.316     0.956  75.35   3
       358    303.5269    458.4385 307.8012084  +6.4892438     2403.076     4102.635     3915.881     78.07628     155.9666     312.0262      1.814     4.14     838.2335     54.98875     297.6747        22     1.434     0.912  74.16   0
       359    427.3323    457.7757 307.7498105  +6.4936727     690.0668      1048.66     1195.235     77.82803     155.9045     311.8711      1.759     5.02     837.8932     54.98875     93.06488         8     1.167     0.610  43.98   0
       360    812.7343    455.4301 307.5898139  +6.5075433     1227.403     2011.391     2302.137     77.95225     156.0286     311.9021      1.810     4.91     837.2621     54.98875     173.7869        16     1.310     0.955  64.01   0
       361    386.5513    455.1201 307.7668376  +6.4934008     1507.085     2232.899      2949.95     78.20011     156.0906     311.9641      1.722     4.62     837.6552     54.98875     185.6398        16     1.351     0.764  65.99   0
       362    402.7860    454.3692 307.7601201  +6.4942555     525.4978     695.4457     1060.208     77.82803     155.7803     311.9021      1.630     4.99     837.5872     54.98875     80.34656         5     1.063     0.663 -60.41   0
       363    969.0059    452.9029 307.5249894  +6.5138038     1842.687     2895.297     2583.787     77.95225     155.7182      311.778      1.614     4.13      835.761     54.98875     287.2043        19     1.440     0.831  73.66   0
       364    717.0295    452.3367 307.6296691  +6.5056210     579.3882     858.5527     863.6583     77.95225     156.0286     311.9021      1.591     4.37     837.6614     54.98875       97.802         6     0.858     0.634  35.84   0
       365    375.3252    451.7155 307.7716148  +6.4944295     679.6862     994.9822     1548.603     78.32375     156.3383     312.0262      1.439     2.60     837.4305     54.98875     117.8591         5     0.715     0.453 -77.40   0
       366    759.3715    449.0433 307.6121926  +6.5083964     2102.522      3481.06     3829.059     77.82803     156.0906     311.8711      1.714     3.91     837.2901     54.98875     286.1201        21     1.430     0.902  65.38   0
       367    121.0948    449.8610 307.8772658  +6.4866521     4062.217     6406.021     7165.692     78.07628     156.0906     312.0261      1.682     3.73     841.3504     54.98875     493.2718        29     1.446     1.065  55.27   0
       368   1022.6676    447.7344 307.5028731  +6.5177271     3620.265      5602.82     5439.792     77.57897     137.9242     250.4398      1.682     4.53     835.1109     54.98875     504.5972        28     1.536     1.024  62.54  24
       369    279.2307    447.1046 307.8116812  +6.4931064     1459.351     2260.779      2753.75     78.32375     155.7803     312.0262      1.750     3.93     838.0536     54.98875     189.4761        18     1.255     0.926  56.83   0
       370    357.3622    444.9012 307.7793049  +6.4966397     2972.393      4980.46     5115.038     78.20011     155.9045     312.1812      1.818     4.17     836.9072     54.98875     375.4658        26     1.580     0.981  59.67   0
       371    713.1534    442.7220 307.6316017  +6.5094606      1547.76     2485.161     2411.211     78.07628     156.0906     311.9641      1.782     4.30     837.2563     54.98875     216.7455        16     1.323     0.898  28.94   0
       372    987.0752    441.1105 307.5178787  +6.5192747      615.424     1024.889     772.5905     78.20011     156.3383     312.0572      1.583     5.30     835.0392     54.98875     91.13898         7     1.217     0.653 -88.38   0
       373    245.0824    440.8682 307.8260742  +6.4945336     747.2689     1130.321      1295.79     78.44719     156.2764     311.9951      1.600     4.22     838.8015     54.98875     126.8569         9     1.023     0.687  87.69   0
       374    554.2612    435.3401 307.6978460  +6.5071893     817.9404     1172.454     1433.738     78.20011     156.0286     311.9951      1.668     5.32     836.9357     54.98875     125.1071         9     1.184     0.676  80.67   0
       375    476.6583    433.4265 307.7301426  +6.5053786     1150.604     2025.136      2410.87     77.82803     156.0906      311.778      1.933     4.78      836.049     54.98875     156.1208        14     1.448     0.689  75.19   0
       376    839.3975    432.7424 307.5794995  +6.5178001     1346.955     1999.484     2408.823     77.57897     155.7182     311.7159      1.697     4.92     836.1692     54.98875     188.4958        18     1.420     0.868  47.75   0
       377    825.0371    431.5905 307.5855029  +6.5177959     1874.264     2876.611     2945.303      77.7036     155.8424     311.6848      1.611     4.12     836.1873     54.98875     263.3822        18     1.401     0.858  68.34   0
       378    722.2764    429.7995 307.6282460  +6.5151004     13949.11     21868.51     23088.43     77.45415     155.4072      311.778      1.667     3.67     836.5463     54.98875     1784.029        42     1.544     1.081  65.02   0
       379    624.5745    431.9591 307.6687548  +6.5109398     655.7355     1104.324     1372.519     77.82803     155.9045     311.7469      1.880     4.77     836.4563     54.98875     96.84393         7     1.178     0.548  60.19   0
       380    643.4262    425.6819 307.6611354  +6.5141621     2574.233     3845.764     4264.278     78.07628     155.8424     311.9641      1.597     3.93     836.4553     54.98875     329.9115        20     1.344     0.859  73.97   0
       381    615.7693    420.9898 307.6727805  +6.5151733     11959.59     25447.98     30671.66      77.7036     155.8424      311.778      2.364     6.54     835.6857     54.98875     1924.544        69     2.478     1.262  40.90   0
       382    947.6370    419.7059 307.5349767  +6.5267955     3636.043     5729.471      5918.82     78.32375     155.9045     312.0572      1.706     3.85     834.5448     54.98875     478.3859        25     1.445     0.940  64.31   0
       383    386.7095    415.6679 307.7681001  +6.5096925     27403.27     43373.49     45894.86     78.32375     156.1526     311.9641      1.735     3.68     834.8309     54.98875     3710.218        61     1.630     1.223  66.94   0
       384    903.0466    415.5301 307.5536382  +6.5270312     1413.502     2607.654     3437.713     78.20011     155.9666     311.9641      2.390     4.37     834.9123     54.98875      220.295        17     1.401     0.913  63.08   2
       385    132.9103    415.0695 307.8735328  +6.5014117     2068.882     3387.141     3617.176     78.32375     156.2764     311.9641      1.790     4.15     840.6461     54.98875     274.3855        21     1.380     0.957  83.73   0
       386    916.2603    410.0975 307.5483316  +6.5297150     4904.198      7711.48     7273.633     77.95225     156.0286     312.0572      1.661     3.82     834.6414     54.98875     657.7358        30     1.455     1.032  69.21   0
       387     66.1294    410.7365 307.9014151  +6.5009529     1426.184     2209.363       2491.4     78.20011     156.0286     311.9951      1.692     4.33     841.6404     54.98875     204.1447        15     1.285     0.797  76.51   0
       388    598.1271    410.6579 307.6804555  +6.5188478     593.4278     840.7179      766.447     78.32375     156.0286     311.9331      1.315     4.47     835.2039     54.98875     97.54785         5     1.320     0.429  60.91   0
       389    244.1746    406.2323 307.8276190  +6.5088010     12802.96     20662.46      21771.2      77.7036     155.8424      311.809      1.706     3.65     837.5059     54.98875     1671.663        46     1.580     1.165  63.06   0
       390     79.7925    400.2666 307.8960940  +6.5057349     771.2208      1167.82     807.2872      77.7036     155.7803      311.809      1.650     4.42     841.3408     54.98875     111.0959         6     0.932     0.596  61.79   0
       391    738.9237    399.8469 307.6223363  +6.5280222     760.1766     1115.304       1475.7     78.07628     156.0906     311.9641      1.654     4.51     835.2015     54.98875     110.2931         8     1.117     0.518  57.08   0
       392    707.2576    398.9843 307.6355184  +6.5273193     601.1554     925.9277     1123.207     77.57897     155.9666     311.6848      1.594     4.80      835.423     54.98875     115.2604         9     1.435     0.455  64.17   0
       393    967.6100    398.7986 307.5273803  +6.5360930     877.9922     1244.822     1122.603      77.7036     155.7182     311.7469      1.548     3.52     833.3284     54.98875     136.2409         9     1.055     0.583  28.69   0
       394    190.4236    396.1145 307.8502852  +6.5111709     792.5164     1357.751     1482.216     78.20011     155.7803       311.84      1.927     6.10     838.7891     54.98875     114.4773        10     1.388     0.798  74.88   0
       395    357.1520    395.7669 307.7810469  +6.5169158     1199.112     2051.347     2448.117     77.95225     156.0286     311.9021      1.770     3.78     834.2043     54.98875     211.5079        14     1.222     0.859  61.12   0
       396    144.4483    394.8459 307.8694232  +6.5101483     4866.471     7954.786     7857.371     78.20011     155.9045     311.9951      1.749     3.87     839.9765     54.98875     602.5206        37     1.642     1.087  66.87   0
       397    249.3939    394.1298 307.8258592  +6.5139725     1360.413     2214.796      2043.83      77.7036      155.656       311.84      1.669     4.55     836.9325     54.98875     201.2017        18     1.392     0.944  66.60   0
       398    442.2747    393.8925 307.7457539  +6.5205458     642.6797     1024.263     971.7492     78.20011     156.1526     311.9331      1.437     3.50     833.9988     54.98875     105.3394         7     0.859     0.585  60.88   0
       399    830.7908    391.9482 307.5844418  +6.5343535     780.7113     1303.914     1096.302      77.7036     155.9045     311.7159      1.564     4.55     835.1556     54.98875     107.3275         8     0.993     0.591  24.65   0
       400    166.6519    390.3725 307.8603522  +6.5127418     2194.173     4112.518     4145.286     77.82803     156.1526     311.9021      1.996     5.01     839.3042     54.98875     271.1636        29     1.681     1.118  84.67   0
       401    562.5568    390.0406 307.6959229  +6.5261677     867.9277     1395.349     1177.894     77.95225     156.0286       311.84      1.643     3.89     834.4757     54.98875     144.5375         9     1.134     0.629  64.47   0
       402    389.9525    385.5882 307.7677659  +6.5222186     1966.091     3062.541     2823.827     77.57897     155.9045     311.6538      1.634     3.80     833.8366     54.98875     276.4637        20     1.282     0.953  81.40   0
       403    278.4408    386.0528 307.8140670  +6.5182827     646.4814     993.7599     907.3741     78.07628     156.0906     311.9951      1.553     4.97     835.7562     54.98875     103.6844         6     1.197     0.584  65.07   0
       404      8.6419    385.9184 307.9261297  +6.5092619     573.3815     1056.235     976.9688     78.20011     156.0286     311.9021      1.727     3.04     842.0641     54.98875      101.282         5     0.861     0.479 -88.97   0
       405    978.5786    384.4021 307.5233060  +6.5424021     852.7582     1186.742     1194.193     77.82803     155.7182     311.7159      1.578     3.84     832.3713     54.98875     126.6309         9     0.971     0.677  60.09   0
       406    323.7138    383.0280 307.7953647  +6.5210520     519.0867     825.7362     1251.669     78.32375     155.7182      311.809      1.730     3.85     834.5068     54.98875     88.57117         6     1.374     0.309 -75.73   0
       407     40.1381    379.8825 307.9132522  +6.5128144      2905.81     5074.232      5734.84     78.32375     156.0286     311.9331      1.899     3.93     841.5942     54.98875     379.8741        33     1.615     1.155 -82.96   0
       408    443.8224    379.0595 307.7456102  +6.5267210     7062.557     11561.48     12578.63     77.82803     155.9666       311.84      1.735     3.58     833.4238     54.98875     947.5288        41     1.514     1.189  64.36   0
       409    784.5317    376.4275 307.6041773  +6.5392150     12210.36     18943.53     20461.26     77.82803     155.9666     311.8711      1.691     3.72     834.9031     54.98875     1672.662        47     1.581     1.134  59.72   0
       410    776.4057    377.8401 307.6075053  +6.5383602     1868.346     3060.791     3538.391     77.45415     155.7182     311.6848      1.769     3.82      834.877     54.98875     253.6512        19     1.399     0.815  75.43   0
       411    348.0787    374.8514 307.7855200  +6.5252454     1001.634     1432.761     1180.781     78.20011     156.0906     311.9641      1.450     3.61     833.7023     54.98875     172.9572        12     1.096     0.750  56.34   0
       412    192.9483    367.6715 307.8501960  +6.5229972     858.0806     1222.219     1464.528     78.07628     156.0286     311.9951      1.574     4.53     837.8875     54.98875     136.2435        10     1.229     0.688  64.42   0
       413    959.1290    368.3821 307.5319215  +6.5483668     612.6923     806.8833     1180.323      77.7036     155.9045     311.9021      1.355     3.34      832.261     54.98875     105.8655         5     0.782     0.414  22.55   0
       414    464.0339    363.1987 307.7377487  +6.5339464     2095.186     3340.133     3615.006     77.32912     155.8424     311.7469      1.728     3.86     832.7072     54.98875     291.9951        21     1.290     0.972  75.05   0
       415    492.0547    362.6722 307.7261274  +6.5351032     2846.535     4507.354     4394.717     78.07628     155.9045     311.9021      1.666     3.67     832.6549     54.98875     406.4124        25     1.413     0.972  68.27   0
       416    920.8947    362.7248 307.5479931  +6.5494264     787.3809     1106.044     1195.772     77.95225     156.2145     311.9641      1.408     4.68     833.3052     54.98875     118.0213         8     0.933     0.726  89.13   0
       417    849.8382    359.3743 307.5776217  +6.5484370     30836.32     50121.71     53248.58     77.82803     155.8424      311.809      1.754     3.85     834.7307     54.98875     4067.048        68     1.698     1.237  72.35   0
       418    342.0828    355.5255 307.7886615  +6.5330221      911.406     1294.433       1596.4     78.44719     156.3383     312.0262      1.687     3.48     833.2974     54.98875     145.4528        10     1.007     0.650  63.83   0
       419     29.8760    352.3444 307.9184449  +6.5238365     1010.479     1434.982     1149.297     78.20011     155.9666     311.9021      1.576     5.68     841.5695     54.98875     143.4984        12     1.413     0.642  62.84   0
       420    621.7145    351.5784 307.6726427  +6.5440267     2577.819     4051.571     4258.993     78.20011     155.7803     311.8711      1.690     3.52     832.6509     54.98875     368.7636        25     1.378     1.028  73.62   0
       421    706.3165    345.3395 307.6377098  +6.5494335     75349.03       117835     125267.8     78.32375     156.0906     311.9951      1.708     3.65     833.2399     54.98875      9547.56        95     1.681     1.290  61.80   0
       422    864.5443    346.9715 307.5719285  +6.5540484     1168.694     1908.831     1690.655     77.82803     156.0906     311.8711      1.709     4.10     834.4117     54.98875     169.7031        16     1.280     0.850  59.56   0
       423     85.7172    345.0521 307.8954978  +6.5287270     1176.524     1882.456     2000.341     78.20011     156.0286     312.0262      1.704     3.69     840.2202     54.98875     166.1112        14     1.136     0.824  87.05   0
       424    568.7749    342.2010 307.6949480  +6.5461250     2428.102     3715.875     3986.422     77.82803     155.7182     311.7469      1.565     3.60     831.7031     54.98875     337.0389        20     1.317     0.863  63.99   0
       425    105.9562    340.8486 307.8872335  +6.5311434     5645.199     9450.263     10563.82     78.20011     155.9666     311.9021      1.812     3.72     839.6786     54.98875     779.0955        39     1.591     1.172  77.58   0
       426    947.8804    341.9695 307.5374784  +6.5588953      710.261     1087.951     912.9935     78.07628     155.9666     311.9331      1.656     4.82     831.6418     54.98875     90.77979         8     1.239     0.532  79.15   0
       427    552.0826    338.2408 307.7020148  +6.5472006     6785.622     10758.89     11029.92     78.20011     156.0286     311.9021      1.655     3.68      831.304     54.98875     944.6624        33     1.543     1.027  67.18   0
       428    414.9453    333.3937 307.7591419  +6.5446038     24024.81     39248.69     41848.24      77.7036     155.7803     311.6848      1.736     3.70     831.8832     54.98875     3221.197        62     1.648     1.245  65.24   0
       429    280.8982    335.6452 307.8147453  +6.5391739     2421.846     3853.628     4090.826     78.20011     155.9666     312.1812      1.695     3.79     834.3738     54.98875     372.0593        22     1.423     0.936  59.05   0
       430    522.6619    331.9584 307.7144469  +6.5488083     1152.769     1828.754     1771.952     78.20011     156.0286     312.0572      1.666     5.54     830.8514     54.98875     188.3753        12     1.363     0.750  81.36   0
       431    394.4905    331.4164 307.7677048  +6.5447337     983.6393     1783.022     3294.851     77.95226     155.7803     311.8711      3.966     6.52     832.0404     54.98875     132.4382        14     1.533     0.779  50.71   2
       432    593.8378    332.6167 307.6848593  +6.5509210     637.7194     973.8388     349.4619     77.82803     155.9045     311.7159      1.414     3.41     831.4567     54.98875     109.8562         5     0.807     0.416  21.29   0
       433    494.0062    328.3892 307.7264700  +6.5493212     1098.854     1788.816     1779.207     77.82803     155.8424     311.8711      1.740     4.24     830.5984     54.98875     171.8807        13     1.280     0.821  77.58   0
       434    809.7403    325.8951 307.5954005  +6.5609184     803.1513     1290.797     1338.214     78.07628     156.0286     312.0572      1.768     6.27     833.4791     54.98875     117.3529        13     1.285     1.120 -70.69   0
       435    646.3851    326.1716 307.6632483  +6.5553410     512.1364     641.4896     699.1016     77.82803     155.8424     311.8711      1.267     2.73     831.6496     54.98875     108.9225         5     0.740     0.430  67.76   0
       436    504.0117    323.8250 307.7224674  +6.5515408     8103.814     13125.58     13994.47     77.82803     155.8424     311.9021      1.703     3.57       830.34     54.98875     1084.904        40     1.542     1.144  70.41   0
       437    773.1476    322.5877 307.6107120  +6.5610608     2925.912     4676.605      5075.85     77.57897     155.9666     311.6848      1.733     3.65     833.1364     54.98875     425.3199        24     1.408     0.939  61.14   0
       438    928.3599    322.4998 307.5462393  +6.5662815     721.6033     1183.681     1635.084     78.20011     155.9045     312.1812      1.844     4.44     831.6393     54.98875     114.2733         7     1.008     0.556  57.47   0
       439    720.7443    321.9078 307.6325030  +6.5595892     644.2281     1037.557     1033.754     78.07628     155.9045     312.0882      1.662     3.84     832.5613     54.98875     99.86902         5     0.999     0.526  57.85   0
       440    330.5156    320.6546 307.7946409  +6.5470288     974.5981      1373.15     994.8512     78.20011     156.0286     312.1192      1.490     3.97     832.7982     54.98875     150.0667         9     1.030     0.674  69.02   0
       441    166.2023    314.3148 307.8631054  +6.5441236     1037.292     1613.727     1314.322     77.57897      155.656     311.6848      1.612     4.95     837.3818     54.98875     175.1935        11     1.214     0.741  77.58   0
       442    393.9772    308.0206 307.7687058  +6.5543745     6954.466      11455.2     12096.01     77.95225     155.8424     311.9021      1.750     3.69     831.3289     54.98875     945.9644        37     1.577     1.127  59.93   0
       443    249.6992    308.5275 307.8286186  +6.5493200     1966.034     3168.539     3242.219     77.95225     156.1526     311.9641      1.716     3.94     834.7126     54.98875     273.2238        20     1.372     1.016  60.32   0
       444    761.7643    303.8902 307.6160679  +6.5683989     51617.94     79836.72     84285.13     78.32375     155.9666     311.9951      1.662     3.54      832.319     54.98875     7387.913        79     1.644     1.228  63.72   0
       445    747.3071    307.4122 307.6219553  +6.5664616     943.4918     1261.744     1159.525     77.95225     155.7803      311.778      1.487     4.72     832.3599     54.98875     171.8633        10     1.250     0.608  59.63   0
       446    433.5735    303.4465 307.7524121  +6.5575913     2197.113     3567.213      3572.12     77.82803     156.0906     311.8711      1.837     4.22     830.2803     54.98875     258.9879        21     1.400     0.926  59.88   0
       447    579.5204    300.9774 307.6918699  +6.5635028     986.4262     1709.015     1565.067     77.82803     155.7182     311.9331      1.706     5.41     829.5318     54.98875     147.9998        12     1.468     0.660  78.21   0
       448    996.4814    301.0360 307.5186595  +6.5774150     1444.125     2362.111     2380.667     78.20011     156.0906     311.9331      1.701     4.42     828.1002     54.98875     200.4684        18     1.431     0.827  53.16   0
       449    937.5177    299.9770 307.5431894  +6.5758851     2070.383     3254.573     3281.923     78.07628     155.7182     311.8711      1.610     3.86     830.4055     54.98875     283.8145        17     1.356     0.785  73.27   0
       450    470.6923    300.0731 307.7371068  +6.5602288     1145.694     2039.186     3217.789     78.07628     156.1526     311.9951      2.887     7.61     829.0912     54.98875     150.4622        20     1.926     0.951  80.30   2
       451    420.0505    298.8829 307.7581829  +6.5590216     1831.474     3049.656     3194.959     78.20011     156.0286     311.9951      1.746     4.23     830.5081     54.98875     234.8466        19     1.447     0.838  62.35   0
       452    299.8525    297.6528 307.8081527  +6.5554943     566.3741     1096.562     673.9189     78.44719     155.9045     311.9951      1.761     3.28     832.9319     54.98875      99.9245         5     0.762     0.426  19.68   0
       453    841.1828    293.6344 307.5834207  +6.5752869     1065.044     1764.274     1677.984     77.82803     155.8424      311.809      1.656     3.52     832.1245     54.98875     188.1974        10     1.095     0.672  84.63   0
       454    450.6705    290.6792 307.7457398  +6.5634353     973.6091     1804.146     2130.278     78.44719     156.2764     311.9331      2.051     6.58     829.1982     54.98875      132.873        14     1.404     0.971  60.67   0
       455    196.4987    290.1832 307.8513354  +6.5551042     2045.409     3375.468     3475.488     78.20011     155.8424      311.778      1.748     4.28     835.9488     54.98875     287.4592        22     1.507     0.938  81.77   0
       456    760.2988    288.3696 307.6171974  +6.5747572     5844.021     8979.067     9339.321     78.20011     155.7803     312.0262      1.670     3.59     831.6776     54.98875     786.4775        34     1.504     1.061  58.32   0
       457    231.9750    288.7552 307.8366476  +6.5568864     647.0819     921.1757     624.3939      77.7036     156.0906       311.84      1.400     4.23     834.9776     54.98875     109.7523         5     1.159     0.440  56.13   0
       458     92.7094    287.7454 307.8945289  +6.5526186     1099.426     1725.772     1983.136     78.07628     155.8424     312.0882      1.702     5.21     838.8055     54.98875     138.8605        17     1.357     0.960  50.85   0
       459    776.6730    286.3928 307.6104616  +6.5761207     2422.539     4060.862     4252.552     77.82803     155.5939     311.8711      1.815     3.94     831.6136     54.98875     357.9946        26     1.479     1.042  58.96   0
       460    350.7650    288.0515 307.7873280  +6.5611675     752.3132     1281.236     904.5518     78.07628     156.0286     311.8711      1.839     4.01      831.683     54.98875     99.64514         7     0.772     0.653 -82.87   0
       461     79.9655    281.5156 307.9000327  +6.5547613     1101.586     2028.024     2154.504     78.20011     155.9666     311.9331      1.808     5.47     839.0139     54.98875     137.3069        15     1.469     0.713  84.99   0
       462    366.0627    281.1377 307.7812064  +6.5645352     1554.504     3188.746      3686.68     78.20011     156.0286     311.9951      2.291     4.90     831.1752     54.98875      177.282        25     1.451     1.201   1.22   0
       463   1014.9037    277.3762 307.5117984  +6.5877968     5682.684     9271.404     9841.656     78.32375     155.7803       311.84      1.740     3.70     826.6916     54.98875      781.001        34     1.512     1.104  61.50  16
       464    493.0320    277.1911 307.7285968  +6.5704238     1958.459     2959.066     3052.684      77.7036     155.8424      311.809      1.580     4.13     827.8989     54.98875     240.9446        18     1.309     0.850  62.32   0
       465    255.4984    272.7656 307.8274156  +6.5642776     5470.014     8918.731     10076.91     78.20011     155.9045     312.0882      1.785     3.89     834.0107     54.98875      678.762        35     1.582     1.093  62.77   0
       466    263.9203    273.4209 307.8238952  +6.5642901     568.9127     950.6463     1594.358     77.82803     155.7182     311.9641      1.793     4.57     833.6478     54.98875     87.71442         5     0.989     0.599 -78.45   0
       467    774.8350    266.1379 307.6119047  +6.5844208     838.4011     1260.441     982.9164     78.07628     156.0286     311.9331      1.599     5.11     830.5322     54.98875     117.3409        10     1.099     0.671  82.05   0
       468    232.4209    266.1720 307.8372240  +6.5662239     547.4006     703.9274     802.6075     77.57897     155.7803     311.9021      1.447     3.41      834.921     54.98875     79.60602         5     0.768     0.438  68.91   0
       469    389.7016    263.5504 307.7719792  +6.5725888     1554.988     2661.733     2570.068     78.20011     155.9666     312.1501      1.786     4.87     830.1143     54.98875     222.0991        20     1.507     0.896  68.18   0
       470    976.6708    262.3010 307.5281860  +6.5927450     1050.646     1694.895     1696.024     78.07628     156.1526     311.9641      1.869     4.61     827.5511     54.98875     195.1188        12     1.457     0.638  76.67   0
       471    311.7183    259.5065 307.8045094  +6.5716399     1275.639     1893.871     2185.391     77.95225     156.2764     312.0572      1.680     5.30     831.9075     54.98875     145.1484        14     1.263     0.837  66.52   0
       472    196.1947    260.6520 307.8524580  +6.5672846     660.5785     1171.692     1781.299     77.57897     155.7803     311.6227      2.145     5.03     835.6916     54.98875     77.93164         6     1.145     0.624  77.22   0
       473    159.1261    259.2811 307.8679020  +6.5666037     1650.579     2579.668     2989.231     78.44719     156.2764     312.0262      1.653     4.59     836.3019     54.98875     198.5123        17     1.313     0.866  63.96   0
       474    568.9899    255.0369 307.6977885  +6.5821150      2049.87     3273.539       3297.3      77.7036     155.8424     311.6848      1.647     4.18     827.6673     54.98875      259.504        24     1.514     0.948  61.79   0
       475    912.7288    254.4241 307.5550130  +6.5938630     1663.523     2849.916     3205.819     77.82803     155.9045     311.9021      1.921     3.98     828.8164     54.98875     235.0833        18     1.384     0.837  44.85   0
       476    732.7131    252.5628 307.6298584  +6.5886165     4793.376     7448.342     7625.799     78.20011     155.9666     311.9641      1.690     3.55      829.617     54.98875     692.2712        29     1.426     1.063  66.82   0
       477    673.4161    252.4945 307.6544938  +6.5866610     2167.125      3351.75     2904.733     77.95226     155.8424       311.84      1.651     3.91     828.1364     54.98875     306.0607        18     1.271     0.946  64.75   0
       478    970.8046    252.5693 307.5309488  +6.5965668     847.1801     1056.509     1189.716      77.7036     155.9045     311.7469      1.400     4.62      827.409     54.98875      118.041         8     0.947     0.641  58.23   0
       479    388.3855    247.0081 307.7730830  +6.5793735     724.7728     1133.015     1060.779     77.82803     155.7803      311.809      1.787     4.98     829.6858     54.98875      102.949         9     1.128     0.622  75.23   0
       480    928.4412    244.5642 307.5488160  +6.5984578     984.1315     1415.992     1049.881     77.95226     156.0286      311.809      1.593     4.26     827.9426     54.98875     158.4161         7     1.017     0.508  62.32   0
       481    232.1898    237.9779 307.8382709  +6.5778548     2068.133     3517.591     4020.094     77.82803     155.7803      311.809      1.858     4.00     834.8521     54.98875      257.902        24     1.505     0.932  74.42   0
       482    874.9069    236.9714 307.5713102  +6.5998050     1505.005     2378.465     2246.702     78.32375     155.7803      311.871      1.599     4.15      828.832     54.98875     217.9016        14     1.316     0.709  55.47   0
       483    765.1880    236.1248 307.6169191  +6.5964884     1594.692     2466.045     2439.016     77.82803     155.7182      311.778      1.679     4.09     828.8831     54.98875     208.7224        17     1.314     0.836  75.37   0
       484    585.2478    231.8444 307.6918143  +6.5922338     315.5845     728.5978     391.7305     78.20011     155.9666     311.9021      1.899     3.46      827.173     54.98875     71.12048         5     1.000     0.347  44.82   0
       485    792.0453    226.8815 307.6060719  +6.6012020      12637.6     20198.76     21980.23     78.20011     156.0286     311.9331      1.710     3.66     828.4951     54.98875     1727.871        51     1.583     1.247  55.40   0
       486    466.0871    227.7428 307.7414537  +6.5899333     21358.06     34524.73      36558.5     78.20011     156.0286     312.0882      1.735     3.68     827.4205     54.98875     2848.849        57     1.623     1.223  69.08   2
       487    471.7386    222.2669 307.7392902  +6.5923833     1455.956     2364.887     2276.827     78.20011     155.9666     311.9641      1.683     4.07     827.1622     54.98875     195.3171        16     1.252     0.923  73.83   2
       488    326.9811    228.7094 307.7992071  +6.5848658     602.9938      1071.12     987.1788     78.07628     155.7803       311.84      1.884     4.17      830.942     54.98875     91.13324         7     1.138     0.437  56.02   0
       489    731.0699    223.2242 307.6315257  +6.6006731     648.6323     1016.865     840.1879     77.82803     155.9045     311.9021      1.631     5.30     827.9548     54.98875     86.99139         7     1.110     0.715  40.25   0
       490    154.2875    221.1990 307.8711973  +6.5821613     2149.254     3569.905     3773.318     77.45415     155.5939     311.6848      1.816     3.68      835.822     54.98875     283.8064        20     1.307     0.951  84.98   0
       491    129.0080    220.0710 307.8817363  +6.5817763     994.8814     1617.433     1927.968      77.7036     155.5939       311.84      1.743     5.05     836.7683     54.98875     155.3054        12     1.280     0.706  61.91   0
       492    181.0411    219.6382 307.8601366  +6.5837056      613.699     1110.008     839.6895     77.95225     156.0906       311.84      1.906     4.21     835.4074     54.98875     94.54877         6     0.959     0.527  75.75   0
       493    928.5753    217.3167 307.5496730  +6.6097108     1460.627     2228.754     2083.275     78.07628     155.7803     311.9331      1.677     4.07      826.382     54.98875     209.6602        16     1.247     0.897  61.74   0
       494    590.1435    213.5156 307.6903966  +6.5999642     4601.973     7112.473     6769.799     78.20011     156.0286     312.0572      1.688     3.81      826.663     54.98875     592.0348        29     1.480     1.002  66.76   0
       495    310.4252    214.4411 307.8065653  +6.5901998     1126.925     1630.464     1144.079     77.82803     155.9045     311.7469      1.596     4.99     831.3257     54.98875     126.7776        16     1.275     0.892  68.71   0
       496    552.9185    213.5254 307.7058605  +6.5987131     2140.332     3396.872     3465.735     78.44719     156.2764     312.0262      1.631     3.90     826.3757     54.98875     335.9401        21     1.466     0.841  69.53   0
       497    394.8250    212.6681 307.7715644  +6.5937655      1349.16     2313.179     2072.376     77.82803     155.9045     311.8711      1.709     4.45     828.5552     54.98875     209.6569        15     1.385     0.810  70.71   0
       498    897.1746    210.0826 307.5629605  +6.6116489      10643.1     16939.65     17634.02     78.07628     155.7803     311.9641      1.672     3.66     826.7806     54.98875     1436.351        42     1.559     1.104  66.63   0
       499    951.1852    210.5838 307.5405053  +6.6132448     2545.802     3874.277      4377.41     77.95225     155.7182     311.9021      1.716     4.12     825.8499     54.98875     369.0347        21     1.462     0.828  65.90   0
       500    571.9736    210.2965 307.6980531  +6.6006844     925.0473     1164.769     1255.869     78.32375     155.7803     311.8711      1.481     5.23     826.4042     54.98875     149.9186         8     1.079     0.715  53.53   0
       501    324.5982    209.6086 307.8008406  +6.5926707     874.9617     1872.388     2171.268     77.57897     155.7182     311.7469      2.454     6.79     830.9141     54.98875     149.6998        15     1.733     0.762  85.30   0
       502    216.1285    210.3765 307.8458738  +6.5887087     692.5869     1067.197     686.9517     77.82803     155.9045     311.9331      1.542     5.83     835.0585     54.98875     100.7593         8     1.330     0.720  35.80   0
       503    983.7914    207.9121 307.5270487  +6.6154356      9279.75     14669.95     15607.23     77.82803     155.7182     311.7469      1.677     3.62     825.3619     54.98875     1317.663        36     1.529     1.045  68.33   0
       504    695.3215    208.1738 307.6468820  +6.6056903     2675.137     4498.607     4872.938     78.07628     155.9666     311.9331      1.836     4.27     826.6826     54.98875     346.1094        23     1.521     0.868  74.48   0
       505     23.3303    206.6342 307.9260879  +6.5837649     24113.31     39454.97     42479.13     78.07628     156.0286     312.0262      1.783     3.76      838.769     54.98875     3040.589        65     1.698     1.257  68.05   0
       506    269.6051    207.6443 307.8237515  +6.5916341     1162.267     1585.177       1794.3     77.57897     155.6561     311.6227      1.571     4.83     832.8625     54.98875     168.1497        12     1.182     0.744  61.37   0
       507    503.8754    202.7406 307.7265969  +6.6015215     1880.833     2869.457     2982.516     78.44719     156.0286     311.9331      1.629     4.30     826.1934     54.98875     223.0972        21     1.385     0.980  78.89   0
       508    835.7464    199.2747 307.5888427  +6.6140590     1811.466     2584.145      2913.44     78.07628     156.0286     311.9331      1.590     3.74     826.9655     54.98875     244.1193        17     1.307     0.783  68.97   0
       509    515.8225    199.0173 307.7217590  +6.6034590     2486.926     3923.831     4085.129     77.95225     155.9045     311.9021      1.661     3.64     825.9992     54.98875     344.6432        24     1.402     0.980  77.87   0
       510    887.8549    198.4019 307.5672237  +6.6161597     1935.713     3118.688     3552.835     77.57897     155.7803     311.6538      1.664     4.10     826.3231     54.98875     287.9293        18     1.451     0.766  61.05   0
       511    747.3748    196.0413 307.6256644  +6.6124400      37749.1     59866.62     63522.65     77.82803     155.9045     311.7469      1.696     3.71     826.8522     54.98875     4943.108        68     1.647     1.221  62.21   0
       512    350.3789    195.3352 307.7906119  +6.5994287     5603.025     11600.35     13170.17     77.82803     156.0286       311.84      2.205     6.15     830.1008     54.98875     630.6184        48     2.078     1.214 -86.84   0
       513    980.9107    194.7725 307.5286854  +6.6207639     2626.065     4156.533     3971.745     78.32375     155.7803       311.84      1.689     4.14     824.6389     54.98875     340.0505        22     1.387     0.986  50.18   0
       514    915.2833    193.1362 307.5560051  +6.6192493     7049.385     11084.16     11672.99     78.32375     156.0906     311.9951      1.690     3.74     825.4152     54.98875     897.7095        35     1.562     1.018  65.55   0
       515   1019.4576    193.2197 307.5127230  +6.6226905     1535.672     2482.313     2498.716     77.82803     155.9045     291.3719      1.705     4.62     824.1087     54.98875     199.4894        17     1.335     0.827  66.31  16
       516    458.8236    192.1472 307.7456690  +6.6043839     4815.375     7865.499     8116.108      77.7036     156.0286      311.778      1.717     3.74     826.3021     54.98875     652.4756        31     1.540     1.018  63.37   0
       517    232.9666    189.0526 307.8395985  +6.5980774     643.0634     1035.355     1423.274     78.07628     155.9666      311.871      1.984     4.91     834.4342     54.98875     99.81989         8     1.438     0.475  68.84   0
       518    116.1013    183.4373 307.8883348  +6.5964644     4571.587     7330.856     7795.971     78.20011     155.9045     312.1501      1.709     3.70     836.5186     54.98875     622.0016        29     1.486     1.003  74.89   0
       519    935.5584    183.2672 307.5479124  +6.6240002     879.2731     1491.466     1713.487     78.20011     155.9666     312.0262      1.791     5.08     824.4703     54.98875     112.3149        11     1.277     0.650  56.08   0
       520    286.4219    180.1609 307.8176922  +6.6035445     31593.42      51701.7     55495.02     77.82803     155.8424     311.7469      1.764     3.72     832.3638     54.98875     4088.884        66     1.707     1.219  67.01   0
       521    261.7121    181.2521 307.8279203  +6.6022637     6104.735     9884.899     10497.72     78.20011     155.9045     312.0572      1.767     3.62     833.2628     54.98875     841.5178        36     1.498     1.142  62.56   0
       522    612.7203    180.6189 307.6821231  +6.6143006     595.9309         1309     1633.178     77.82803     155.7182     311.9021      2.348     7.12     825.8284     54.98875     115.6976        11     2.313     0.614  89.17   0
       523    715.7405    179.3737 307.6393660  +6.6182626     935.1411     1397.026     1483.333     77.82803     156.0286      311.809      1.608     5.57     825.9575     54.98875      131.344        10     1.177     0.768 -83.41   0
       524    410.5108    175.6745 307.7662940  +6.6095632      47678.8     76387.38      80727.3     78.20011     156.3383     312.0572      1.750     3.71     826.8865     54.98875     6249.759        79     1.692     1.267  67.32   0
       525    166.4508    177.0011 307.8676365  +6.6008154     3632.333     6131.457     6421.453     77.57897      155.656     311.5296      1.781     3.93     834.7151     54.98875     489.1029        30     1.528     1.055  63.81   0
       526    427.8365    176.1548 307.7590802  +6.6099462     1366.698     2140.422     2422.567     77.95225     156.0286     311.8711      1.673     3.78     826.3581     54.98875     180.7344        16     1.214     0.866  76.20   0
       527    314.4892    173.3604 307.8062617  +6.6072947     17188.33     27715.55     29754.66     78.20011     156.0286     311.9951      1.754     3.72     831.3536     54.98875     2274.564        54     1.667     1.182  69.19   0
       528    581.2805    174.7658 307.6953811  +6.6156638     534.7153     915.7016     1195.674     78.07628     156.0906     311.9951      1.864     5.77     825.4338     54.98875      85.2215         7     1.351     0.694 -88.47   0
       529    749.7771    171.9231 307.6254758  +6.6224767     31288.01     49391.54     52040.77     77.82803     155.9045     311.9021      1.676     3.61     825.7088     54.98875     4421.605        66     1.637     1.210  64.96   0
       530    697.9913    173.8414 307.6469256  +6.6199526     1057.039     1705.016     2401.606     77.57897     155.8424     311.7159      2.067     5.54     825.7119     54.98875     157.1699        11     1.278     0.678  65.99   0
       531    548.1255    173.5826 307.7091947  +6.6150414     488.9972     850.9244     1010.234      77.7036     155.7803     311.8711      1.504     3.81     825.1439     54.98875     101.3961         6     1.222     0.340  49.51   0
       532    322.1010    172.5319 307.8031275  +6.6078924     1649.945     3428.816     4499.165     78.20011     156.1526     311.9331      2.412     8.43     831.0435     54.98875     233.4366        24     2.003     1.009 -75.71   0
       533    798.0173    172.3988 307.6054184  +6.6238931     1111.872     1721.417     1864.353     77.82803     155.5939     311.6848      1.645     4.16     825.5709     54.98875     161.9904        13     1.179     0.754  75.24   0
       534     66.5815    169.1311 307.9093888  +6.6007028     8560.459     14011.99     14724.27     77.82803     155.9045     311.9331      1.747     3.85     837.7293     54.98875     1069.958        39     1.592     1.104  67.99   0
       535     37.5824    171.8790 307.9213422  +6.5985918     611.5849     904.6613     764.3821     77.82803     155.7182     311.9021      1.441     2.37     838.5015     54.98875     110.6274         5     0.701     0.460  70.49   0
       536    573.7938    170.7345 307.6986269  +6.6170772      561.237     845.7803     591.7524      77.7036     155.7803      311.778      1.733     4.91     825.2597     54.98875     86.37793         5     1.097     0.623  66.52   0
       537    100.4281    167.3629 307.8953884  +6.6025723     1337.035      2137.26     1556.212      77.7036     155.7182      311.778      1.665     4.98     836.7831     54.98875     187.6247        16     1.461     0.746  73.21   0
       538   1008.0299    166.0996 307.5183785  +6.6335052     1068.512     1731.094     2401.387     78.20011     155.7803     312.0261      1.676     4.22     822.6098     54.98875     173.7417        13     1.248     0.733  65.92   0
       539    976.3353    166.3643 307.5315375  +6.6323388       655.06      941.294     1234.342     78.07628     155.9666     311.9951      1.560     3.77      823.026     54.98875     106.3193         6     1.008     0.570 -58.68   0
       540    583.7687    156.5731 307.6949590  +6.6232573     811.8684     1351.099     1283.409      77.7036     155.7803      311.778      1.811     2.87     824.8932     54.98875     151.3192         9     0.971     0.628  82.91   0
       541   1009.3315    152.6899 307.5182866  +6.6390845      2203.07     3733.898     4670.687     78.32375     156.2145     311.9641      1.947     4.64     822.1611     54.98875     285.4793        24     1.639     0.887  66.78   0
       542    592.2815    150.1617 307.6916379  +6.6261892     999.9972     1583.823     2030.402     78.20011     156.0906     311.9021      1.798     6.28     824.6931     54.98875     133.6797        15     1.391     0.795  82.25   0
       543    600.4874    148.3645 307.6882891  +6.6272059     1834.997     2767.186     2896.804     78.20011     155.9045     311.9641      1.673     4.43     824.6766     54.98875     226.3583        17     1.288     0.856  74.16   0
       544    285.3824    146.4495 307.8192606  +6.6174258     28900.67     46962.54     50253.32      77.7036     156.0906     311.7469      1.778     3.72     832.5527     54.98875     3689.308        66     1.683     1.250  65.37   0
       545    345.1032    148.1516 307.7943933  +6.6187292     1036.823     1547.663     1307.814     78.07628     155.9666     312.1191      1.665     5.37     830.0955     54.98875     143.6902        13     1.134     0.894  60.29   0
       546     30.5856    144.9193 307.9251600  +6.6094849     4122.546     6492.938     6843.364     77.82803     155.7803      311.778      1.668     4.00     838.5761     54.98875      559.243        26     1.474     1.007  71.57   0
       547    717.0086    143.1234 307.6400562  +6.6332698     7790.309     12445.13     13007.03     77.82803     155.5317      311.778      1.670     3.64     824.4407     54.98875     1068.431        40     1.545     1.137  62.62   0
       548    194.3797    144.2164 307.8571408  +6.6152884     890.3475     1211.742     680.7659     77.95225     155.8424     311.8711      1.497     4.53     834.1154     54.98875     160.7401        12     1.332     0.746  58.17   0
       549    270.8901    141.7612 307.8254392  +6.6188741     750.8899     1227.762     1736.307     78.20011     155.9666     311.9951      2.102     5.96     832.9086     54.98875     93.98383        11     1.122     0.890 -79.71   0
       550    127.7002    140.0418 307.8849818  +6.6147683     4648.499     7817.225     8105.351     78.20011     155.9045     312.1812      1.758     3.73     834.9385     54.98875     611.5048        36     1.524     1.162  71.59   0
       551    589.9597    138.3955 307.6929980  +6.6309686     827.2159     1468.703     1324.895     77.45415     155.7803     311.6848      1.852     6.17     824.2301     54.98875     121.4341        12     1.441     0.742  75.99   0
       552    466.8886    136.9699 307.7441755  +6.6274321       1223.5     2137.016     1924.754     78.32375     155.8424     311.9021      1.813     4.98     824.6328     54.98875     151.1075        17     1.378     0.861 -84.83   0
       553    398.3714    136.2808 307.7726637  +6.6254178     3750.454     6583.238      6569.27     78.07628     155.8424     311.9331      1.849     4.26     827.0092     54.98875     468.0632        32     1.649     1.082  65.43   0
       554    655.7892    136.7006 307.6657059  +6.6338726     899.6298     1459.131     1283.938     77.95225      155.656     311.7469      1.708     5.04     824.2969     54.98875     118.2011        11     1.162     0.857  77.90   0
       555    574.9030    135.9836 307.6993344  +6.6314599     704.4149     1286.767     1350.163     78.07628     155.8424     311.7469      2.035     6.47     824.0544     54.98875     98.43573         9     1.297     0.929 -15.58   0
       556    363.0506    135.0290 307.7873795  +6.6247489     3003.065      4822.01     4716.385     77.82803     156.1526      311.871      1.643     3.67     829.1516     54.98875     377.0208        25     1.379     0.979  61.95   0
       557    117.0818    134.9134 307.8895661  +6.6165279     1662.204       2619.2     2969.605     77.95225     156.2764     312.0572      1.557     3.74     835.0532     54.98875      217.226        17     1.228     0.916  73.05   0
       558    678.7474    132.8965 307.6562955  +6.6362114     906.4626     1381.914     1291.019     78.07628     156.0286     312.2122      1.619     4.61     824.0889     54.98875     184.3683        10     1.189     0.696  78.38   0
       559   1009.5847    128.9937 307.5189746  +6.6488753      1422.88     2227.322     2019.928     77.82803     155.7803      311.809      1.632     4.20      821.748     54.98875     172.9068        15     1.165     0.914  56.85   0
       560    214.7868    123.9446 307.8493472  +6.6243429     5132.409     8445.503     8527.584     77.57897     155.9666     311.7159      1.696     3.77     833.7709     54.98875     703.1293        33     1.514     1.073  66.77   0
       561    676.5527    122.9112 307.6575427  +6.6402601     5971.866     9176.171     9389.879     78.20011     155.9045     312.1192      1.626     3.60     823.6414     54.98875     816.5378        33     1.493     1.034  57.70   0
       562     97.3049    123.6254 307.8981632  +6.6205218     1878.538     3224.002     3580.064     78.32375     155.7803       311.84      1.814     5.06     835.0515     54.98875     241.0833        21     1.497     0.944  68.69   0
       563    824.5377    122.4962 307.5960741  +6.6453801     1052.374     1633.468     1919.181     77.95226     156.0906     312.0262      1.633     5.68     823.0116     54.98875     131.4918        14     1.415     0.681  65.27   0
       564    628.7800    120.1165 307.6774842  +6.6398146     9079.017     14880.34      16153.9     77.82803     155.7182     311.9331      1.742     3.77     823.6239     54.98875     1270.006        43     1.586     1.139  68.49   3
       565    632.2865    111.6036 307.6763135  +6.6434462     50715.54     80376.62     85214.23      77.7036     155.6561     311.7159      1.713     3.69     823.2908     54.98875     6718.014        75     1.658     1.229  67.28   2
       566    263.5528    121.0474 307.8291859  +6.6271783     684.0054     1057.628     1513.585     78.20011     155.9045     311.9641      1.773     5.43      832.946     54.98875     91.29144         8     1.120     0.743  61.50   0
       567    566.6153    119.8362 307.7033204  +6.6378481     577.9926     1039.622      1493.22     77.82803     155.8424      311.778      1.869     5.18     823.4205     54.98875     87.62103         8     1.202     0.630  77.02   0
       568     27.4181    119.1425 307.9273471  +6.6200187     891.8748      1778.38     1966.202      77.7036     155.9666     311.7159      2.075     5.51     838.6126     54.98875      111.569        11     1.351     0.634  72.40   0
       569    355.8633    115.8881 307.7910103  +6.6324091     3421.042     5836.115     6268.824     78.07628     156.2145     311.9951      1.838     4.16     829.5804     54.98875      418.331        29     1.517     1.140 -80.67   0
       570    537.5154    115.0578 307.7155708  +6.6388456     1668.342     2636.496     2539.308     78.20011     156.0286     312.0262      1.666     4.72     823.1973     54.98875     215.7664        17     1.365     0.835  63.98   0
       571   1001.7044    114.6548 307.5227287  +6.6545318     770.4486     1345.861     1274.314     78.07628     155.9666     312.1812      1.732     4.55     821.5439     54.98875     108.1824         7     1.104     0.533  42.12   0
       572    311.3445    105.3687 307.8098599  +6.6352564      3417.84     5563.024     6338.327     78.07628     156.0906     311.9331      1.787     3.73     831.5291     54.98875     447.5001        27     1.460     0.995  64.77   0
       573    716.8293   1021.1761 307.6106731  +6.2707833     1087.976     1979.228     2661.577      77.7036     152.7698     271.2144      2.043     5.52     854.4819     54.98875     133.8234        15     1.302     0.961  41.56  17
       574    711.3967     99.4343 307.6438546  +6.6511176     880.9924     1585.948     1285.209     77.45415     155.8424     311.7159      1.814     4.49     822.4109     54.98875     141.6829        11     1.178     0.808 -83.13   0
       575    682.6535     98.7586 307.6558192  +6.6504348     1126.672     1950.507     2143.938     78.07628     156.0906     312.0262      2.026     3.83     822.5279     54.98875     175.5071        14     1.224     0.764  63.75   0
       576    696.7380     95.6842 307.6500708  +6.6521752     2904.844     4399.161     4479.704     78.32375     156.0906     311.9641      1.660     4.16     822.3555     54.98875     439.5142        25     1.536     0.898  66.20   0
       577    266.0138     96.6124 307.8289875  +6.6373478     409.0927     707.9045     627.4474     78.07628     155.7182     311.9021      1.604     4.18     832.7559     54.98875     75.21295         5     0.786     0.633 -87.76   0
       578    573.8355     95.3761 307.7011432  +6.6481875     527.0195     542.4284     645.3553      77.7036     155.8424     311.7469      1.090     3.60     822.5723     54.98875     90.47308         5     1.022     0.365  86.09   0
       579    438.3544     86.5902 307.7577260  +6.6472721     4090.638      6148.07     5967.482      77.7036     155.9045     311.6538      1.601     3.46     824.6904     54.98875     556.9944        25     1.378     0.954  63.81   0
       580    911.0336     82.0529 307.5614929  +6.6649649     3785.496     6104.171     6394.198     78.07628     155.9666     311.9021      1.698     3.83     820.7254     54.98875     513.6309        27     1.424     1.017  56.36   0
       581    892.9419     82.8468 307.5689831  +6.6640331     2021.503     3033.279     3261.945     78.20011     156.0286     312.0882      1.596     4.46     820.8776     54.98875     270.4562        19     1.356     0.871  67.50   0
       582    591.3811     82.7410 307.6942783  +6.6539911     605.2053         1214     1343.149     77.82803     155.9045      311.778      2.126     4.14     822.3362     54.98875     83.37683         6     0.934     0.523  49.08   0
       583    602.9756     80.7743 307.6895272  +6.6551913     1669.719     2511.786     2419.457      77.7036     155.8424     311.8711      1.597     4.26     822.3199     54.98875     238.6667        16     1.374     0.742  65.20   0
       584    623.0023     79.9758 307.6812336  +6.6561917     515.5473      979.715      983.261     77.82803     155.7182      311.778      1.674     3.55     822.2594     54.98875     92.73529         5     0.976     0.373  58.30   0
       585    248.9011     79.9256 307.8366597  +6.6436609     851.0956      1478.58     2478.235      77.7036     156.1526     311.9331      2.032     4.50     832.5739     54.98875     117.5112         9     0.938     0.840  63.77   0
       586    401.6905     78.4192 307.7732335  +6.6494148     1811.579     2760.031     2646.586     78.07628     155.7803       311.84      1.630     3.42      826.483     54.98875     264.0818        15     1.132     0.874  66.14   0
       587    149.6256     75.2110 307.8780624  +6.6422682     3209.066     5094.586     5481.566     77.82803     155.8424       311.84      1.708     4.05     832.8436     54.98875     453.1495        26     1.620     0.928  67.89   0
       588     31.5992     73.1756 307.9271640  +6.6391344     11802.36     19286.85     21107.16     77.82803     155.7182     311.7469      1.767     3.65      836.347     54.98875     1503.984        49     1.672     1.177  65.64   0
       589    298.2190     73.4617 307.8163885  +6.6479867     1312.433     2347.332     3145.654     77.82803     155.9666       311.84      2.169     5.63      831.647     54.98875      184.418        17     1.390     1.157  43.46   0
       590    766.5690     72.1747 307.6218469  +6.6642160     555.0927     1039.173     1666.934      77.7036     155.9045      311.809      3.350     4.40     821.5837     54.98875     99.52356         6     1.131     0.488  85.36   2
       591    570.8604     72.7036 307.7031416  +6.6574472     559.5801     682.1402     522.8937     77.95225     156.0286     312.0572      1.295     4.28     822.0319     54.98875     82.78839         6     0.788     0.661 -54.47   0
       592    558.5661     72.7684 307.7082473  +6.6570085     718.0634     1049.211     938.7949      77.7036     155.7803     311.7159      1.347     3.48      822.007     54.98875     112.6853         5     0.760     0.460  72.36   0
       593    833.3489     67.7201 307.5942502  +6.6682871     6007.524     9320.362     10188.43     78.20011     156.0906     311.9641      1.679     3.69      820.974     54.98875     777.7408        34     1.571     1.010  67.18   0
       594    778.4269     68.0972 307.6170569  +6.6662958      3210.13     4899.251     5015.388     78.32375     155.7803     311.9021      1.620     3.62     821.4417     54.98875     418.9146        22     1.403     0.869  66.80   0
       595    423.6722     68.6404 307.7644303  +6.6541893     1121.049     1660.435     1408.428     78.07628     156.0286     312.0262      1.637     4.95      825.109     54.98875     130.7985        16     1.313     0.931  60.66   0
       596    900.1937     69.0272 307.5664332  +6.6699802     688.2647     1082.994     879.5359      77.7036     155.8424      311.778      1.414     3.90     820.3405     54.98875     95.64178         6     0.963     0.453  50.88   0
       597     71.7738     65.0543 307.9107484  +6.6438401     3206.021     5144.193     5536.363     77.82803     156.1526      311.809      1.694     3.94     834.3664     54.98875     414.6588        28     1.512     1.096  72.00   0
       598    540.8888     66.2616 307.7158106  +6.6591022     1142.239     1882.046     2372.725     78.20011     156.1526     312.0262      1.807     4.23     821.8666     54.98875     156.8308        11     1.162     0.634  66.28   0
       599     56.1218     65.6589 307.9172304  +6.6430633     895.7978     1421.678     1344.923     78.32375     156.0286     311.9021      1.762     5.07     834.9662     54.98875     130.9615         9     1.267     0.677  71.27   0
       600    660.4029     64.6590 307.6662092  +6.6637668     533.2108     919.6082     1410.553     77.57897     155.8424     311.7159      2.166     4.08     821.7596     54.98875     99.35925         7     1.004     0.475  82.05   0
       601    432.9131     64.2517 307.7607388  +6.6563111     1025.761     1579.889     1461.652     78.20011     155.9045     312.0262      1.591     5.57     824.6508     54.98875      134.191        15     1.371     0.777  45.22   0
       602    595.5967     61.9845 307.6932246  +6.6627009      1252.62     1853.321     1760.364     77.82803     155.6561      311.809      1.576     3.42     821.7887     54.98875     177.4443        14     1.088     0.857  78.55   0
       603     14.1770     60.5190 307.9348296  +6.6437719     2506.874     4038.182     4834.021     77.82803     155.7182     311.9021      1.768     3.61     835.9749     54.98875     329.8871        24     1.353     0.992  67.63   0
       604     86.4903     56.1029 307.9049370  +6.6480307     797.8115     1313.786     1204.861     78.20011     156.4621     311.9641      1.623     5.12     833.7029     54.98875     112.7579         7     1.171     0.632  43.87   0
       605    773.0676     55.5554 307.6197045  +6.6712940     1899.938     2976.109     2915.346     78.20011     155.9666     311.9951      1.618     3.99     821.2027     54.98875     242.1931        16     1.262     0.874  62.68   0
       606    413.6972     55.5096 307.7690167  +6.6592750      1016.56     1607.052     1547.513     78.20011     156.4621     311.9641      1.690     5.49     825.6475     54.98875     127.2114        12     1.111     0.764  58.95   0
       607    110.8578     54.6866 307.8948615  +6.6494358     836.5125     1085.541     1345.444     78.20011     156.0286     312.1192      1.491     5.06     833.1528     54.98875      131.401         8     1.024     0.707  65.46   0
       608     99.6388     49.2729 307.8997053  +6.6512928     8887.237     14407.92     15286.26     78.07628     155.9666     312.0262      1.748     3.76     833.3036     54.98875     1186.269        41     1.604     1.125  68.01   0
       609    428.7979     49.1641 307.7629566  +6.6624012      2360.59     3738.909     4257.742     77.32912     155.8424      311.778      1.707     3.89     824.7399     54.98875     342.0065        21     1.447     0.881  67.73   0
       610    250.3916     48.6343 307.8370960  +6.6566281     606.7189     1139.453      1610.72      77.7036     155.8424      311.778      2.527     4.81      831.813     54.98875     77.96136         8     0.948     0.692   2.38   0
       611    266.1914     43.3659 307.8307095  +6.6593340     1367.495     2306.617     4008.492      77.7036     155.8424      311.809      2.565     4.53     831.5042     54.98875     173.8898        17     1.362     0.842  68.74   0
       612    642.4005     41.3327 307.6744726  +6.6727935     17558.32     27859.36     29340.28     77.45415     155.5317     311.7159      1.717     3.68     821.1832     54.98875     2426.257        52     1.598     1.172  67.08   0
       613    542.1581     37.3882 307.7162543  +6.6710639     4947.134     7892.548     7949.087     77.57897     155.8424     311.6848      1.668     3.61     821.2294     54.98875     630.1868        29     1.470     1.000  65.40   0
       614    260.3969     37.7455 307.8333065  +6.6614593     1867.333     3237.289     5111.407     77.57897     155.8424     311.6227      2.151     4.04     831.4479     54.98875     224.6351        20     1.310     0.973  59.74   1
       615    447.7600     33.0331 307.7556214  +6.6696964     21699.17     34808.27     37143.73     77.95225     155.8424      311.809      1.711     3.58     823.3585     54.98875     2970.943        58     1.641     1.195  64.57   0
       616    268.3250     33.4350 307.8301581  +6.6635051     9018.503     14501.51     16353.72     78.07628     156.0906     311.9331      1.759     3.75     831.2531     54.98875      1127.88        43     1.609     1.152  68.36   0
       617    628.7275     31.8580 307.6804720  +6.6762470     3094.202     5409.093     6600.848     78.32375     156.0286     311.9331      2.100     5.50     820.9496     54.98875     449.7306        32     2.163     0.859  71.45   0
       618      9.6821     35.4989 307.9375429  +6.6539485     1067.583     1651.258     1359.186     78.20011     156.4621     312.0572      1.546     4.36     833.5229     54.98875     161.4302        13     1.184     0.793  57.63   0
       619    925.6963     33.0531 307.5570426  +6.6856824     1884.554     2915.759     2997.586     78.07628     156.0286     312.2122      1.612     3.69     818.6749     54.98875     281.2147        18     1.272     0.955  67.28   0
       620    561.1634     33.1735 307.7084997  +6.6734407     542.5188     832.9785     1105.033     77.82803     155.8424      311.778      1.824     5.04     821.1008     54.98875     89.50397         7     1.214     0.592  81.86   0
       621    328.1981     33.6748 307.8052746  +6.6654179     898.3059     1498.557     1395.324      77.7036     155.4694       311.84      1.704     4.47     830.5756     54.98875      174.437        12     1.391     0.718  35.72   0
       622     33.7236     32.8906 307.9276432  +6.6558353     2205.283     3571.524     3913.991     78.20011     156.2764     311.9951      1.761     3.85     833.2961     54.98875     297.8123        20     1.409     0.883  64.18   0
       623    532.9837     32.4565 307.7202321  +6.6727923     552.7122     774.3802     693.9164     77.57897     155.9666     311.7159      1.574     4.41     821.1205     54.98875     101.8778         5     1.017     0.544  74.46   0
       624    256.2794     29.9879 307.8352788  +6.6645232     2733.153     4375.213     5120.789     77.82803     155.7182      311.809      1.734     3.83     831.2974     54.98875     341.6007        22     1.428     0.886  67.97   0
       625    309.1894     28.1023 307.8133600  +6.6670797     924.6984     1560.583     2056.326     77.95225      155.656      311.809      1.884     5.10     830.7418     54.98875     123.1597         9     1.081     0.712  84.79   0
       626    946.4165     23.1046 307.5487665  +6.6904809     1076.756     1460.519     1604.931     78.07628     155.8424      311.809      1.628     5.70     817.8191     54.98875     149.3599        15     1.356     0.785  63.81   0
       627    697.5668     22.5969 307.6521810  +6.6823744     1745.873     2743.431     2723.451     77.45415     155.8424     311.7159      1.686     4.22     820.7582     54.98875     237.5735        17     1.271     0.900  59.70   0
       628    102.6291     23.3226 307.8993396  +6.6621056     634.9583     852.9058     476.7736     78.07628     156.0906     311.9951      1.545     3.95       832.97     54.98875     91.69049         6     0.875     0.511  42.81   0
       629    208.8182     18.5984 307.8553816  +6.6676290     715.2174     1200.535     624.0133     77.82803     155.5939     311.6848      1.686     5.47     831.3136     54.98875     118.3156        10     1.217     0.786  36.13   0
       630    263.1726     17.6620 307.8328307  +6.6698430     793.8247     1234.239     1787.375     77.82803     156.0906     311.9021      2.135     3.58     830.9508     54.98875     145.9311         8     1.150     0.581  65.11   0
       631    756.5767   1017.8301 307.5942836  +6.2734931     1175.053     1981.865     2479.248      77.7036     155.9045     305.5396      2.007     5.16     853.7527     54.98875     160.6439        20     1.513     0.931  62.20  24
       632    963.8996   1011.8364 307.5084095  +6.2828888     5389.637     9957.959      9915.49     78.20011     155.9045     312.1501      1.952     4.29     849.0288     54.98875     600.9391        42     1.760     1.227  58.26   0
       633    718.2687   1012.2606 307.6103744  +6.2745120     784.1779     1609.835     2641.426     78.32375     155.9666     311.9641      2.849     5.28     854.2574     54.98875     108.1003        10     1.347     0.585 -88.05   0
       634    248.3146   1011.4831 307.8055041  +6.2590859     1120.732     1684.923     1562.715     77.95225     156.2145     312.0572      1.766     5.65     854.8419     54.98875     138.3385        18     1.516     0.852  75.88   0
       635    446.6424   1011.2098 307.7231782  +6.2658530     910.1255     1209.975     913.4189     77.57897     155.8424     311.7159      1.530     3.99     855.8298     54.98875     127.6662        11     1.020     0.806  28.72   0
       636    739.5759   1009.3913 307.6016246  +6.2764087     834.5581     1637.254     1256.515     77.82803     155.8424      311.809      1.703     5.14     853.9427     54.98875     131.1627         9     1.254     0.689  84.63   0
       637    723.7712   1009.8577 307.6081706  +6.2756879     2464.776     4422.918     5230.805     77.82803     156.0906     311.8711      1.936     4.42     854.1552     54.98875     295.5927        25     1.427     1.097  67.98   0
       638    370.1670   1007.1551 307.7550634  +6.2649625     1571.926     2745.402     2820.406     77.82803     156.0286       311.84      1.838     4.10     855.7374     54.98875     245.8979        20     1.374     1.002  43.73   0
       639    980.7727   1004.8655 307.5016372  +6.2863293     623.0303     994.6194     739.4539     77.82803     156.0286     311.8711      1.620     4.98     848.4058     54.98875      94.0155         6     1.404     0.500  41.52   0
       640    757.0148    996.9194 307.5948024  +6.2821403     6964.026     11700.92     12245.66     77.82803     155.7803      311.809      1.778     3.78     853.2619     54.98875     846.1184        43     1.616     1.201  60.99   0
       641    552.5004    997.3795 307.6796950  +6.2751090     3839.431     6292.839     7353.674     78.20011     155.9045     311.7469      1.822     3.90     855.9033     54.98875     486.4125        30     1.494     1.110  71.54   3
