#   1 NUMBER                 Running object number                                     
#   2 X_IMAGE                Object position along x                                    [pixel]
#   3 Y_IMAGE                Object position along y                                    [pixel]
#   4 ALPHA_J2000            Right ascension of barycenter (J2000)                      [deg]
#   5 DELTA_J2000            Declination of barycenter (J2000)                          [deg]
#   6 FLUX_APER              Flux vector within fixed circular aperture(s)              [count]
#   9 FLUXERR_APER           RMS error vector for aperture flux(es)                     [count]
#  12 FLUX_RADIUS            Fraction-of-light radii                                    [pixel]
#  13 FWHM_IMAGE             FWHM assuming a gaussian core                              [pixel]
#  14 BACKGROUND             Background at centroid position                            [count]
#  15 THRESHOLD              Detection threshold above background                       [count]
#  16 FLUX_MAX               Peak flux above background                                 [count]
#  17 ISOAREA_IMAGE          Isophotal area above Analysis threshold                    [pixel**2]
#  18 A_IMAGE                Profile RMS along major axis                               [pixel]
#  19 B_IMAGE                Profile RMS along minor axis                               [pixel]
#  20 THETA_IMAGE            Position angle (CCW/x)                                     [deg]
#  21 FLAGS                  Extraction flags                                          
         1    159.0848     17.0097 307.8649373  +6.6672981     3287.586     7623.882     9651.696     93.62083     187.3164     375.0811      2.483    10.32     1261.485     66.14703     349.7131        40     2.447     1.214   3.58   3
         2    160.0185     13.4890 307.8646649  +6.6687854     3045.992     7031.142     9286.729     93.77026     187.3912     375.1557      2.572     8.24     1261.399     66.14703     297.3855        38     2.446     1.117  18.43  19
         3    503.5347     14.7302 307.7217565  +6.6797835     873.0558      2585.38     4475.016     94.06843     187.7644     375.2677      3.722     7.68     1234.823     66.14703      130.212        12     1.611     1.024  48.84   2
         4    905.0217     12.5235 307.5548424  +6.6940981     1806.489      4979.03      6459.56     93.62083     187.5405      375.193      2.802     8.96     1223.306     66.14703     224.4508        36     1.867     1.559  16.24   0
         5    969.3384      9.3221 307.5281956  +6.6975638     995.3069     2426.809     3030.356     94.36564     187.7644     375.2677      2.711     7.17     1217.834     66.14703     113.5262        10     1.419     1.015  33.31  18
         6    688.8678      5.4187 307.6449787  +6.6898280     2494.317     7695.977      10116.5     93.62083     187.6152     349.0959      2.991     8.08     1228.018     66.14703     293.5907        54     2.094     1.942 -70.17  18
         7    608.7308      5.2039 307.6783163  +6.6872402     1291.682     3650.595     4689.158     93.32124     187.2417     346.1961      2.935     9.56     1230.826     66.14703     146.0406        30     2.078     1.444 -83.45  18
         8    409.1004      3.1063 307.7614139  +6.6814302      1876.74      4065.03     5236.853     94.06843     176.7797     314.6263      2.505     8.30     1246.722     66.14703     229.2822        31     1.968     1.264   8.70  26
         9      9.8730      2.5905 307.9274667  +6.6682480     2523.021     4837.031     5512.384     93.47116     169.2537     305.7796      2.048     7.00      1264.94     66.14703     263.2979        23     1.800     1.019  32.14  27
        10     13.4706      1.6018 307.9260031  +6.6687779     1989.883     2958.827     3523.156     85.65466     153.7346     287.5624      1.671     5.90     1264.733     66.14703     286.4194        15     1.153     1.101  -8.77  27
        11    791.6180    995.5074 307.5698915  +6.2837820     673.5068     1524.815     1301.405     93.91946     187.3912     375.1184      1.874     3.40     1292.527     66.14703     96.63586         5     1.063     0.314 -68.59   0
        12    698.1216   1020.8752 307.6079190  +6.2701729     4016.402      9877.17     12577.52     94.36564     186.3422      331.063      2.800     7.80     1293.443     66.14703     433.9882        62     2.608     1.563   9.73  24
        13    565.3169   1023.0284 307.6630396  +6.2648492     29169.26     50655.26     57534.45     89.95996     160.1578     294.4427      1.931     7.47     1293.994     66.14703     4501.383        55     2.297     0.993   9.50  27
        14    555.1469   1019.9833 307.6673656  +6.2657689     2241.684     5721.682     7229.615     93.47116     187.7644      343.598      2.616     8.08     1294.057     66.14703     256.0032        47     2.197     1.599  32.69  19
        15    413.6935   1021.1428 307.7261118  +6.2605606     2172.211       5191.9     6140.764     93.91946     184.2263      327.149      2.531     6.69     1293.766     66.14703      241.625        35     1.890     1.353  37.31  24
        16    195.8639   1023.0949 307.8165692  +6.2524586     1045.856     1805.319      2119.44     89.49182     159.2812     293.4424      1.864     5.99     1294.021     66.14703     156.9623        14     1.656     0.610  19.43  24
        17    892.4953    988.9160 307.5281820  +6.2898686     5334.271     11890.61     13279.92     93.91946     188.1368     375.3796      2.313     5.37     1291.045     66.14703     663.4387        47     1.950     1.460  24.26   0
        18    866.1013    985.0525 307.5392775  +6.2905875     7499.852     16880.01     19968.61     93.91946     187.6898     375.5287      2.439     5.34     1290.745     66.14703     868.4697        64     2.120     1.597  20.20   0
        19    510.7556    984.4629 307.6869765  +6.2789758     2100.037     5647.623     6900.115     94.06843     187.6152      375.305      2.747     7.44     1293.408     66.14703     238.3717        45     2.031     1.649  -5.15   0
        20    988.0181    984.4766 307.4886270  +6.2948837     3379.646     6725.808     8033.459     93.47116     187.3912     375.2303      2.191     4.71     1287.285     66.14703     398.3536        37     1.713     1.284  36.54   0
        21    464.6027    980.2620 307.7062946  +6.2791702     1094.111     2090.099     2726.722     93.32124     187.5405     374.9317      2.313     6.83     1293.441     66.14703     154.4287        13     1.759     0.744  45.59   2
        22    897.9002    972.6080 307.5264676  +6.2967932     27079.64     59387.21     69209.74     93.77027     187.2417     375.0811      2.368     5.14     1289.568     66.14703     3325.843        92     2.157     1.684  26.11   0
        23    796.5737    966.7918 307.5687694  +6.2958233     1308.789     2617.243     3060.643     93.62083     187.4659     375.0811      2.173     5.78     1291.321     66.14703     157.5059        19     1.432     1.119 -28.43   0
        24    744.0715    964.4815 307.5906650  +6.2950285     3547.055     8570.154     10598.94     94.36564     188.0624      375.305      2.595     6.46     1290.668     66.14703     432.7645        56     2.094     1.741  29.54   0
        25    215.0511    963.7720 307.8105441  +6.2776354     530.7798     1196.001     1170.808     93.62083     187.8389     375.1557      2.373     6.28     1293.656     66.14703     104.9098         8     1.854     0.598  35.58   0
        26     39.2908    962.3620 307.8836308  +6.2723221     1337.751     3657.822     4420.489     94.21715     187.6152      375.305      2.604     9.17     1291.329     66.14703       178.24        24     1.877     1.250  44.35   0
        27    932.2615    959.3984 307.5126174  +6.3034003     4246.444     9355.363     10404.31     93.32124     187.4659     374.9317      2.368     5.37     1287.859     66.14703     514.4948        50     1.938     1.527   8.79   0
        28    906.3542    951.2614 307.5236502  +6.3059032     1338.938     2707.817     2743.013     93.91946     187.5405     375.3423      2.164     5.47     1287.449     66.14703     195.5436        18     1.422     1.200   9.70   0
        29    627.1927    947.3466 307.6398005  +6.2982154     2234.945     5578.074     6263.162     93.47116     187.4659     374.8944      2.541     6.48     1290.786     66.14703     289.7379        36     1.744     1.519  68.21   0
        30    239.5372    947.9734 307.8008870  +6.2849897     1819.757     5333.938     6622.301     93.62083     187.6152      375.193      2.741     7.89      1293.81     66.14703     270.2468        44     2.034     1.657  15.63   0
        31    765.7478    946.8264 307.5822329  +6.3030530     631.2734     1455.382     1327.582     93.62083     187.8389     375.1557      2.319     6.19     1290.269     66.14703     111.2263         8     1.495     0.721  27.76   0
        32     10.2859    945.6951 307.8962327  +6.2782407     797.6709     1855.711     3293.619     94.06843     188.1368     375.3423      2.924     3.36     1290.924     66.14703     162.1012         6     0.908     0.517  31.14   2
        33    552.3425    939.4758 307.6711660  +6.2989707     881.0696     2211.028     2794.698     94.21716     187.6898      375.193      2.595     8.33     1291.815     66.14703     126.7307        15     1.726     1.124  19.68   0
        34    983.3376    938.7760 307.4920614  +6.3136289     728.2672     1327.048     1778.462     93.62083     187.6898     375.1557      2.390     4.57     1284.553     66.14703     93.08521         5     1.179     0.504  32.30   0
        35    270.6751    933.2451 307.7884301  +6.2921241     775.5109     1785.676     1809.984     93.91946     187.7644      375.305      2.775     7.35     1293.798     66.14703     110.1903        12     1.998     0.757  39.72   0
        36    874.8821    926.3869 307.5375420  +6.3151428     4041.012     9017.369     10214.57     93.62083     187.3912     375.0811      2.376     5.70     1285.817     66.14703     454.3027        48     1.966     1.486  24.59   0
        37    413.3206    923.3120 307.7294732  +6.3010078     675.9791     1385.235     2310.958     93.77027     187.9879     375.4169      2.410     3.71     1292.619     66.14703      107.412         5     0.832     0.475 -80.27   3
        38    410.2734    922.5502 307.7307646  +6.3012208     958.0361     1991.333     2639.762     94.06843     187.7644      375.305      2.578     6.16     1292.641     66.14703     155.8881         9     1.455     0.733 -78.91   2
        39    312.7738    922.3096 307.7712931  +6.2980568     4171.932      11717.3     14802.02     94.21715     187.3912     375.0811      2.798     7.18     1293.471     66.14703     473.5643        68     2.254     1.853  27.03   0
        40    232.9851    921.3931 307.8044828  +6.2957627     2953.053     8186.572     10741.41     93.62083     187.3912     375.0811      2.854     7.08     1293.578     66.14703      321.022        59     2.324     1.683  28.00   0
        41    958.8572    900.4114 307.5034866  +6.3286812      828.602     1761.529     2638.396     93.32124     187.6152     374.9317      2.393     6.70     1282.709     66.14703     114.0178        13     1.299     0.968  -0.96   0
        42    510.6230    898.5868 307.6898437  +6.3144871     531.1347     1164.375     1913.988     93.77027     187.4659     375.1557      2.770     6.69     1290.838     66.14703     92.60815         7     1.400     0.896  78.80   0
        43    645.5455    898.0872 307.6337838  +6.3192004      1148.47     3152.601     4279.537     94.06843     187.5405     375.4542      2.871     7.14     1288.191     66.14703     174.7649        22     1.609     1.338  -1.80   0
        44     45.4255    895.0294 307.8832968  +6.3003738     762.3661     1630.736     3160.659     93.47116     187.4659     375.1184      2.559     5.73     1289.799     66.14703     163.3442         9     1.582     0.585 -54.60   3
        45     42.0296    893.0775 307.8847723  +6.3010670     1249.588     2619.672     4006.735     93.91946     187.7644      375.305      2.901     8.83     1289.717     66.14703      171.053        18     1.682     1.340 -85.01   2
        46    185.7724    893.3282 307.8250259  +6.3057866     881.5476     2089.805     3122.949     93.77027     187.6152     375.1557      2.919     7.24     1291.658     66.14703     138.1565        10     1.314     1.118 -33.29   0
        47     61.9632    893.7016 307.8764676  +6.3014782     752.2579     1199.055     1210.931     94.06843     187.5405     375.4915      2.314     4.02     1289.935     66.14703     123.4106         6     0.776     0.596  28.37   2
        48     59.3385    892.3088 307.8776042  +6.3019661     746.0935     1497.511     1886.644     94.06843     187.8389     375.3796      2.280     3.77      1289.86     66.14703     103.7159         5     0.879     0.465 -78.92   3
        49    640.4318    887.2048 307.6362650  +6.3235304     3345.486     8593.384     11069.01     93.32124     187.5405     375.0064      2.819     7.00     1287.824     66.14703     394.3838        59     2.248     1.720  36.59   0
        50    878.1794    883.2982 307.5375773  +6.3330732     1464.641      3790.33     3500.214     93.91946     187.4659     374.9691      2.346     8.79     1283.845     66.14703     181.8628        30     1.835     1.431  45.20   0
        51    323.4326    880.6852 307.7682291  +6.3156281     6653.393      19071.2     25815.18     94.06843     187.4659     375.2303      2.981     7.23     1292.919     66.14703     737.1494        79     2.410     1.915  26.79   0
        52     60.7621    881.7579 307.8773597  +6.3063772      666.075     1053.442     1457.636     93.77027     187.6898     375.1184      1.545     3.85     1289.658     66.14703     103.1882         5     0.976     0.436  45.08   0
        53    193.9803    879.3344 307.8220745  +6.3118491     643.4164     1374.044     1021.207     93.62083     187.6898     375.1184      2.063     4.79     1291.489     66.14703     99.49402         5     1.039     0.626  89.45   0
        54     88.3007    871.4813 307.8662529  +6.3115516     852.8939     1771.801     2530.086     94.06843     188.2113     375.3796      2.400     6.80     1289.839     66.14703     133.7299        11     1.628     0.797 -11.78   0
        55    868.6348    864.6781 307.5421520  +6.3404562     1077.088      2706.03     2632.684     93.91946     187.7644      375.305      2.663     9.26     1283.169     66.14703     141.8634        18     1.961     1.220  48.26   0
        56    839.1622    864.6777 307.5544020  +6.3394745     1210.366     2550.982     3051.274     93.91946     187.7644     375.2677      2.285     7.36     1283.995     66.14703     146.0093        18     1.247     1.218 -41.74   0
        57    802.4045    864.1731 307.5696965  +6.3384584     1703.941     4022.361     4663.974     93.47116     187.4659     375.0811      2.464     8.64     1285.014     66.14703     173.8856        29     1.918     1.214  25.25   0
        58     72.1168    864.5660 307.8732063  +6.3138682     1130.666      2481.33     3336.137     94.06843     187.6898     375.2303      2.969     7.89     1289.471     66.14703     149.5931        15     1.529     1.138 -30.95   2
        59    538.3737    855.6634 307.6797154  +6.3331664     136617.4       390977       510018     93.62083     187.6898      375.193      2.885     6.88     1288.366     66.14703     15266.26       199     2.556     2.137  26.19   0
        60    382.6848    858.3676 307.7443350  +6.3268415     3059.549     8916.256     12027.06     94.06843     187.4659      375.193      2.956     7.30     1291.488     66.14703     361.5309        64     2.249     1.908  23.95   0
        61    326.1068    857.0126 307.7678943  +6.3255078       4869.4     14887.28     19311.79     93.77027     187.3912     375.0437      2.911     7.20     1292.417     66.14703     602.8693        75     2.271     1.966  31.18   0
        62    644.6393    852.9993 307.6356350  +6.3378174     1574.181     4086.976     4846.271     93.02069     187.3912     374.9317      2.651     8.43     1286.066     66.14703     191.3854        29     1.750     1.565 -17.52   0
        63    876.3752    851.4153 307.5393674  +6.3461992     2825.287     6577.747     8166.182     93.77027     187.4659      375.193      2.524     6.95     1282.144     66.14703     301.0223        49     2.233     1.549   6.29   0
        64    618.4766    848.6256 307.6466522  +6.3387527     1166.047     2144.354     3583.782     93.62083     187.6898     375.2303      2.981     5.80     1285.992     66.14703     179.2639        12     1.316     0.853  42.11   3
        65    619.9122    845.9012 307.6461446  +6.3399274     1368.485     2942.074     4342.354     94.06843     188.2113      375.305      3.393     6.56     1285.799     66.14703     179.9213        15     1.798     0.671  24.81   3
        66   1010.0693    845.5712 307.4839878  +6.3530658     2638.397     6194.036     7505.341     93.77026     187.6898      375.193      2.575     6.38     1277.293     66.14703     292.9773        44     2.000     1.504  21.53   0
        67    806.8066    845.4872 307.5684769  +6.3463331     691.2481     1480.805     1600.343     93.47116     187.3164     374.9691      1.797     5.57     1283.411     66.14703     140.3542         6     1.423     0.614 -62.05   0
        68    610.8200    843.2953 307.6500090  +6.3407015     905.6475     2539.982     4627.952     93.91946     187.4659     375.0437      4.373     9.93      1285.69     66.14703     111.9299        17     2.356     1.168  27.91   3
        69    895.6646    839.2527 307.5317466  +6.3518717     1653.982     3827.104     4461.875     94.06843     187.6152     375.2303      2.418     7.51     1280.969     66.14703     208.6234        29     1.942     1.423  36.48   0
        70    352.2206    837.4483 307.7576827  +6.3344732     852.0451     2508.372     4195.692     93.47116     187.6898     375.0437      3.692     7.58     1291.243     66.14703     171.4153        10     1.427     1.126 -49.46   2
        71    489.0000    827.0150 307.7011749  +6.3433642     1080.567     2107.583     3166.426     93.47116     187.2417     374.9317      2.658     5.78     1288.625     66.14703     136.0714        13     1.101     1.067 -59.82   2
        72    491.8571    824.7217 307.7000626  +6.3444081     1100.067     2123.284     3348.157     94.06843     187.6898     375.2303      2.221     5.75     1288.431     66.14703     169.0211        12     1.697     0.548  31.62   2
        73    537.3950    821.5283 307.6812398  +6.3472510     2186.137      6602.71     9808.456     93.62083     187.1669     375.1557      3.248     8.43     1286.822     66.14703     292.0099        60     2.397     1.919  33.87   0
        74    507.4501    815.4214 307.6938861  +6.3487758     7495.297     22508.22      29473.2     93.47116     187.7644     375.1184      2.954     7.42     1287.466     66.14703     876.6499        91     2.439     2.018  28.57   0
        75    870.6238    819.2358 307.5428080  +6.3593164    -33.07454     635.6531     1261.243     93.62083     187.4659     375.0064      2.823     3.56     1280.139     66.14703     128.1249         5     0.790     0.463 -77.10   0
        76    921.0141    813.4434 307.5220517  +6.3633899     2022.156     4872.057      5495.53     93.32124     187.4659     374.9691      2.406     7.06     1278.542     66.14703      218.807        34     1.727     1.548  12.60   0
        77    300.3754    804.3738 307.7803164  +6.3464155     1205.096     3798.691     4368.548     93.47116     187.4659     375.1557      2.813     8.39     1291.092     66.14703      172.072        34     1.996     1.693   4.18   0
        78     19.9005    805.9861 307.8968353  +6.3363409     545.6292      1316.06     1408.337     93.91946     187.3912     374.9317      2.277     4.82     1288.575     66.14703     98.39966         5     1.495     0.440  20.27   0
        79    765.5169    799.7210 307.5871338  +6.3638846     24449.75     66017.23     82630.83     94.21715     187.9879     375.4169      2.768     6.41     1280.314     66.14703     2787.746       106     2.337     1.979  23.24   0
        80      2.1461    802.3864 307.9043327  +6.3372331     880.2748     1278.686      959.097     91.19658     162.7593     297.7057      1.477     5.53     1288.546     66.14703     144.4055         9     1.176     0.734  34.31  24
        81    222.6393    800.3904 307.8127568  +6.3454581     1555.005       2891.7     4972.689     93.32124     187.4659     374.9691      3.147     7.10     1290.166     66.14703     178.2065        20     1.834     0.937  22.51   3
        82    223.6363    796.8026 307.8124602  +6.3469753     2204.114     5483.711     9250.395     93.02069     187.4659     375.0437      4.270     8.05     1289.949     66.14703     257.0693        43     2.550     1.245  31.17   3
        83    688.7026    791.5845 307.6193284  +6.3646875     32861.34     102615.5     157043.4     94.06843     187.3912     375.0064      3.340     8.79     1281.211     66.14703     4131.568       188     3.754     2.076  28.09   0
        84    890.9048    794.8425 307.5351739  +6.3700804     4387.034      10848.5     13493.08     94.06843     187.6152     375.4169      2.562     6.54      1278.19     66.14703     534.7571        56     2.033     1.713  26.52   3
        85    887.9636    786.5328 307.5366676  +6.3734191     3313.247     8155.526     10597.38     93.91946     187.6898     375.3423      2.761     6.13     1277.949     66.14703     376.6421        53     2.004     1.726  29.41   3
        86    332.4829    792.1310 307.7673731  +6.3525540      7469.03     23397.82     31591.91     94.36564     187.9879      375.305      3.026     7.89     1289.397     66.14703      826.822        93     2.469     2.084  28.04   0
        87    394.4158    789.8893 307.7417048  +6.3555544     7972.813     24747.39     33491.69     93.77027     187.3912     375.0811      3.054     7.56      1287.99     66.14703     951.2297        94     2.478     2.064  25.92   0
        88    222.4484    776.6384 307.8136163  +6.3552746       704362      2414267      3399264     93.91946     187.7644     375.0811      3.189     9.22     1288.468     66.14703      63836.8       550     2.901     2.456  35.35   4
        89    416.6299    782.6828 307.7327079  +6.3592781      769.276     1425.749     1391.539     93.91946     187.4659      375.193      2.166     4.19     1287.022     66.14703     132.8553         5     0.985     0.643  25.35   0
        90    664.1716    778.7542 307.6299445  +6.3691752     502.8996     1095.611     2185.362     93.47116     187.7644     375.1557      2.931     6.16      1280.77     66.14703      95.3551         8     1.819     0.586  50.37   3
        91    664.6152    774.7463 307.6298911  +6.3708475     886.8873      2272.39     2920.774     93.32124     187.6898     374.9317      2.783     6.39     1280.453     66.14703     134.9135        13     1.853     0.619  12.99   2
        92    397.3038    772.5443 307.7410732  +6.3628244     18945.71     59387.32     81203.59     93.91946     187.6152     375.4915      3.058     7.68       1286.5     66.14703     2243.589       123     2.574     2.174  24.29   0
        93    513.4974    773.0164 307.6927614  +6.3665154     1926.366     3784.841     4815.363     94.06843     187.4659     375.0064      2.031     7.01     1284.401     66.14703     223.9131        18     1.652     0.834  41.05   3
        94    516.1177    770.5977 307.6917515  +6.3676032     2532.702     5812.931     7803.934     93.32124     187.2417     374.9317      2.534     8.56     1284.184     66.14703     283.3018        38     2.287     1.252  31.30   3
        95    432.0707    769.8393 307.7267109  +6.3651064     1683.561     5298.484     8493.069     93.91946     187.6898     375.3423      3.495    11.54     1285.688     66.14703     213.6075        56     2.656     1.796  40.45   2
        96    760.0941    767.8815 307.5904281  +6.3768719     4875.922     13659.71     16791.65     93.77027     187.9879     375.3796      2.748     6.84     1278.527     66.14703     551.1079        70     2.211     1.911  29.91   0
        97    127.1691    760.5421 307.8537469  +6.3587358     1134.219     3622.354     4639.114     93.91946     187.6898      375.193      2.999    11.36     1287.042     66.14703     150.4814        29     2.165     1.658  47.15   3
        98    117.2604    759.9734 307.8578840  +6.3586384       4115.1     12344.74     21200.48     93.62083     187.6898     375.1184      4.167    12.77     1286.873     66.14703      489.436       117     3.969     2.082  30.41   2
        99    930.9921    788.2426 307.5187261  +6.3741446     1105.874     2745.827     2840.422     93.47116     187.4659     374.9317      2.534     8.43     1276.777     66.14703     137.6949        18     1.670     1.188  38.27   0
       100    905.5534    756.3152 307.5303418  +6.3865023     3108.397         7813     9236.525     94.06843     187.6152     375.2677      2.631     6.37     1276.102     66.14703     362.8094        51     2.041     1.656  31.34   2
       101    900.1356    748.8811 307.5328364  +6.3893964     1388.917     3746.829     4528.947     94.36564     187.7644     375.2677      2.542     8.30     1276.005     66.14703     192.0374        30     1.775     1.539  84.43   3
       102    954.7670    756.5782 307.5098760  +6.3880317     861.3076     1531.693     2489.676     93.47116     187.4659     375.0437      2.968     4.22     1274.576     66.14703     145.4911         9     1.286     0.780 -55.83   0
       103    660.8776    753.0750 307.6321535  +6.3796855     715.9459     1695.817     2379.511     94.36564     187.9879     375.3423      2.555     5.54     1278.866     66.14703     94.37927         9     1.216     0.711 -83.26   0
       104    628.6053    785.6211 307.6445034  +6.3651479     2408.103     7312.532     9126.944     93.62083     187.3912     375.0437      2.856     8.20     1281.858     66.14703     259.8818        53     2.191     1.710  27.23   0
       105    548.5831    752.5809 307.6788469  +6.3761395     914.5957     1912.541     2684.642     93.77027     187.3912      375.193      2.585     5.54     1282.254     66.14703     123.0427         9     1.178     0.735  13.89   0
       106    429.2639    762.2239 307.7281273  +6.3681620     746.2478     2038.253     2712.633     93.62083     187.6898      375.193      2.819     7.03     1285.077     66.14703     141.4636        10     1.717     0.807  22.38   0
       107    929.5364    748.0957 307.5206406  +6.3907001     1586.573     4066.144     4321.011     93.91946     187.8389     375.2677      2.401     8.90     1274.935     66.14703     178.6884        26     1.709     1.293   1.28   0
       108    960.4138    746.9840 307.5078416  +6.3921876     1117.607     2518.068     3299.496     93.77026     187.3164      375.193      2.535     7.49     1273.889     66.14703     163.1975        19     1.398     1.255  23.86   0
       109    225.8804    741.7582 307.8133356  +6.3698147     871.5174     2531.033     6169.837     94.06843     187.6898     375.2303      6.450     9.34     1285.875     66.14703     139.8722        14     2.124     1.146  42.94   2
       110    944.8630    735.6987 307.5146738  +6.3963374     1121.918      2745.48     3920.861     93.77027     187.7644      375.305      2.937     8.11     1273.819     66.14703     138.3868        20     1.791     1.026 -27.19   0
       111   1018.1577    729.6235 307.4844039  +6.4012887     3729.287     9022.664     10143.36     93.62083     187.5405     364.6711      2.464     6.08      1271.14     66.14703     475.0463        49     1.976     1.549  18.19  16
       112    985.8480    729.3661 307.4978432  +6.4003203     869.8948     1871.388      2184.89     93.77027     187.6898      375.193      2.329     7.36     1272.084     66.14703     112.9424        12     1.532     0.990  68.71   0
       113    874.2038    725.6470 307.5443740  +6.3981420     618.4865     1503.239     2353.531     93.32124     187.3912      374.857      2.824     4.47     1275.199     66.14703     111.4447         5     1.199     0.474   3.15   2
       114    872.9572    722.6599 307.5449897  +6.3993359     649.4001     1209.831     1660.121     94.06842     187.6898     375.3796      2.445     4.47      1274.89     66.14703     92.10339         5     1.021     0.557  35.19   3
       115     32.3982    715.7567 307.8946108  +6.3740755     997.1254     2273.793     3019.262     93.32124     187.3164     374.8944      2.482     7.78     1283.191     66.14703     139.4291        14     1.698     0.997 -33.80   2
       116    831.6069    715.6370 307.5624079  +6.4008628      647.074     1180.533     1418.978     93.17109     187.3912     374.9691      1.999     5.08     1274.602     66.14703     93.69971         6     1.221     0.598  25.31   0
       117    642.0788    703.9780 307.6415737  +6.3993632     2459.175     7138.484     10041.81     93.62083     187.3164     375.2303      3.084     8.52     1275.732     66.14703     287.4679        57     2.186     1.940  28.14   0
       118    106.8345    699.4866 307.8642068  +6.3833033     1372.779     3096.047     4656.942     94.06843     187.5405     375.2677      2.851     9.91     1283.058     66.14703     176.9879        27     2.373     1.154  45.08   2
       119    590.2876    702.0810 307.6631646  +6.3984182     570.2186     1384.195     2315.993     93.77027     187.9879     375.3796      2.148     3.92     1277.098     66.14703     114.7224         5     1.355     0.325  25.84   0
       120    979.5446    699.1120 307.5014498  +6.4126231     1303.053     3209.244     3481.901     94.06843     187.5405     375.4542      2.435     7.35     1270.836     66.14703      148.472        22     1.554     1.271 -86.81   0
       121    759.0536    695.8793 307.5932131  +6.4066156     7861.208      22469.3     30027.25     94.06843     187.6898     375.3423      2.956     6.80     1273.314     66.14703     892.3645        87     2.357     2.023  22.89   0
       122    888.8365    695.8272 307.5392644  +6.4109622     1691.956     4372.736     5102.313     93.47116     187.3164     375.0064      2.563     7.20     1271.637     66.14703     218.1108        33     1.871     1.442  60.90   0
       123    103.2516    701.5139 307.8656294  +6.3823447     908.9828       2073.9     2880.724     94.06843     187.5405     375.3423      2.893     7.39     1283.205     66.14703     119.8092        10     1.643     0.930  36.95   3
       124    638.6649    690.3345 307.6434392  +6.4048918     2087.695     3993.751      5315.91     94.06843     187.6898     375.2303      2.378     5.96     1274.833     66.14703     243.8024        23     1.842     1.001  41.70   3
       125    639.6851    687.3931 307.6431113  +6.4061423     2610.074     5812.342     7851.342     93.62083     187.3164     375.0811      2.816     8.73     1274.606     66.14703     314.5269        38     2.489     1.123  24.40   3
       126    233.2670    690.2025 307.8119590  +6.3913838     2043.516     6935.109     9061.445     93.32124     187.3164     375.0437      2.944     8.44     1283.017     66.14703     268.8033        52     2.170     1.949  44.04   0
       127    711.5275    676.9984 307.6135867  +6.4128391     1379.004     4094.096     6314.614     93.47116     187.1669     375.0811      3.225     8.60     1272.378     66.14703     200.2085        37     2.208     1.648 -88.53   0
       128    977.4933    673.3900 307.5031411  +6.4231930     4532.834     11081.01      13578.3     93.62083     187.2417     375.0437      2.623     6.10     1269.577     66.14703     485.6245        60     2.101     1.736  31.41   0
       129    916.8070    674.4192 307.5283355  +6.4207475     1006.455     2762.872     3409.787     93.62083     187.3164     375.0437      2.755     9.24     1269.336     66.14703     122.1145        20     1.635     1.456 -66.03   2
       130     53.9633    671.1920 307.8871141  +6.3932297     6682.381     14468.15     17477.37     93.17109     187.3912     374.9317      2.344     6.99     1281.094     66.14703     755.6523        35     2.107     0.988  31.26   3
       131     56.4945    668.3174 307.8861565  +6.3945035     9391.137     21659.13     28252.56     93.77027     188.0624     375.4169      2.615     7.77     1280.996     66.14703     1002.644        66     2.789     1.302  30.22   3
       132    702.0094    660.0891 307.6180962  +6.4195148     1428.435     3880.883     5660.419     93.62083     187.3164     375.0064      3.311     7.60     1271.359     66.14703     196.1787        28     2.097     1.146  18.11   2
       133    723.5441    659.5246 307.6091626  +6.4204667     1401.477     4712.296     6096.685     93.91946     187.6152     375.1557      2.946     9.56     1270.849     66.14703     180.5353        42     2.118     1.795  57.55   0
       134    554.3129    657.2637 307.6795862  +6.4157514     1038.751     3358.267     4226.035     94.06843     187.8389      375.305      2.991    11.77     1275.685     66.14703     154.5582        31     2.169     1.778 -21.13   0
       135    995.6478    654.9281 307.4961959  +6.4314325      2613.51      6053.89     6941.016     94.06843     187.7644      375.305      2.428     6.40     1268.348     66.14703     281.5907        42     1.946     1.488   6.59   0
       136    961.2267    653.8182 307.5105416  +6.4307462     3816.193     9709.084     11724.63     93.62083     187.4659     375.1557      2.664     6.32      1268.22     66.14703     387.6952        59     2.094     1.739  15.37   0
       137    118.4965    649.5408 307.8610022  +6.4043502     6520.382     13854.25     16529.12     93.91946     187.6898     375.3796      2.268     6.88     1280.537     66.14703     709.2753        31     1.748     1.192  51.15   3
       138    121.0067    647.0013 307.8600422  +6.4054847     8236.192     19819.61      27033.7     93.32124     187.3164     375.0437      2.751     8.35     1280.439     66.14703     921.6593        70     2.830     1.553  36.55   3
       139    404.6597    650.9241 307.7420039  +6.4133687      593.845     1518.333     2722.536     94.21715     187.7644     375.2303      3.696     4.14     1279.398     66.14703     114.6678         5     1.069     0.670 -82.50   2
       140    409.3419    647.9971 307.7401535  +6.4147359     849.0699     2082.649     2705.036     93.32124     187.4659     374.9691      3.043     7.15     1279.084     66.14703     137.2277         9     1.450     0.986  -3.85   2
       141    956.1245    636.8787 307.5132150  +6.4375823     3496.303     8888.507     10920.96     94.36564     187.9879     375.3796      2.593     6.53     1267.121     66.14703     359.7661        56     2.115     1.681  28.34   0
       142   1011.3486    631.9210 307.4904187  +6.4414701     46286.18     113696.1     139587.9     94.06843     187.7644     375.2677      2.605     5.77     1266.542     66.14703      4821.63       127     2.321     1.923  25.70  16
       143    549.7813    632.5482 307.6822794  +6.4258216     15239.89     50846.41      72018.6     93.47116     187.7644     375.0064      3.174     8.08     1274.272     66.14703     1761.974       123     2.615     2.257  27.08   0
       144    155.9894    632.0419 307.8459927  +6.4128451     810.0588       958.69     1243.878     93.32124     187.4659     374.9691      1.535     5.57     1280.001     66.14703     119.8979         9     1.242     0.705  43.19   3
       145    157.8056    628.3683 307.8453585  +6.4144253     989.9565     2135.296     2211.906     93.32124     187.5405     375.0064      2.363     6.22     1279.796     66.14703      137.131        13     1.419     0.766  21.95   2
       146    445.6622    618.3276 307.7260281  +6.4282215     16322.23     30832.75      35795.6     94.21715     187.6898     375.3423      2.107     6.66     1275.825     66.14703     1792.056        42     2.120     1.052  35.74   3
       147    447.7393    615.0797 307.7252712  +6.4296342      20459.5     49578.99     67697.45     94.21715     187.6898     375.2677      2.823     8.15     1275.552     66.14703     2164.077        92     2.936     1.552  27.75   3
       148   1023.2462    614.6144 307.4860366  +6.4490235     993.1426      1766.95     1684.925     86.79136     156.3534     290.3244      1.837     6.63     1265.073     66.14703     145.2917        13     1.661     0.743  82.28  24
       149    293.3293    606.9857 307.7897252  +6.4278121     803.1713     2446.799     3902.416     93.47116     187.5405     375.1557      3.250     6.04      1275.94     66.14703     128.3497         9     1.425     0.719 -52.80   2
       150    718.7591    601.6030 307.6130453  +6.4442620     1678.543     4002.949     5480.821     93.17109     187.3164     374.9691      2.773     7.82     1266.791     66.14703     230.2437        26     2.222     1.024  29.02   3
       151    719.4727    598.7656 307.6128414  +6.4454593     1897.833     5147.387     6880.471     93.91946     187.6152     375.2303      2.828     9.12      1266.61     66.14703      190.489        29     2.173     1.070  28.75   3
       152   1011.8669    593.4184 307.4914582  +6.4574113      986.813     2596.519     2912.449     93.62083     187.6152     375.1557      2.163     8.48     1262.891     66.14703     110.4768        16     2.305     0.872  87.99  18
       153    772.4373    594.9426 307.5909476  +6.4488069     4990.674     15049.37     20438.57     94.06843     187.7644     375.2677      3.025     7.37     1265.821     66.14703     527.6411        82     2.420     2.032  17.48   0
       154    596.6577    591.7245 307.6641289  +6.4442713     1056.474     2528.949     3457.185     94.21715     187.6898     375.2303      3.160     5.77     1269.633     66.14703     125.4159        12     1.183     0.792  43.66   0
       155    848.9562    578.3270 307.5596788  +6.4582292     1156.333     3259.122     3085.061     93.91946     187.7644      375.305      2.495     8.81     1263.886     66.14703     156.2668        22     1.801     1.445 -67.85   0
       156    806.7653    578.1407 307.5772252  +6.4569002     829.9716     1501.687     2323.242     93.91946     187.6898     375.2303      2.853     5.48     1264.798     66.14703      149.744         5     1.186     0.714  69.33   2
       157    807.2728    574.2538 307.5771412  +6.4585247     874.3802     1727.139     2543.503     93.91946     187.5405     375.2303      2.791     4.71     1264.591     66.14703      119.115         6     1.082     0.581 -30.07   2
       158    235.9381    570.3746 307.8147854  +6.4410296     2603.131     7909.759      11225.7     93.62083     187.6152      375.193      3.208     9.76     1275.813     66.14703      297.568        62     2.494     1.961  21.88   2
       159    787.8524    566.8232 307.5854578  +6.4609504     56204.69     171782.4     235483.5     93.47116     187.6898     375.0437      3.058     7.29     1264.421     66.14703     5870.386       193     2.682     2.341   4.95   0
       160    169.0499    568.0944 307.8426661  +6.4397294     14962.84     31745.34     38426.55     93.91946     187.5405     375.4542      2.340     6.99     1276.442     66.14703      1686.27        51     2.448     1.102  29.51   3
       161    170.6636    564.5198 307.8421128  +6.4412618     19416.16     47058.49     61147.29     94.36564     187.7644     375.2303      2.708     7.70     1276.264     66.14703     2105.187        84     2.859     1.353  29.28   3
       162     94.3347    562.2379 307.8739179  +6.4396439     2071.093     6926.171     9617.175     93.91946     187.6152     375.3423      3.095     9.10     1276.242     66.14703     249.4414        62     2.369     1.922  40.79   0
       163    824.5139    554.1279 307.5706308  +6.4674229     1675.852     5019.823     6112.568     94.21715     187.9879     375.2677      2.870     7.77     1262.862     66.14703     199.6427        39     2.074     1.705  62.01   0
       164    342.0757    554.8765 307.7711716  +6.4509955     4239.795     8618.679     10090.59     94.36564     187.9879     375.3796      2.246     6.96      1271.67     66.14703     450.6163        35     2.225     1.023  31.78   3
       165    344.3120    551.4500 307.7703544  +6.4524875     5342.768     12496.79     16537.67     94.06843     187.4659     375.4169      2.624     8.06     1271.328     66.14703     588.3256        57     2.772     1.233  30.01   3
       166    507.7647    549.0596 307.7024813  +6.4589455     1815.712     4165.149       6594.3     94.06843     187.6898     375.2303      3.248     5.73      1268.98     66.14703     229.1268        21     1.584     1.058  42.11   3
       167    510.0380    545.8950 307.7016399  +6.4603304     2043.876     4855.761     7312.201     94.21715     187.5405     375.4169      2.992    10.51     1268.687     66.14703     212.4677        33     2.479     1.242  21.28   2
       168    778.5764    547.1928 307.5899556  +6.4687598     1993.462      6187.28     8719.547     93.47116     187.4659     375.0811      3.122    10.67     1263.455     66.14703     219.1107        55     2.370     1.833  31.21   0
       169     59.9960    549.8547 307.8886000  +6.4436120     10118.57     10265.41     10133.15     93.32124     187.4659      374.857      0.421     1.59     1275.738     66.14703     8174.315         6     0.352     0.237  89.56   0
       170    154.4043    542.6844 307.8495899  +6.4497465     1575.775     3285.209     4534.336     93.47116     187.2417     374.8944      2.296     7.38     1275.025     66.14703     192.1729        18     1.822     0.838  41.14   3
       171    157.8419    540.0155 307.8482486  +6.4509656     2016.305     5321.943     7111.434     93.47116     187.3912     375.0064      2.692    11.03     1274.746     66.14703     240.6699        45     2.537     1.408  39.52   2
       172     27.1101    541.7430 307.9025377  +6.4458619     1242.619     2640.852     4851.757     93.91946     187.6152     375.4169      2.990     7.04     1275.397     66.14703     204.6134        15     2.040     0.681  46.57   3
       173     29.3963    538.9423 307.9016796  +6.4470970     1658.544     4277.646     6582.728     93.32124     187.5405     374.9691      3.070    10.73     1275.198     66.14703     217.1947        36     2.552     1.256  38.77   2
       174    553.7621    539.8008 307.6836620  +6.4643123     821.3815     2540.125     4145.589     93.02069     187.4659     375.0064      3.262     9.49     1267.036     66.14703     112.9326        17     1.856     1.354 -24.62   0
       175    250.7939    539.6183 307.8096201  +6.4542472     22170.36     49152.68     57416.29     93.62083     187.3164     375.0811      2.367     6.65     1272.921     66.14703     2564.542        58     2.536     1.101  27.39   3
       176    252.7527    536.1552 307.8089196  +6.4557451     26584.52     66519.35     85484.25     94.06843     187.6152     375.2677      2.720     8.31     1272.443     66.14703     2700.283        91     2.876     1.405  29.56   3
       177    773.4698    530.5389 307.5926229  +6.4754771       5371.6        11031     12575.02     94.21716     187.6898      375.305      2.226     6.23     1262.398     66.14703     672.7687        40     2.169     1.111  29.72   3
       178    774.3492    527.6863 307.5923505  +6.4766862     5019.879     10764.04     13813.53     94.06843     187.5405     375.3423      2.524     9.13     1262.189     66.14703     581.0032        41     2.703     1.089  22.30   3
       179    477.3809    529.8809 307.7157414  +6.4658612     11278.78     24604.01     31409.11     93.62083     187.3164      375.193      2.448     6.64     1267.409     66.14703     1283.275        56     2.520     1.187  25.82   3
       180    479.4927    526.4161 307.7149770  +6.4673648     13031.79     31001.22     42773.82     93.77027     187.4659     375.1184      2.843     8.50      1266.85     66.14703     1358.172        81     3.053     1.359  27.91   3
       181    949.8007    531.9448 307.5192667  +6.4807703     669.6429     1466.344     1755.862     93.17109     187.3912     374.8197      2.108     3.52     1258.869     66.14703     137.8401         5     0.972     0.368 -85.17   2
       182    648.9511    522.0572 307.6446688  +6.4748302     590.4344     1664.023     2398.575     94.06843     187.6898     375.4169      3.041     4.58       1262.7     66.14703     116.9501         5     1.060     0.562  72.38   2
       183    637.4255    525.0143 307.6493637  +6.4732224     888.1495     1957.721     3765.459     93.77026     187.4659      375.193      2.411     4.94      1263.24     66.14703      149.061         8     1.261     0.701  34.96   2
       184    640.5729    522.0855 307.6481511  +6.4745387     721.8779     1923.456     4142.637     94.21715     187.3912     375.1184      2.655     5.25     1262.905     66.14703     92.42908         8     1.545     0.503  89.03   2
       185    637.6015    521.2621 307.6494134  +6.4747801     789.5986     1665.896     3365.464     93.32124     187.4659     374.9317      2.469     3.50     1262.904     66.14703     109.7571         5     0.760     0.464 -75.00   1
       186    308.6362    519.6931 307.7862282  +6.4644259     836.3582      2103.77         3579     94.21716     187.5405     375.3796      3.052     3.99     1268.943     66.14703     115.0645         5     0.751     0.606  23.91   3
       187    306.8329    516.2715 307.7870902  +6.4657806     1161.454     3518.064     5116.842     93.91946     187.6898     375.2677      3.281     9.23     1268.616     66.14703     147.0206        24     2.095     1.135 -75.16   2
       188    122.0787    518.1042 307.8638365  +6.4588270     6613.205     13782.88     16139.28     93.77027     187.9879      375.305      2.266     6.87     1273.329     66.14703     699.8698        43     2.393     1.038  29.74   3
       189    123.8374    514.5963 307.8632208  +6.4603367     7933.616     19519.12     25995.93     93.02069     187.4659     375.0437      2.730     8.32     1273.081     66.14703     910.4614        67     2.878     1.300  31.03   3
       190     90.4136    513.9894 307.8771356  +6.4594657     943.8911     2330.102     3504.415     93.77026     187.3912      375.193      3.030     9.94      1273.48     66.14703      121.627        21     1.839     1.499  86.44   2
       191    948.1829    509.4643 307.5206726  +6.4900139     2067.445     5543.509     6987.369     93.47116     187.6152     375.0811      2.730     7.63     1257.483     66.14703     266.8311        42     1.998     1.682   5.06   0
       192    418.6243    498.5075 307.7411975  +6.4768704     11270.88     24198.79     29161.49     94.21716     187.4659     375.0811      2.374     6.55     1266.027     66.14703     1214.556        49     2.341     1.185  35.40   3
       193    420.7812    495.4201 307.7404021  +6.4782195      12276.4     31036.46     41287.89     93.77027     187.6152      375.193      2.805     8.58     1265.565     66.14703     1332.242        80     2.934     1.404  32.02   3
       194    626.4673    498.0046 307.6548036  +6.4840269     3384.057     6954.564     8717.189     93.47116     187.3164     375.0437      2.266     6.40     1261.258     66.14703     450.5524        30     2.049     0.950  36.02   3
       195    627.8146    494.6036 307.6543547  +6.4854784     3806.519     8813.723     12415.31     93.62083     187.2417     375.1184      2.781     9.48     1260.987     66.14703      392.845        52     2.786     1.318  26.62   3
       196    183.7613    496.7714 307.8388953  +6.4697191     4830.252     9963.876     11724.29     93.47116     187.3912     375.1184      2.251     7.05      1270.59     66.14703     515.2069        37     2.258     1.020  32.18   3
       197    186.0774    493.2430 307.8380484  +6.4712560     6052.449     15124.68     20957.11     93.91946     187.6898      375.305      2.798     8.51     1270.194     66.14703     640.5015        65     2.874     1.398  32.12   3
       198    548.6342    495.9568 307.6872299  +6.4822734     578.2152     1313.462     3120.376     93.77026     187.6898     375.0811      2.264     3.44     1262.299     66.14703     110.2577         5     0.827     0.413  67.68   3
       199    549.7690    491.4357 307.6869062  +6.4841812     1025.748     2156.129     3630.765     93.62083     187.3912     375.0064      3.238     6.84     1261.727     66.14703     136.0658        13     1.466     0.895 -51.42   2
       200    922.8453    489.7939 307.5318490  +6.4973056     1898.099     5032.528     5979.439     93.47116     187.3912      374.857      2.657     7.34     1257.361     66.14703     235.3295        38     1.998     1.546  65.51   2
       201    926.3118    489.3523 307.5304221  +6.4976037     927.8149     1257.323     2051.096     94.06843     187.5405     375.3423      1.421     2.91      1257.23     66.14703     163.9072         5     0.714     0.472  80.46   3
       202    595.4876    489.9665 307.6679467  +6.4863165      1968.93     4397.679     6725.039     94.06843     187.5405     375.2677      2.946     7.95       1260.9     66.14703     214.7656        25     1.969     1.305  43.08   3
       203    597.3166    487.0669 307.6672812  +6.4875767     1888.029     4610.295     6744.133     94.36564     187.9879     375.3423      2.935    10.78     1260.573     66.14703      226.619        37     2.503     1.292  47.58   3
       204    945.8092    482.1243 307.5225514  +6.5012421     1450.103     3659.927     4503.032     93.62083     187.1669     375.0437      2.733     8.69     1255.868     66.14703     185.1102        26     1.644     1.321  73.34   0
       205    507.9321    481.8366 307.7046145  +6.4867525     2019.467     4382.741     5892.917     93.91946     187.6898     375.3796      2.481     6.35     1261.014     66.14703     235.7585        30     1.919     1.071  27.33   3
       206    508.8726    478.1691 307.7043437  +6.4883007     2104.542     5025.233       8595.2     93.91946     187.6898     375.2677      3.359    10.57     1260.663     66.14703     220.9934        42     2.832     1.099  26.07   3
       207    355.1545    478.3825 307.7682450  +6.4830687     820.4562     1928.311     3796.659     93.47116     187.5405     374.9691      3.754     5.09      1264.72     66.14703       102.55         8     1.000     0.733  74.42   1
       208    864.7260    475.2217 307.5564890  +6.5013966     1291.105      3552.03     4319.374     93.62083     187.5405      375.193      2.756     9.82     1257.872     66.14703      168.219        25     1.879     1.432  75.62   0
       209    697.1381    464.6463 307.6265128  +6.5001822     911.5516     2481.839     3708.797     93.91946     187.5405      375.305      3.323     5.41     1258.482     66.14703      128.196         9     1.078     0.851   6.68   2
       210    367.2203    462.6468 307.7637451  +6.4899804     1070.465     2883.824     5337.552     93.62083     187.6898     375.0811      3.957     9.20     1263.414     66.14703     127.4459        24     2.308     1.023  29.52   2
       211    596.5453    459.6754 307.6684987  +6.4988793     2789.581     7338.671     10374.63     93.91946     187.6898      375.305      2.947     9.75     1258.592     66.14703     323.8904        52     2.855     1.479  36.06   3
       212    594.0236    462.3726 307.6694588  +6.4976796     2864.225     5820.388      8174.43     93.47116     187.5405     375.0811      2.417     5.88     1258.753     66.14703     323.7153        27     1.703     1.156  35.70   3
       213    757.8724    457.1260 307.6015071  +6.5053187     5379.505     17107.83     24791.39     94.36564     187.8389      375.305      3.182     7.61     1257.118     66.14703     556.7992        90     2.417     2.191  24.09   0
       214    278.8399    456.5239 307.8006902  +6.4895519     892.1001     2066.902     3199.256     93.91946     187.6898     375.3423      3.147     7.97     1264.161     66.14703     137.4409        12     1.725     1.029  51.88   2
       215     93.7864    451.6149 307.8777861  +6.4853742     1204.555     2158.445     3545.941     93.77027     187.3164      375.193      2.557     4.99     1270.594     66.14703     165.4683        12     1.294     0.729  30.72   3
       216     97.2383    448.8448 307.8764422  +6.4866357     1473.653     3465.967     5461.188     93.77026     187.6152     375.1557      3.145    11.49     1270.451     66.14703     179.6887        36     2.389     1.539  30.87   2
       217    944.6627    450.8344 307.5240490  +6.5141447     591.3604     1339.063     2082.855     93.91946     187.7644     375.2303      3.023     4.65     1253.187     66.14703     87.10364         5     0.857     0.716 -29.25   0
       218    733.3130    450.7638 307.6119263  +6.5071307     713.3824     1424.048     2581.014     94.06843     187.5405     375.2677      2.151     3.47     1256.916     66.14703     125.2957         5     1.253     0.277  55.24   0
       219    996.3434    448.2974 307.5026436  +6.5169139     1580.319     3242.252     4344.115     93.91946     187.6898     375.5287      2.341     7.00     1250.897     66.14703     224.5654        18     1.825     0.753  18.08   3
       220    996.5961    445.7917 307.5026203  +6.5179587     1701.518     4188.404     5472.117     93.32124     187.3164     375.0811      2.933     7.91     1250.717     66.14703     204.5535        25     2.111     0.939  24.10   3
       221    734.2156    447.0065 307.6116739  +6.5087147     889.0466     2257.801     2884.315     93.62083     187.3912     375.0811      2.612     6.45     1256.552     66.14703     120.2479        10     1.673     0.698  28.71   0
       222    330.2538    446.5715 307.7796417  +6.4953905     956.1882     1889.179      3284.76     93.77027     187.7644     375.1557      2.775     5.92     1262.551     66.14703     109.0297        11     1.134     0.868  32.98   3
       223    332.1807    443.0619 307.7789558  +6.4969065     876.3279      2343.22     3177.748     93.62083     187.6152     375.1184      2.724     7.55      1262.21     66.14703      117.814        14     2.456     0.650  33.81   2
       224    247.2168    445.2551 307.8142077  +6.4931522     945.0768      1113.86     1613.875     93.47116     187.6152     374.9691      0.821     0.87     1264.084     66.14703     431.0594         5     0.730     0.396  17.34   0
       225    695.1658    430.7196 307.6284426  +6.5141476     4622.371     9595.512     12087.68     93.91946     187.7644      375.305      2.416     7.00     1255.923     66.14703     537.4312        40     2.302     1.094  22.88   3
       226    696.6717    427.4247 307.6279242  +6.5155605     4529.422     10648.45     15360.99     93.62083     187.5405      375.193      2.947     8.43     1255.578     66.14703     474.2979        51     2.796     1.144  24.88   3
       227    615.9774    426.1376 307.6615174  +6.5133986     735.9919     2057.573     3962.973     93.62083     187.6898     375.1557      3.742     6.70     1256.283     66.14703     118.1456         7     1.377     0.915 -70.82   0
       228    587.4810    421.4990 307.6735174  +6.5143651     4295.987     7617.658     9035.753     94.06843     188.2113     375.3796      1.924     4.94     1256.016     66.14703     479.9254        23     1.502     0.992  37.50   3
       229    590.3600    418.9270 307.6724046  +6.5155249     4958.684     14262.49     22925.45     93.91946     187.7644     375.3423      3.469    10.00     1255.878     66.14703     489.1141        98     3.497     1.980  42.91   2
       230    921.8672    418.7545 307.5345739  +6.5266533     1361.024      3758.49     4215.809     94.06843     187.6152      375.305      2.591     8.28     1250.937     66.14703     198.7936        28     1.783     1.562 -41.74   0
       231    359.4015    417.2615 307.7684854  +6.5084883     7258.375     14701.06      17892.4     93.32124     187.4659     374.9317      2.276     6.95     1259.855     66.14703     879.6987        48     2.391     1.118  28.50   3
       232    361.4560    413.5164 307.7677541  +6.5101059     8280.969     20405.04     28219.29     94.06843     187.6898     375.3796      2.870     9.38     1259.546     66.14703     848.0208        71     2.944     1.342  29.43   3
       233    877.0252    413.3705 307.5533947  +6.5273866     646.0547      1508.94     3042.667     93.47116     187.4659     375.1184      2.399     3.37     1251.281     66.14703     104.3596         5     1.428     0.230 -17.53   0
       234    890.3705    409.0299 307.5479875  +6.5296263      1840.19     5571.749     7168.865     93.47116     187.3912     374.9691      2.966     8.55     1250.706     66.14703     225.8535        44     1.949     1.788  41.76   0
       235    217.5476    408.2042 307.8277604  +6.5074801     3692.801     8060.334     9473.924     93.32124     187.4659     374.8197      2.368     6.77     1261.785     66.14703     427.9778        38     2.244     1.075  29.87   3
       236    219.3448    404.4370 307.8271371  +6.5090983     4125.084     10071.17     14300.79     93.91946     187.6898      375.305      2.976     8.81     1261.635     66.14703     488.4838        56     2.749     1.260  29.50   3
       237    121.2649    394.0194 307.8682572  +6.5101157     1365.128     2625.633     4285.676     93.62083     187.6898     375.0811      3.070     9.96     1266.515     66.14703     156.6688        19     2.129     1.299  24.03   3
       238    117.7148    392.1138 307.8697959  +6.5107845      1267.12     2746.194     5183.293     93.77027     187.9135     375.3423      3.530    13.87     1266.653     66.14703     198.4565        33     4.036     1.326  80.13   2
       239   1022.0829    395.5735 307.4936604  +6.5395757     3835.051     8673.231     9809.977     93.91946     173.6633     311.4507      2.347     6.48     1246.042     66.14703     428.5486        42     1.973     1.402  68.93  24
       240    140.0864    390.6615 307.8605425  +6.5121361     840.7509     2582.541     3875.137     94.06843     187.9135     375.2677      3.359     9.11     1265.011     66.14703     96.87939        16     1.682     1.377 -77.58   0
       241    362.7998    386.7216 307.7680749  +6.5212323     777.2018     1600.555     2325.321     93.17109     186.9423     374.9317      2.595     4.31     1257.022     66.14703     109.4185         7     1.132     0.467  31.73   0
       242    417.3060    380.8134 307.7456063  +6.5255005     2032.274     4142.337     5380.683     93.77027     187.3912     375.0811      2.177     7.77     1254.965     66.14703     211.5581        26     2.038     0.979  32.65   3
       243    419.3201    377.5628 307.7448755  +6.5269123     1937.727      5058.94     6530.147     93.91946     187.7644     375.2677      2.667    10.20     1254.577     66.14703     244.5581        40     2.624     1.105  32.43   3
       244     16.2342    379.7546 307.9123939  +6.5124871     1101.268     2940.383     4211.345     93.62083     187.6152     375.1184      3.035     6.12      1271.97     66.14703      155.457        16     1.326     1.101 -70.09   2
       245    757.9517    375.5779 307.6041400  +6.5390475     4100.254     13173.21     19793.57     93.62083     187.6898     375.1184      3.378     8.52     1249.621     66.14703     489.0586        90     2.702     2.136   5.66   0
       246   1001.6551    370.3556 307.5029767  +6.5493257     1532.987     4067.544     4866.104     94.06843     187.6898      375.305      2.704     8.03     1244.256     66.14703     184.3535        34     1.876     1.612  68.14   0
       247    437.8819    365.5421 307.7375521  +6.5325048     688.1485     1237.425     2019.396     94.21715     187.6898      375.305      2.164     3.92     1252.709     66.14703     93.63232         6     1.346     0.327  41.81   0
       248    465.3405    363.9363 307.7261878  +6.5340876     911.3043     2244.146     3554.917     94.06843     187.6152      375.305      3.391     6.87     1251.691     66.14703     123.3954        10     1.392     0.950  55.59   0
       249    823.6777    358.2941 307.5773756  +6.5483871     11860.86     36240.87     51050.82     93.77027     187.9135     375.3423      3.136     7.30     1247.618     66.14703     1201.655       113     2.516     2.233  24.43   0
       250    438.5952    360.4203 307.7374235  +6.5346469     675.4952     1602.175     2582.644     93.62083     187.3164     375.0437      2.656     3.92     1252.052     66.14703     82.41479         5     1.046     0.420 -15.72   0
       251    594.8614    353.4352 307.6726777  +6.5427607     888.6989     1974.722     4069.861     94.06843     187.6898     375.2303      3.860     5.37     1248.737     66.14703     139.6332         8     1.164     0.699  34.43   0
       252    680.1575    344.4406 307.6375056  +6.5493292     23312.96     80494.23     117442.9     93.77027     187.6898     375.1184      3.267     8.22     1247.424     66.14703      2620.87       146     2.696     2.370  26.98   0
       253     83.5137    341.2852 307.8856884  +6.5306565     1197.814     2288.072      2749.35     93.77027     187.9135     375.3423      1.921     6.56     1267.232     66.14703      175.567        13     1.816     0.666 -68.39   3
       254     80.2421    339.5806 307.8871047  +6.5312516     1742.387     4920.511     8021.702     93.47116     187.4659     375.0437      3.512    12.87     1267.522     66.14703     190.0448        47     2.610     1.924 -79.59   2
       255    543.7763    340.1923 307.6943527  +6.5465303     748.0696     2130.099      3728.17     93.47116     187.4659     375.0811      3.804     6.61     1247.578     66.14703     106.6443         8     1.537     0.797   8.88   0
       256    525.1100    339.7922 307.7021273  +6.5460717     2081.845     4215.486     5398.054     93.62083     187.3164     374.9691      2.309     7.10     1247.897     66.14703     264.8773        31     2.120     1.095  25.37   3
       257    526.5192    335.7981 307.7016723  +6.5477707     2009.453     4865.578     6714.699     93.32124     187.1669     374.9691      2.856     9.64     1247.384     66.14703     211.9761        35     2.367     1.096  27.77   3
       258    387.7026    334.9239 307.7594208  +6.5434877     6983.478     14987.71     18459.16     93.62083     187.9879      375.305      2.400     7.19     1252.006     66.14703       786.03        50     2.362     1.195  31.82   3
       259    390.3608    331.6065 307.7584243  +6.5449487      6619.11     17477.78      23987.9     93.32124     187.3164     374.9317      2.862     9.85     1251.749     66.14703     663.6775        60     2.957     1.236  32.60   3
       260    255.8096    333.8560 307.8142957  +6.5395104      655.872      1989.03     2675.057     93.32124     187.6152     374.8944      2.666     7.26      1257.41     66.14703     99.55029        12     2.470     0.598  30.39   0
       261    477.3072    325.6852 307.7224663  +6.5503073     2361.639     4904.344     7225.981     93.77027     188.2113     375.3796      2.728     9.03      1247.21     66.14703     268.4081        33     2.471     1.041  22.29   3
       262    480.9569    322.3552 307.7210579  +6.5518065     1950.212     3651.847     4599.558     94.06843     187.6898     375.1557      2.007     5.82     1246.557     66.14703     231.0604        17     1.207     1.073  75.98   3
       263    477.1555    321.3172 307.7226726  +6.5521087     2191.077     4960.471     7521.652     94.06843     187.6898     375.2677      2.965     5.90     1246.647     66.14703     230.5765        25     1.452     1.280  34.09   3
       264    746.9408    324.1326 307.6104005  +6.5599566     969.0128     2127.616     3825.026     94.21715     187.6152     375.2677      3.069     8.26     1245.507     66.14703     131.5359        16     1.902     1.002  23.38   2
       265    746.9423    319.7600 307.6105428  +6.5617650     971.6522      2660.88     3695.784     94.06843     187.7644      375.305      2.898     8.17     1245.249     66.14703     134.2391        14     1.707     1.093  16.12   2
       266    366.8511    309.5444 307.7689238  +6.5532855     2017.712     4694.716     6167.184     94.06843     187.6898     375.2677      2.662    10.41     1251.859     66.14703     210.6289        39     2.318     1.591  30.48   3
       267    371.7513    307.3064 307.7669597  +6.5543751      1281.36     2274.175     3145.291     93.91946     187.5405     375.4169      1.741     5.59      1251.43     66.14703     198.7926        11     1.451     0.614  88.49   3
       268    367.9736    305.5050 307.7685897  +6.5549936     1831.064     3605.126     5193.677     94.21715     187.3912     375.1184      2.603     7.76     1251.623     66.14703     209.7537        21     2.011     0.839  19.34   3
       269    227.0359    308.4252 307.8270954  +6.5490627     602.5026     1304.641     2340.671     93.62083     187.4659     374.9691      2.181     5.28     1258.114     66.14703     96.70459         6     1.397     0.563  70.27   2
       270    735.5950    302.9810 307.6158100  +6.5683257     16576.61     55685.62     80188.65     93.62083     187.2417     375.0437      3.228     8.09     1244.149     66.14703     1842.107       127     2.621     2.301  20.74   0
       271    911.7288    297.9009 307.5427343  +6.5762978     765.3683     2254.798     3063.086     93.77027     187.9135     375.2677      3.098     6.60     1241.614     66.14703      123.739         9     1.285     0.953 -23.30   2
       272    969.4000    298.8643 307.5187211  +6.5778194     702.4301     1716.802     2464.146     93.17109     187.2417     374.9317      2.341     4.75     1239.118     66.14703     122.4799         6     1.305     0.490 -89.81   0
       273    733.6338    289.4259 307.6170688  +6.5738663     1906.334     4433.618     7563.893     93.47116     187.4659     375.0064      3.271    12.80     1243.215     66.14703     215.6772        46     2.525     2.055  -0.85   3
       274    734.3248    285.6375 307.6169054  +6.5754561     1630.841     3025.931      3895.12     93.91946     187.7644      375.305      2.219     6.14     1242.985     66.14703      199.885        15     1.473     0.881  28.78   3
       275    750.1443    286.1621 307.6103100  +6.5757669     794.4902     2277.021       2879.1     94.06843     187.7644      375.305      2.837     6.74     1243.018     66.14703     109.5009        10     1.421     0.897 -53.69   2
       276    988.5150    276.3827 307.5115058  +6.5877534     2441.646     6887.492     8509.881     93.62083     187.3912      375.193      2.791     7.47     1236.787     66.14703      290.536        49     2.098     1.636  54.81   0
       277    228.1571    274.1908 307.8277546  +6.5632581     1642.304     3832.984     5438.531     93.47116     187.4659     374.9691      2.676     9.54     1257.337     66.14703     193.7865        30     2.084     1.219  54.77   3
       278    231.8500    271.7113 307.8263006  +6.5644074     1573.636     3740.864     6175.543     94.06843     187.4659     375.4169      3.266    10.89     1257.135     66.14703     197.5388        34     2.752     1.201  38.36   3
       279    466.6178    275.0210 307.7285724  +6.5709026     572.7763      1587.26     2424.759     93.77026     187.5405     375.1557      3.087     3.90     1242.785     66.14703     82.44556         5     0.896     0.486 -88.82   0
       280    705.7550    254.1345 307.6298162  +6.5875315     1518.229     3361.008     4579.988     94.06843     187.6152     375.2677      2.454     7.39     1240.417     66.14703      183.358        21     1.951     0.806  27.37   3
       281    706.3547    250.1503 307.6296972  +6.5891992     1522.814     3428.234     5449.111     94.06843     187.5405      375.305      2.831    11.09     1240.127     66.14703     173.2493        35     2.872     1.193  28.96   3
       282    544.2807    254.9312 307.6969368  +6.5818083     622.2101     1899.715     2487.849     94.36564     187.9879      375.305      2.826     7.40     1238.452     66.14703     98.95764         8     2.369     0.646 -12.10   0
       283    885.2556    253.8599 307.5551810  +6.5936302     761.8946     1875.036     3270.253     94.21715     187.6898      375.305      3.434     5.72     1239.335     66.14703      98.0968         8     1.200     0.767  -0.40   0
       284    203.9805    239.7311 307.8389404  +6.5766981     673.9926      1599.94     2616.454     93.62083     187.5405      375.193      3.431     6.74     1259.068     66.14703     102.0934         7     1.256     1.014  78.10   0
       285    439.2067    229.3990 307.7414672  +6.5888529     6428.831     13320.25     16190.19     93.32124     187.3164     375.0437      2.302     6.11     1241.479     66.14703     732.9236        47     2.328     1.161  27.26   3
       286    441.2498    225.9285 307.7407314  +6.5903565     5978.114      17180.3     25057.77     94.06843     187.6898      375.305      3.041     9.62     1241.117     66.14703     590.0942        68     2.942     1.453  29.06   3
       287    765.8975    225.9565 307.6057278  +6.6011916     4176.603      14074.8     21015.83     94.06843     187.6152     375.5287      3.333     8.92     1238.681     66.14703     566.4535        95     2.646     2.223  18.40   0
       288    127.9489    218.8681 307.8712419  +6.5827744      751.028     1545.989     2789.559     93.91946     187.5405      375.193      3.438     5.62     1264.682     66.14703     131.1827         5     1.194     0.744  22.24   0
       289    563.3759    214.4630 307.6903224  +6.5991828     1454.883     3802.323      5655.28     93.62083     187.6898     375.1557      2.948    11.77     1235.597     66.14703     182.6832        40     2.543     1.517  54.93   2
       290    566.0063    211.0063 307.6893418  +6.6007003     1098.459       2287.4     2864.636     93.32124     187.4659     375.0437      2.230     5.92     1235.532     66.14703     136.0697        14     1.900     0.519  34.19   3
       291    525.9198    214.1099 307.7059099  +6.5980767     608.3379     1808.267     2640.998     93.77027     187.9135     375.3796      2.489     6.26      1236.25     66.14703     103.0403         7     2.083     0.529  78.78   0
       292    923.4111    210.6641 307.5407242  +6.6127657      1020.79     2623.716     4030.995     93.47116     187.4659     375.0811      3.355     5.36     1235.649     66.14703     144.3958        11     1.130     0.865  38.27   2
       293    871.0545    209.0142 307.5625512  +6.6117041     3999.423     12220.81     16538.32     93.32124     187.6152     374.9317      3.009     7.34     1236.503     66.14703     454.3018        75     2.396     1.937  34.17   0
       294    667.7922    208.8069 307.6470862  +6.6050102       968.28     2518.508     4083.759     93.32124     187.4659     375.0811      3.085     5.98     1237.205     66.14703     120.4906        13     1.531     0.657  32.60   2
       295      1.3724    206.4780 307.9242820  +6.5836459     3425.792     4885.585     5691.093     82.15025     149.8606      282.998      1.500     5.15     1271.859     66.14703     676.3979        16     1.663     0.599 -87.13  24
       296    721.1541    195.2325 307.6253395  +6.6124054     12278.22     41626.82      59357.7     93.77026     187.6898     375.1557      3.201     8.26     1236.575     66.14703     1538.829       119     2.586     2.293  27.91   0
       297    491.1090    200.1715 307.7208427  +6.6026768     583.1591     1998.264     3287.275     94.21715     187.3912     375.1184      3.756     7.95     1236.969     66.14703     90.81201        10     1.953     0.906 -20.41   0
       298    957.5559    206.9622 307.5266453  +6.6154335     3886.272     11007.61     13993.94     93.77026     187.6898     375.1184      2.836     7.15     1234.763     66.14703     428.4583        62     2.222     1.812  33.33   0
       299    324.0757    195.1228 307.7904678  +6.5991727     2192.025      6731.14     11680.33     94.36564     187.9879     375.3423      3.708     9.91      1251.04     66.14703     236.4646        62     2.533     2.113 -73.61   2
       300    954.4296    193.9516 307.5283701  +6.6207103     1223.344     3046.546     4027.384     93.62083     187.7644     375.1557      2.898     9.00     1233.812     66.14703     170.9694        24     1.825     1.239  75.16   0
       301    992.4382    193.6779 307.5125723  +6.6220885     826.1451     1737.088     1671.893     93.91946     187.7644     375.2677      2.269     5.79      1233.22     66.14703     110.8821         8     1.324     0.713  66.83   0
       302    888.9355    192.2098 307.5556640  +6.6192496     2898.268     8466.599     11657.07     93.47116     187.4659     375.0811      3.016     7.65     1234.759     66.14703     357.7488        63     2.331     1.822  37.02   0
       303    431.9113    192.0495 307.7457263  +6.6040550     1330.448     4759.764     6895.005     94.06843     187.4659     375.3796      3.289    12.46     1239.603     66.14703     178.8319        44     2.379     1.816 -86.71   2
       304     89.7436    185.5375 307.8882255  +6.5952753     1462.593     3185.951     4399.975     94.21715     187.6152      375.305      2.646     9.21     1267.036     66.14703     156.0608        27     2.089     1.133  37.15   3
       305     91.1000    181.8767 307.8877821  +6.5968348     1351.194      3628.76     5455.584     93.47116     187.8389      375.305      3.042     9.16     1266.984     66.14703     163.7551        27     2.219     1.056  32.11   3
       306    259.6405    182.0671 307.8176914  +6.6024122     9263.268     21012.96     25646.31     93.91946     187.6152     375.3423      2.454     7.19      1257.74     66.14703     1034.289        59     2.498     1.282  21.17   3
       307    264.0000    180.0557 307.8159447  +6.6033901     6100.698     8788.082     9612.086     93.17109     187.2417     374.7823      1.491     4.32     1257.591     66.14703     895.2654        13     1.592     0.581 -86.87   3
       308    260.5576    177.8833 307.8174475  +6.6041731     9273.428     21123.46     28297.88     94.06843     187.6898      375.193      2.561     7.01     1257.867     66.14703      873.835        54     2.533     1.258  23.07   3
       309    234.7730    182.9897 307.8280019  +6.6011967     1735.041     4006.768     5976.405     93.62083     187.4659     375.1184      2.577     9.77     1259.199     66.14703     184.0255        33     2.408     1.107  31.23   3
       310    236.2641    179.1467 307.8275082  +6.6028360     1805.027       4235.2      6061.09     94.06843     187.6152     375.2303      2.584     9.84     1259.349     66.14703     190.4563        34     2.480     1.089  27.88   3
       311    383.3812    177.3183 307.7663908  +6.6085225     13573.34     28663.68     34448.14     93.62083     187.3164      375.193      2.340     6.42     1243.566     66.14703     1505.873        57     2.480     1.171  29.74   3
       312    385.3721    173.7445 307.7656802  +6.6100671     12947.68     33727.93     45118.45     93.62083     187.7644     375.0811      2.850     9.78     1243.204     66.14703     1259.446        74     2.939     1.364  30.67   3
       313    139.0452    178.7975 307.8679465  +6.5997182     1125.795     2380.341     3279.223     93.32124     187.2417      374.857      2.359     7.14     1264.584     66.14703     151.6605        16     1.789     0.798  35.79   3
       314    141.6833    175.9706 307.8669425  +6.6009758     1259.353     3121.968     4753.101     94.06842     187.4659     375.1557      2.872    11.14     1264.484     66.14703     154.1462        31     2.769     1.248  36.33   2
       315    287.2416    175.1376 307.8064415  +6.6062032     5118.233     11523.18     14263.43     94.06843     187.6152     375.3423      2.544     7.20     1256.394     66.14703     563.4552        53     2.571     1.348  32.96   3
       316    292.0000    173.0401 307.8045317  +6.6072302      4222.12     8122.877     11213.87     92.87006     187.2417     374.7823      2.329     5.34     1255.925     66.14703     493.6027        30     1.830     1.186 -80.06   3
       317    288.7941    171.1914 307.8059256  +6.6078872     4537.612     9767.533     13033.66     93.32124     187.4659     375.0811      2.576     7.83     1256.431     66.14703     487.6914        32     2.439     1.064  34.62   3
       318    722.9422    172.9999 307.6253232  +6.6216597     10413.75     22396.29     32365.72     93.17109     187.2417      374.857      2.840     9.70     1235.303     66.14703     1195.544        75     2.898     1.929   9.60   3
       319    723.3226    169.6503 307.6252746  +6.6230577     9358.943     22399.23     26477.34     94.06843     187.7644     375.2303      2.478     7.80     1235.129     66.14703     973.3336        37     1.975     1.435  20.44   3
       320     39.7159    171.0988 307.9095038  +6.5995656     2577.105     5479.385     6964.111     94.06843     188.2113     375.3796      2.381     6.90     1269.806     66.14703     279.1775        31     2.039     1.076  24.77   3
       321     41.9685    167.7768 307.9086765  +6.6010151     2549.411     6623.765     9498.469     93.32124     187.4659     375.0064      2.904     9.68       1269.7     66.14703     281.8241        47     2.898     1.216  28.35   3
       322    982.6504    152.4412 307.5179882  +6.6388172     1037.178     2743.275     4139.176     94.21716     187.6898     375.2677      3.374     7.26     1230.072     66.14703     124.9922        14     1.661     0.887  74.71   2
       323    258.6458    148.2647 307.8192161  +6.6163579     8428.029     18396.33     22569.85     94.06843     187.6152     375.2677      2.417     6.63     1258.936     66.14703     960.8339        55     2.623     1.230  27.66   3
       324    260.7666    144.9373 307.8184436  +6.6178051     7838.935     21511.46     28920.45     93.91946     187.7644      375.193      2.870    10.07     1258.842     66.14703     808.8999        68     3.075     1.276  32.26   3
       325      4.0715    147.0857 307.9251169  +6.6082980     1163.512     2743.691     3720.136     94.21715     186.0414     330.3433      2.460     7.05     1271.859     66.14703     153.9764        16     1.812     0.768  27.21  19
       326      5.9286    144.0434 307.9244449  +6.6096186     1446.507     3945.712     5066.523     93.91946     187.6898     355.2188      2.702     9.69      1271.75     66.14703     167.9923        31     2.220     1.179  41.81  19
       327    690.7831    142.3202 307.6397012  +6.6332745     2639.411     8603.667     12802.83     93.62083     187.3164     375.1184      3.251     9.07     1233.743     66.14703     302.8717        72     2.478     2.045  34.66   0
       328    104.6981    139.9644 307.8835074  +6.6146243     1383.428     3040.698     3940.989     94.06842     187.5405     375.4542      2.216     8.28     1266.055     66.14703      153.072        20     2.376     0.806 -61.63   3
       329    100.3420    141.3567 307.8852730  +6.6139022     1335.975      2389.31     3342.837     93.91946     187.6152      375.305      2.230     6.00     1266.283     66.14703      165.288        14     1.338     0.879 -11.07   3
       330    102.0240    138.2285 307.8846766  +6.6152524      1476.47     3080.799     4518.653     93.47116     187.5405     375.0811      2.792     7.00      1266.16     66.14703     186.9939        19     1.548     1.118  -8.08   3
       331    371.9854    138.4945 307.7724044  +6.6241967     1132.975       2271.1     3300.373     93.77026     187.3912     375.0811      2.536     8.55     1245.085     66.14703     151.8704        17     1.943     1.051  24.15   3
       332    371.4597    134.3703 307.7727584  +6.6258847     1187.061     2609.342     4693.277     93.77027     187.6898     375.2303      3.358     6.01     1245.342     66.14703     147.0842        14     1.222     1.013 -69.14   3
       333    375.2030    134.6159 307.7711937  +6.6259085     1012.808     1898.521     3187.685     93.62083     187.2417     375.0811      2.497     3.86     1244.666     66.14703     137.1381         9     0.919     0.724 -56.97   3
       334    336.3059    135.9917 307.7873242  +6.6240366     828.9246     2786.103     3862.366     93.62083     187.2417     375.0064      3.327     9.48     1250.596     66.14703     112.3273        17     2.499     1.004 -75.02   2
       335    983.0174    129.0741 307.5185981  +6.6484934      758.775     1774.827     2373.746     93.47116     187.3912     375.1557      3.002     5.57     1228.218     66.14703     91.04248         8     1.274     0.686 -80.72   0
       336    189.4962    122.0173 307.8488351  +6.6248930     1638.729     3568.022     5586.246     93.91946     187.4659     375.0811      3.246     7.53     1262.492     66.14703     189.3054        25     1.727     1.258  28.72   3
       337    187.3718    125.5990 307.8496007  +6.6233405     1579.842     3038.593     4515.722     93.47116     187.3912     375.0437      2.462     8.28     1262.575     66.14703     179.1171        22     1.971     0.971  39.85   3
       338    191.6713    124.6740 307.8478432  +6.6238674     1544.375     2855.247     4207.239     94.36564     187.8389      375.305      2.102     6.56     1262.402     66.14703     183.2872        13     1.635     0.739 -63.09   3
       339    649.3143    123.8549 307.6575516  +6.6395264     1893.892     4116.569     6295.498     94.06843     187.6898     375.4542      3.015     7.46     1233.151     66.14703     214.6218        27     1.869     1.009  33.86   3
       340    652.1766    120.9225 307.6564572  +6.6408347     1640.226     3948.166     6226.734     93.62083     187.5405      375.193      2.994     9.42     1233.024     66.14703     172.2682        29     2.415     1.025  31.18   3
       341    601.6225    121.2272 307.6774717  +6.6390200      2887.48     6367.632     7294.971     93.47116     187.4659      375.193      2.369     6.43      1233.33     66.14703     344.3522        32     1.923     1.117  34.54   3
       342    605.9875    111.1352 307.6759869  +6.6433395     15040.61     53619.92      83120.8     93.47116     187.4659     375.1557      3.436     8.50     1233.049     66.14703     1836.977       167     3.053     2.667 -73.60   2
       343     74.2925    123.1958 307.8967035  +6.6205376     637.1965     1738.124     3165.891     93.62083     187.3164     374.9691      3.169     4.45     1267.607     66.14703     99.21899         5     1.172     0.481  30.27   0
       344    331.7981    116.1942 307.7898491  +6.6320729     1069.362     2423.263     3803.625     93.32124     187.3164     375.0437      2.498     9.01     1251.781     66.14703     145.7711        20     2.121     1.068 -73.22   2
       345    327.8613    116.6894 307.7914700  +6.6317362     1016.401     2336.193     3753.656     94.06843     187.8389     375.3423      3.008     9.01      1252.28     66.14703     142.7822        16     1.862     1.218 -80.24   3
       346    284.9425    107.1017 307.8096334  +6.6342627      1011.73     2698.311     4316.455     93.77027     187.6898     375.4915      3.890     9.37      1257.83     66.14703     146.0526        20     2.258     1.086  28.13   2
       347    287.5454    104.5230 307.8086357  +6.6354164     979.7384     2539.661     4468.142     94.21716     187.6898     375.2677      4.023     7.84     1257.678     66.14703     158.7811        11     1.481     1.162  42.23   3
       348    673.7979     95.1985 307.6483074  +6.6521953     766.8254     1748.269     3131.237     93.32124     187.1669     374.8944      4.391     8.67     1231.856     66.14703     114.1824        11     1.576     1.332 -65.32   2
       349    669.2927     96.7391 307.6501306  +6.6514077     891.3882     2318.328     4242.964     93.91946     187.6898     375.3796      2.968     5.35     1231.972     66.14703     119.3666        10     1.395     0.578  37.81   2
       350    411.7096     88.3287 307.7575312  +6.6462734      1342.67     2839.985     4101.237     93.91946     187.9879     375.2677      2.473     8.08     1239.029     66.14703     178.1954        20     1.959     0.931  14.51   3
       351    413.0119     84.3290 307.7571209  +6.6479711     1152.029     2786.586     3955.266     93.47116     187.3164     375.0437      2.738     7.87     1239.206     66.14703     133.8529        18     1.943     0.892  14.78   3
       352    884.2186     81.7320 307.5612341  +6.6647827     1709.591     4546.941     5174.618     93.62083     187.6152      375.193      2.739     8.38     1227.771     66.14703     202.7515        37     2.125     1.460  79.75   2
       353    865.9074     82.0595 307.5688391  +6.6640372     827.1808     1893.011     2400.257     93.91946     187.6152     375.4169      2.811     6.02     1228.087     66.14703     102.9078        10     1.150     0.885  67.95   0
       354    122.3073     75.4529 307.8783084  +6.6418942     831.6292     3047.234     5357.638     93.91946     187.6152     375.5287      3.679     8.29     1263.909     66.14703     117.2832        16     1.849     1.039 -80.31   2
       355      4.6352     74.9924 307.9272585  +6.6381307     3613.394     8031.912     10075.64     93.47116     187.4659     338.2177      2.404     7.44     1270.346     66.14703      402.618        42     2.379     1.210  31.77  19
       356      8.7717     73.2912 307.9255944  +6.6389733     2651.538     3689.014     4681.395     94.21715     187.3912     375.1184      1.655     4.35     1269.959     66.14703     394.9907        14     1.336     0.728 -74.02  19
       357      5.9937     71.0578 307.9268233  +6.6398035      3549.35     7075.242     9375.776     93.47116     187.5405     355.7308      2.263     6.72     1269.998     66.14703      386.761        29     1.977     1.031  26.51  19
       358    806.9926     67.0134 307.5938339  +6.6682959     2212.741     6818.076     8774.397     93.62083     187.4659     375.1184      2.927     9.02     1228.079     66.14703     248.9695        54     2.190     1.808  40.05   0
       359    751.3499     69.1001 307.6169077  +6.6655771      1155.17     3023.194     4641.658     94.06843     187.6898     375.4542      3.475     8.19     1229.684     66.14703     162.6879        17     1.742     1.076  30.13   2
       360     48.3464     64.9929 307.9094104  +6.6437353     891.8146      2491.17     4245.145     93.47116     187.4659     374.9317      3.539     9.82     1267.087     66.14703     120.7487        18     2.300     1.168 -65.22   2
       361    746.3159     56.5662 307.6194114  +6.6705927     756.5084     1942.781     3609.646     94.06843     187.5405     375.2303      4.131     5.36     1228.982     66.14703     136.2192         8     1.684     0.482  47.47   2
       362     73.0448     51.4459 307.8995855  +6.6501675      2670.66      5202.82     6566.641     94.06843     187.6898      375.193      2.151     7.10     1264.807     66.14703     317.6451        25     1.942     0.893  29.68   3
       363     74.8027     48.1635 307.8989626  +6.6515840     2699.813     6997.252     9986.766     93.02069     187.4659     375.0437      3.069     9.87     1264.525     66.14703     306.2351        45     2.609     1.218  32.43   3
       364    404.6422     49.3574 307.7617497  +6.6621536     732.5632     1996.241     3366.653     93.77027     187.6898     375.1184      3.324     5.81      1243.36     66.14703     122.3286         8     1.387     0.685  45.07   0
       365    616.1294     40.6522 307.6740779  +6.6728274     5448.956      18873.7     27203.17     93.91946     187.6152     375.2677      3.224     8.32     1231.373     66.14703     633.9186        93     2.540     2.187  29.19   0
       366    515.2675     38.6101 307.7160936  +6.6703003     1683.601     3886.588     6469.027     93.47116     187.4659     375.1184      3.707    10.55      1233.81     66.14703     217.4746        28     2.457     1.263  61.01   2
       367    519.3829     37.8168 307.7144080  +6.6707660     1200.036      2371.56     4374.051     93.77027     187.3164      375.193      3.864     7.60     1233.508     66.14703     130.3622        17     1.741     0.929  73.53   3
       368    421.0209     34.7878 307.7554161  +6.6687273     6379.124     13408.22     16991.79     93.62083     187.3164     375.1557      2.393     7.37     1242.762     66.14703     679.3214        49     2.611     1.147  34.12   3
       369    423.1622     31.6308 307.7546292  +6.6701046     5832.802     15937.73      21574.6     93.62083     187.3912     375.0811      2.866    10.58     1242.818     66.14703     593.0735        57     2.979     1.294  33.21   3
       370    241.5761     34.9090 307.8300416  +6.6626639     2753.234     6169.865     10648.42     94.06843     187.4659     375.0811      4.147     9.24     1260.884     66.14703     294.7427        38     2.457     1.235  14.22   3
       371    245.4877     33.0092 307.8284773  +6.6635808      1704.15     2839.756     2549.906     93.62083     187.3164     375.0064      1.607     4.32      1260.79     66.14703     234.5366        11     1.199     0.628 -66.32   3
       372    242.5861     31.1616 307.8297448  +6.6642475     2440.417     5395.485      7506.86     93.62083     187.4659     374.9317      2.762     7.25     1260.874     66.14703     264.6078        31     1.996     1.156  21.28   3
       373    898.9106     32.9733 307.5567162  +6.6854372     917.0894     2280.256     2696.716     94.21715     187.3912     375.1184      2.629     6.30     1224.534     66.14703     133.5121        11     1.298     0.859 -89.76   0
       374    601.4525     32.1125 307.6804618  +6.6758687     1289.215     3256.599     5690.847     94.06843     187.5405     375.4169      3.834     7.03      1231.37     66.14703     181.6763        18     1.791     1.008  43.02   2
       375    231.0350     32.2762 307.8345121  +6.6633991     961.7205     2467.602     6556.969     93.91946     187.7644     375.2677      6.198     8.53      1261.29     66.14703     134.1422        13     1.933     1.050  39.89   3
       376      7.5071     30.8735 307.9275184  +6.6564723     789.4305     1734.177     2713.293     93.91946     187.8389     370.4233      3.215     6.82     1267.027     66.14703     97.14612        10     1.438     0.908  32.53  16
       377    938.1042   1010.3466 307.5085282  +6.2825236     4637.221     9266.968     10332.08     93.91946     187.6898      375.566      2.210     4.57     1292.483     66.14703     577.4105        48     1.883     1.458  22.24   0
       378    697.9562   1008.1321 307.6084042  +6.2754376     1555.111     3539.908     5403.708     94.06843     187.6152      375.305      3.198     9.33      1292.81     66.14703     160.5094        27     1.812     1.341 -13.68   2
       379    224.8324   1011.5563 307.8049101  +6.2582015     476.1045     1357.924     2158.814     93.62083     187.6152     375.1184      3.186     4.12      1293.86     66.14703     112.5889         5     1.436     0.338  42.75   2
       380    713.3196   1008.0683 307.6020214  +6.2759765     626.0019     1209.228     1105.945     94.21715     187.9879     375.2303      2.044     5.14     1292.435     66.14703     119.6133         5     0.947     0.796  -5.18   0
       381    344.8191   1006.0858 307.7552274  +6.2644828     1098.225     2671.357      3574.56     93.62083     187.3912     375.1557      2.680     6.76     1293.991     66.14703     142.9908        14     1.268     1.165 -31.94   0
       382    277.1680    995.3953 307.7836919  +6.2666387     7165.197     18810.11     24437.19     93.32124     187.5405     375.0064      2.789     6.35     1293.847     66.14703     809.0748        82     2.246     1.928  19.39   0
       383    527.1295    996.0909 307.6797911  +6.2747139     2106.368     5207.356      6749.41     93.91946     187.9135     375.2677      2.598     6.99     1293.645     66.14703     240.3889        34     1.742     1.442  39.50   3
       384    524.2568    988.8333 307.6812225  +6.2776195     4117.609     10911.92     14609.77     93.91946     187.6898     375.2677      2.848     6.68     1293.466     66.14703     490.5654        60     2.146     1.780  36.59   3
       385    731.3754    995.6729 307.5949226  +6.2817051     4521.792     10588.16     12869.83     93.62083     187.5405      375.193      2.478     5.69      1291.61     66.14703      511.215        51     1.983     1.562  20.29   0
