#   1 NUMBER                 Running object number                                     
#   2 X_IMAGE                Object position along x                                    [pixel]
#   3 Y_IMAGE                Object position along y                                    [pixel]
#   4 ALPHA_J2000            Right ascension of barycenter (J2000)                      [deg]
#   5 DELTA_J2000            Declination of barycenter (J2000)                          [deg]
#   6 FLUX_APER              Flux vector within fixed circular aperture(s)              [count]
#   9 FLUXERR_APER           RMS error vector for aperture flux(es)                     [count]
#  12 FLUX_RADIUS            Fraction-of-light radii                                    [pixel]
#  13 FWHM_IMAGE             FWHM assuming a gaussian core                              [pixel]
#  14 BACKGROUND             Background at centroid position                            [count]
#  15 THRESHOLD              Detection threshold above background                       [count]
#  16 FLUX_MAX               Peak flux above background                                 [count]
#  17 ISOAREA_IMAGE          Isophotal area above Analysis threshold                    [pixel**2]
#  18 A_IMAGE                Profile RMS along major axis                               [pixel]
#  19 B_IMAGE                Profile RMS along minor axis                               [pixel]
#  20 THETA_IMAGE            Position angle (CCW/x)                                     [deg]
#  21 FLAGS                  Extraction flags                                          
         1    215.9484     36.8945 307.8487133  +6.6876094     1026.326     1535.207      1013.19      81.5631     162.9319     326.1553      1.538     5.88     922.8489      57.4445     136.3045        15     1.389     0.777  48.89   0
         2    752.4751     18.0101 307.6263916  +6.7134144     4935.896     7628.716     8213.916     81.30376     162.6075     325.7017      1.623     4.45     898.0099      57.4445     843.4672        26     1.492     0.907  42.63   0
         3    239.4845     13.0188 307.8397450  +6.6982550     10461.49     16890.97     17499.83     81.30376     162.6724     325.8638      1.725     4.40     922.1587      57.4445     1460.776        40     1.643     1.036  49.83   0
         4     14.4953     10.8290 307.9333132  +6.6915776     18913.48     30034.07     31171.56     81.82162     162.7373     325.8638      1.731     4.44     924.8083      57.4445     2704.663        48     1.684     1.043  51.59  16
         5    900.6333     10.4928 307.5650729  +6.7214728     728.3507     1174.846     1825.125     81.82162     162.8671      325.961      1.964     4.66     894.7899      57.4445     112.2263         8     1.258     0.490  44.77   0
         6    755.9604      9.6106 307.6252274  +6.7169976     1567.414      2398.28     2772.845     81.04358     162.8022     325.6368      1.583     4.66     897.5714      57.4445     232.9042        15     1.436     0.677  43.13  16
         7    332.4879      8.1517 307.8012620  +6.7033923      1264.51     2214.218     2656.948     81.69246     162.8671     325.0526      1.902     6.23     917.5978      57.4445     179.5049        15     1.577     0.693  52.26  16
         8    490.5591      2.9322 307.7357497  +6.7108569     8366.604      12631.4     12745.13      81.5631     151.2351     270.7483      1.619     4.41     902.9684      57.4445     1287.229        32     1.494     0.995  45.48  24
         9    461.4093   1012.1426 307.7136423  +6.2933661     1198.557     1836.003     1952.236     81.04359     162.9319     325.6044      1.612     4.14        943.2      57.4445     191.8478        13     1.291     0.749  48.09   0
        10    943.5957   1023.6964 307.5130244  +6.3047363      1747.53     2165.214     2522.365     70.29855     128.6757      244.387      1.191     2.56     930.7685      57.4445     425.4139         9     1.068     0.454   4.25  24
        11     20.0678   1011.0670 307.8969346  +6.2789716     2178.664     3596.867     3732.169     81.69246     163.0614     325.9286      1.760     4.59     945.8661      57.4445     341.0284        22     1.515     0.893  55.73   0
        12    870.7543   1009.8783 307.5437386  +6.3080063     874.8595     1425.539     1588.118      81.5631     162.9967     325.8961      1.684     5.14     933.5884      57.4445      118.835        10     1.454     0.514  45.78   0
        13    942.1863   1007.7923 307.5141460  +6.3112533     723.5414      1145.91     1140.648     81.30376     162.7373     325.7341      1.837     5.30     930.4708      57.4445     95.81055         8     1.211     0.655  70.76   0
        14    563.7199   1006.1363 307.6713620  +6.2992757     1690.527     2575.774     1891.761     81.95058     163.0614     325.8638      1.646     4.76     942.0991      57.4445     233.6335        13     1.340     0.635  53.74   0
        15    995.7975   1006.1833 307.4919374  +6.3137070     824.0031     1494.773     1768.548     81.30376     162.5426     325.7017      2.130     4.84     930.9812      57.4445     147.7491         7     0.986     0.672 -85.91   0
        16    603.2526   1002.7527 307.6550607  +6.3019969     1127.125      1666.82     1622.056     81.82162     162.9319     325.9286      1.554     4.68      940.624      57.4445     184.1876        15     1.356     0.837  47.35   0
        17     52.8449   1002.8967 307.8836032  +6.2834476     735.2439     1188.447     1408.738     81.69246     162.8671     326.0581      1.951     5.28     945.6957      57.4445     115.3125         8     1.212     0.650  47.62   0
        18    282.6711   1000.1960 307.7882658  +6.2922948     1485.989     2494.802     3291.968     81.17377     162.6075     325.7341      2.071     5.39     944.9025      57.4445     269.2147        15     1.441     0.780  39.80   0
        19    749.9850    996.5031 307.5943407  +6.3094887     823.6355     1092.371     1406.722      81.5631     162.7373     325.6693      1.472     5.31     936.6308      57.4445     119.5033         9     1.336     0.596  43.65   0
        20    887.3417    992.8593 307.5374247  +6.3155847     6425.826     10891.94     11038.25     81.69246     162.9319     325.9286      1.824     4.41      932.454      57.4445     872.0385        35     1.642     1.064  48.48   0
        21    125.2698    994.4896 307.8538170  +6.2893559     620.7234     866.1276      505.679     81.69246     163.2556     325.8961      1.277     3.27      945.073      57.4445     100.3582         5     0.738     0.448 -22.25   0
        22     97.4870    992.1566 307.8654323  +6.2893834     485.6882     605.3442     598.3192     81.69246     162.8671     325.9286      1.378     4.65     945.4612      57.4445     72.04694         6     1.013     0.605  22.89   0
        23    423.1947    989.8673 307.7302655  +6.3012771     2054.443     3344.596     2899.145     81.17377     162.6075     325.7017      1.727     4.36      943.021      57.4445     329.5126        21     1.524     0.844  57.16   0
        24    324.8570    988.3743 307.7711500  +6.2985913     9568.385     15026.24      15717.6     81.30376     162.9967     325.7341      1.668     4.27     944.8442      57.4445     1367.422        34     1.532     0.987  51.24   0
        25    244.9937    987.2516 307.8043502  +6.2963706     6912.947     11037.73     12045.03     81.17377     162.8022     325.5396      1.681     4.19      944.627      57.4445      1058.97        34     1.567     1.024  50.67   0
        26    163.5443    986.0413 307.8382116  +6.2941306     549.3472     838.4004     777.2722      81.5631     162.9319     325.9286      1.466     4.80      944.519      57.4445     85.42657         5     1.061     0.616 -13.71   0
        27    757.5036    981.8376 307.5917140  +6.3157930     783.4683     1183.743      1997.02     81.69246     162.8671     326.0581      2.275     6.10     936.0455      57.4445     122.2537        10     1.606     0.887  57.99   0
        28    573.1984    981.9201 307.6682457  +6.3095879     1077.352     1566.639     979.5254     80.91319     162.4126     325.6693      1.633     4.92      941.103      57.4445     206.0576        11     1.448     0.569  35.38   0
        29    135.6441    977.7687 307.8500776  +6.2966059     601.8422     786.2113     663.4991     81.30376     163.0614     325.7665      1.536     4.42     944.7705      57.4445     92.59973         6     1.160     0.478  42.84   0
        30    859.4581    976.6648 307.5495504  +6.3213369     648.9969     977.8049      1107.16     81.82162     162.9319     325.9286      1.746     5.41     933.4444      57.4445     91.96753         9     1.436     0.575  34.55   0
        31    739.4463    970.9735 307.5995797  +6.3196727     1639.738     2613.826     2709.632     81.30376     163.0614      325.799      1.651     4.56     936.3901      57.4445     273.1679        13     1.286     0.683  52.49   0
        32    903.2155    978.4033 307.5313205  +6.3220814     968.5865     1698.393     1892.522     81.30376     162.6075     325.7341      2.002     6.70     931.4484      57.4445     122.5876        14     1.537     0.820  37.63   0
        33    970.8105    967.1295 307.5036302  +6.3289916     1080.012     1786.957     2741.547     81.17377     162.6724     325.7341      2.312     5.52      929.249      57.4445     154.3836        16     1.546     0.829  59.47   0
        34    340.0710    968.2932 307.7655137  +6.3073900     525.4704     870.8858     732.4095      81.5631     163.0614     325.9286      1.695     4.25     944.5649      57.4445     104.7193         6     1.097     0.468  67.54   0
        35    603.8653    967.4766 307.6559999  +6.3165765     839.7593     1297.459     1205.161     81.82162     162.9967     325.8638      1.733     5.66     939.6933      57.4445     117.7661        11     1.088     0.830  50.49   0
        36    524.4911    966.6608 307.6889883  +6.3142529     1214.715     1729.727     1822.845      81.5631     163.0614      325.961      1.736     5.44      941.879      57.4445      209.545        15     1.455     0.762  61.90   0
        37    657.9208    964.2114 307.6336630  +6.3197347      2337.29      3813.74     4123.359     81.30376     162.6724     325.7341      1.730     4.76     937.9532      57.4445     333.6899        20     1.496     0.851  56.78   0
        38    947.9811    962.5110 307.5132665  +6.3301356     553.6487     1065.232     1413.509     81.43353     162.7373      325.799      2.249     5.42     929.6293      57.4445     75.05511         7     1.497     0.553  31.26   0
        39     72.1167    959.8260 307.8770662  +6.3018721     2093.032     3388.124     3646.745     81.69246     162.7373     325.8314      1.683     4.35     944.7792      57.4445     304.1299        19     1.474     0.884  64.13   0
        40     54.6074    960.3593 307.8843184  +6.3010622      2801.99     4514.924     4817.112     81.04359     162.7373      325.572      1.757     4.52     944.7792      57.4445     410.6743        22     1.516     0.913  66.07   0
        41    818.9264    960.4416 307.5669297  +6.3266778     739.6102     1202.667     765.7286      81.5631     163.0614     325.9286      1.880     5.61     934.0583      57.4445     137.3046        10     1.442     0.614  45.26   0
        42    198.1418    959.3757 307.8247515  +6.3062996      2217.92     3498.578     3355.214     81.30376     162.9967     325.7665      1.705     4.13      944.519      57.4445     356.8271        21     1.501     0.851  46.27   0
        43    936.3690    959.8153 307.5181797  +6.3308604     611.3303     1027.158     1016.565     81.30376     162.7373     325.8314      1.753     3.41     929.8741      57.4445     85.91516         5     0.752     0.447 -72.45   0
        44    337.4627    955.4868 307.7670313  +6.3125878     904.1731     1250.269     1123.365     81.82162     163.1909     325.9286      1.566     5.13     944.4071      57.4445     122.6088         9     1.168     0.638  37.12   0
        45    232.5151    956.3661 307.8105805  +6.3086977     767.3434     1087.293     398.1688     81.69247     162.8671     325.8638      1.469     4.11     944.5391      57.4445     153.3771         6     1.052     0.458  37.97   0
        46    790.7806    954.9265 307.5788042  +6.3280129     628.8983     1245.884     1041.455     81.30376     162.9319     325.8314      1.828     3.45     934.6782      57.4445      94.6842         5     0.759     0.459  74.30   2
        47    652.5408    953.4482 307.6362612  +6.3239968     6998.616     10861.26     11056.03     81.69247     162.9967      325.961      1.710     4.69     937.9175      57.4445     1104.626        30     1.575     0.913  49.00   0
        48    890.4087    949.8348 307.5376028  +6.3334445     2609.213      4101.71     4236.387     81.17377     162.8022     325.7017      1.714     3.88     931.7242      57.4445     425.2826        23     1.533     0.885  52.70   0
        49     12.4607    951.7206 307.9021128  +6.3032075     1291.697     2125.276     1843.291     81.82162     162.9967     325.8961      1.755     5.44     944.6087      57.4445     185.4564        12     1.234     0.676  47.50   0
        50    442.2864    950.8646 307.7236596  +6.3180148     616.0555     1023.672     1156.202     81.69246     163.1909     325.9286      1.664     4.16      942.683      57.4445     105.1812         6     1.416     0.349  44.98   0
        51     25.6174    950.2477 307.8966999  +6.3042587     1021.117     1464.459     1585.447     81.17377     162.9319     325.6693      1.575     5.40     944.5661      57.4445     181.0145        10     1.326     0.696  47.18   0
        52    335.5368    946.5488 307.7681342  +6.3162119     16223.29     24952.03     26276.97     81.69247     162.9319     325.8638      1.702     4.44       944.31      57.4445     2566.491        41     1.635     0.978  51.09   0
        53     70.1454    947.4851 307.8783045  +6.3068988     1324.578     2192.165     2215.795     81.69246     162.9967     326.0581      1.679     4.68     944.5021      57.4445     229.5651        16     1.439     0.827  59.70   0
        54    206.3478    946.1638 307.8217929  +6.3120283     1147.235     2009.373     1943.832      81.5631     162.9967     325.9286      1.884     5.25      944.519      57.4445     157.9149        14     1.252     0.867  46.30   0
        55    413.4926    937.9539 307.7360541  +6.3223769     949.0615     1419.176     1359.185     81.69246     162.9319     326.0258      1.603     5.89      943.022      57.4445     142.5386        13     1.533     0.638  58.13   0
        56    665.1926    938.7502 307.6315043  +6.3304866     560.4681      1113.29     1616.512     81.17377     162.7373     325.5396      1.683     3.45     937.3558      57.4445     91.70624         5     0.977     0.351  44.40   0
        57     99.0174    937.1538 307.8666671  +6.3121348     1753.973     2537.624     2407.842     81.17377     162.8671     325.6368      1.532     4.08     944.2962      57.4445     295.0533        16     1.338     0.799  56.64   0
        58    494.0129    934.5656 307.7027318  +6.3264770     657.2277     1021.187     1081.569     81.17377     162.8022     325.7665      1.657     4.28     941.6812      57.4445     105.0217         6     1.029     0.626  51.89   0
        59    666.8877    933.8578 307.6309659  +6.3325626     754.0152      1504.71     1878.746     81.69246     162.9319     326.0258      1.999     4.96     937.2275      57.4445     140.8843         7     1.350     0.515  45.66   0
        60    880.6969    931.3568 307.5422594  +6.3407463     1829.822     2638.262     2345.965     81.69246     162.9319     326.0581      1.602     3.91     931.8365      57.4445     295.3972        17     1.379     0.772  53.75   0
        61    851.3825    931.0463 307.5544437  +6.3398949     1961.881     3087.781     2911.472     81.17377     162.8671     325.6368      1.694     4.11     932.8652      57.4445     340.7248        19     1.539     0.857  56.78   0
        62    814.8089    930.3180 307.5696568  +6.3389729     2947.862     4696.414      5228.54     81.30376     162.6075     325.7341      1.683     4.56     933.8315      57.4445      415.437        22     1.584     0.822  46.64   0
        63     82.4860    930.8135 307.8737472  +6.3141948     2476.056     3638.882     3948.823     81.30376     162.8022      325.799      1.586     4.48     944.1611      57.4445     395.7151        19     1.437     0.796  56.77   0
        64    330.2796    928.5661 307.7709275  +6.3234569     815.6984     1182.962     1511.116      81.5631     162.9967     325.9286      1.569     5.91     944.1351      57.4445      146.649        11     1.515     0.648  60.13   0
        65    550.6763    921.8082 307.6796332  +6.3336422     332161.9     517762.2     542646.6     81.30376     162.4776     325.6693      1.682     5.04     940.0372      57.4445     49656.48       161     1.794     1.200  52.56   4
        66    638.4095    924.9474 307.6430936  +6.3352864     949.9762      1548.86     1205.443     81.04358     162.8671     325.6368      1.755     5.36     937.7746      57.4445     168.8096        13     1.494     0.656  68.53   0
        67    394.9117    924.4037 307.7442294  +6.3273454     7608.537     11853.31     12259.43     81.17377     162.6724      325.572      1.662     4.29     943.1235      57.4445     1116.359        27     1.524     0.879  51.15   0
        68    338.1063    922.7802 307.7678736  +6.3261078     12493.79     19384.22      20731.2      81.5631     162.8022     325.7341      1.658     4.23     943.9166      57.4445     1878.658        38     1.586     0.990  54.26   0
        69    889.1310    918.0304 307.5392065  +6.3465283     5003.628     8167.506     9211.561      81.5631     162.9967     325.8638      1.709     4.26     931.2299      57.4445     699.6013        31     1.624     0.966  53.32   0
        70    656.5237    919.1006 307.6357689  +6.3383061     3521.637     5314.099     5478.966     81.17377     163.1262     325.8961      1.660     4.36     937.1461      57.4445     546.3405        24     1.501     0.897  50.84   0
        71    728.3126    915.5334 307.6060768  +6.3421815     768.0867     1289.151     1514.055     81.69246     163.1909     325.9286      2.183     6.07     935.3663      57.4445     129.4332        10     1.460     0.709  76.64   0
        72    631.4409    913.2159 307.6463843  +6.3398948     3188.761      4955.58     5674.937     81.17377     162.7373     325.6693      1.744     4.22     937.6279      57.4445     512.0151        27     1.656     0.894  54.09   0
        73   1022.3541    912.1341 307.4840786  +6.3534100     4381.152     6838.385     7256.953     81.69246     147.9884     266.5821      1.679     4.23     924.9263      57.4445     622.6835        26     1.468     0.993  58.10  24
        74    819.9193    912.4428 307.5681381  +6.3465213     1610.527     2638.346     2766.215     81.69246     162.9967     325.8638      1.672     4.76     933.2222      57.4445     252.7267        17     1.537     0.734  54.63   0
        75    621.8487    912.1270 307.6504046  +6.3400229     1030.058     1545.218     2027.151     81.69246     163.0614     325.9286      1.679     4.89      937.821      57.4445     164.8387        10     1.301     0.596  43.31   0
        76    947.1185    911.4402 307.5153471  +6.3511851     773.8427     1260.699     1210.402     81.69246     163.0614     325.8314      1.752     6.23     928.6577      57.4445     140.4534         8     1.187     1.062   9.01   0
        77    624.3264    907.7850 307.6495226  +6.3418979     2056.252     3287.653     4353.894     81.17377     162.7373      325.799      1.812     4.12     937.6639      57.4445     338.2582        18     1.484     0.730  49.81   0
        78    907.8856    905.7903 307.5318309  +6.3522066     2985.247     4821.156     4243.203     81.30376     162.6724     325.7341      1.704     4.55     930.2473      57.4445     418.8568        23     1.614     0.856  50.49   0
        79    317.9367    906.5735 307.7767992  +6.3321188     927.8948      1453.02      1357.29     81.30376     162.9967     325.8314      1.607     5.49     943.8516      57.4445     142.7373        10     1.275     0.667  54.72   0
        80    365.9739    901.6396 307.7570184  +6.3357688      2703.26     4317.387     4934.424     81.30376     162.8022     325.7341      1.772     4.37     942.9359      57.4445     402.9061        24     1.471     0.996  37.60   0
        81    334.6039    894.2507 307.7702960  +6.3377646     490.2318     816.3947     1028.617     81.04359     162.7373     325.4747      1.619     3.52     943.2813      57.4445     100.3279         5     1.255     0.285  36.43   0
        82    502.1841    891.4658 307.7007985  +6.3445391     3043.998     4614.731     5090.046     81.17377     162.8671      325.799      1.645     4.14     940.4498      57.4445     533.9462        21     1.500     0.829  44.75   0
        83    847.0724    890.7663 307.5575935  +6.3563754     1171.481     1745.662     1653.847      81.5631     162.9319     325.8638      1.547     4.22     931.9272      57.4445     160.0321        13     1.182     0.792  28.93   0
        84    549.1755    887.6754 307.6814121  +6.3476792     6063.487     9547.657     10946.09     81.30376     162.8022     325.8638      1.727     4.25     939.1416      57.4445     946.6773        31     1.555     0.976  57.13   0
        85    260.7829    887.9198 307.8011665  +6.3378965     693.7977     958.2854     851.1664     81.30376     162.6724      325.799      1.586     5.40     944.1351      57.4445     107.8467        10     1.429     0.576  57.64   0
        86    556.1614    887.2042 307.6785270  +6.3481078     1191.029     1876.511     2634.087     80.78257     162.7373     325.6368      1.712     4.14     938.9193      57.4445     170.3019        13     1.282     0.787  42.22   0
        87    466.8971    886.6343 307.7156162  +6.3453494     1652.216     2484.136     2445.068     81.69246     162.8671     326.0581      1.595     4.26     941.0575      57.4445     259.1417        17     1.261     0.913  40.83   0
        88    884.7115    885.7693 307.5421306  +6.3596956     1387.859     2079.427     1663.355     81.82162     162.8022     325.8314      1.605     6.03     930.6245      57.4445     183.1527        16     1.439     0.773  54.18   0
        89    108.7323    885.8754 307.8643768  +6.3336247      1335.89     2006.802     1907.217     81.82162     163.1262     325.8961      1.631     5.65     943.7364      57.4445     206.3586        16     1.517     0.766  45.56   0
        90    685.3245    884.7389 307.6249703  +6.3534523     775.8484     1180.502      791.459     81.95058     162.9967     325.8961      1.537     5.05     935.6487      57.4445     119.0783         9     1.223     0.677  59.04   0
        91    519.7985    881.5109 307.6938207  +6.3492384     19611.26     30440.31     31503.83     80.91319     162.6075     325.6693      1.670     4.30     939.7501      57.4445     2955.192        46     1.611     1.016  48.08   0
        92    360.8860    883.4942 307.7597467  +6.3430867      656.623     997.0723     1108.853     81.69246     163.3849      325.961      1.693     4.55     942.4718      57.4445     116.8759         6     1.282     0.458  59.12   0
        93    933.5059    879.7286 307.5220699  +6.3638187     3618.446     5736.916     5455.193      81.5631     163.0614     325.8961      1.693     4.40     928.7498      57.4445     543.3165        26     1.582     0.883  51.96   0
        94    406.2003    877.5752 307.7411294  +6.3470512     555.1708     916.2336     1323.561     81.30376     162.6724     325.7017      1.749     3.28      941.524      57.4445     105.7784         5     0.814     0.673  63.59   0
        95     30.3407    871.9850 307.8974019  +6.3367169     1432.622     2144.399     1755.374     81.04358     162.9967     325.6368      1.465     4.34     943.1823      57.4445       251.01        13     1.341     0.621  39.16   0
        96    312.4318    870.2673 307.7803174  +6.3469179     3495.367     5165.132     5113.563      81.5631     162.9967     325.8638      1.644     4.12     943.3473      57.4445     619.6879        26     1.562     0.902  50.44   0
        97    777.9492    866.0724 307.5871344  +6.3642559     53970.16     84592.69     88355.27     81.69246     162.9967     325.9286      1.647     4.30     933.1042      57.4445     8107.502        72     1.701     1.076  50.84   0
        98     12.5044    868.2325 307.9049362  +6.3376645     2335.717     3669.074     3929.056     81.82162     162.8671     325.9933      1.718     4.32     943.0248      57.4445     385.4588        24     1.510     0.999  38.17   0
        99    234.6413    842.3610 307.8135696  +6.3558201     753145.4      1744394      1927846     81.43353     163.0614     325.7665      2.304     6.98     943.0729      57.4445     64303.46       562     2.746     2.007  72.39   4
       100    903.2276    861.3077 307.5352662  +6.3704102     8002.242     13093.42     13428.75     81.82162     162.7373     325.7665      1.743     4.29     929.3956      57.4445     1291.092        38     1.677     1.004  50.76   0
       101    706.2004    860.6547 307.6171149  +6.3640912     21037.39     33979.53     36609.19     80.91319     162.6724     325.5396      1.728     4.31     934.6713      57.4445     3560.837        47     1.724     1.001  51.88   3
       102    699.8834    857.1597 307.6198566  +6.3653222     87055.19       136425     143911.3     81.69246     162.9319     325.8638      1.669     4.35     934.6804      57.4445     13686.66        82     1.705     1.098  54.04   3
       103    523.7805    861.9509 307.6928295  +6.3574446     549.8403     650.7495     760.9633     81.17377     163.0614     325.7341      1.419     4.58     939.0831      57.4445     82.36041         5     0.957     0.623  57.07   0
       104    344.7603    857.9587 307.7673097  +6.3530839     20255.32     31954.93     33446.78     81.43353     163.0614     325.7665      1.662     4.25      942.183      57.4445     2908.637        48     1.641     1.038  50.13   0
       105    406.6602    855.8345 307.7416756  +6.3560393     22064.59     34203.73     35844.43      81.5631     162.9967     325.8638      1.661     4.54     940.8317      57.4445     3309.235        47     1.625     1.013  50.76   0
       106    393.9711    857.9758 307.7468726  +6.3547296     1319.724     2061.795     2257.665     81.17377     162.8671     325.7017      1.593     5.61     941.1517      57.4445     219.4811        15     1.612     0.639  48.21   0
       107    633.3141    857.3589 307.6474961  +6.3630109      718.261     1110.103     770.5391     81.69246     162.9319     325.8961      1.573     4.82     936.0153      57.4445     136.0244         9     1.303     0.685  33.48   0
       108    943.8757    854.7757 307.5186050  +6.3744638     1986.152     3373.249     3824.705     81.30376     162.8671     325.8638      1.872     4.56     927.5796      57.4445     305.3676        21     1.538     0.909  50.72   0
       109    900.1454    852.7958 307.5368336  +6.3738203     6601.614     10806.91     11597.84     81.04358     162.8022      325.572      1.720     4.10     929.1748      57.4445     997.7064        32     1.617     0.975  53.22   1
       110    873.3531    854.0276 307.5479192  +6.3724167     654.9724     830.8107     813.7126     81.30376     163.0614      325.799      1.416     4.48     930.1439      57.4445     101.1052         6     0.905     0.631  49.23   0
       111    640.6953    851.7952 307.6446190  +6.3655543     6196.981     9740.979     10333.13     81.43353     162.6724     325.6693      1.686     4.55     935.6915      57.4445     932.9617        31     1.586     0.948  48.77   0
       112    429.5436    849.7626 307.7323783  +6.3593134      1581.75     2576.194     2905.098     81.69246     163.0614     325.9286      1.716     4.57     940.3153      57.4445     265.4052        17     1.390     0.854  54.05   0
       113    155.3545    850.2292 307.8462281  +6.3499054     730.0986     1197.056     930.1068     81.30376     163.0614     325.7665      1.754     4.38     943.4279      57.4445     124.4111         7     1.042     0.691  74.49   2
       114   1023.4548    844.8738 307.4858883  +6.3812070     446.0266     682.0991     1080.881     73.81562      132.795     248.7128      1.547     4.20     924.0736      57.4445     99.17755         5     0.958     0.525  41.52  24
       115    593.8048    844.0272 307.6643555  +6.3671894      949.937     1318.962     1576.473     81.17377     162.8022     325.7341      1.550     5.31     936.3747      57.4445     154.7832        10     1.316     0.605  47.87   0
       116    868.9666    843.8215 307.5500854  +6.3764824     761.5976     1292.965     1339.142     81.17377     162.8022     325.7017      1.589     4.58     929.9647      57.4445     119.2248         8     1.059     0.672  45.53   0
       117    675.7483    841.9395 307.6303946  +6.3707959     2432.548     3831.231     3313.258     81.69246     162.9319     325.8961      1.624     4.58     934.8115      57.4445     356.1393        21     1.523     0.833  48.77   0
       118    144.9837    842.9828 307.8507812  +6.3525470     786.7308     1410.248     1774.286     81.43353     162.6724     325.8314      1.830     5.22     943.2482      57.4445     167.9309         8     1.192     0.646  43.92   0
       119    120.2562    842.3801 307.8610703  +6.3519634     1090.153     1599.899      797.677     81.17377     162.9967     325.7017      1.471     4.37     943.1779      57.4445     210.0526        11     1.222     0.711  60.37   0
       120    952.7858    840.2834 307.5153932  +6.3807427     699.9895     1156.364     1446.763     81.30376     162.7373     325.7017      1.808     5.09     926.6769      57.4445     139.8945        10     1.219     0.732  36.32   0
       121    409.5875    838.4929 307.7410480  +6.3632947     53868.36     82740.35     86309.36     81.43353     162.7373     325.7017      1.704     4.25     940.2183      57.4445     8953.762        68     1.650     1.115  49.13   0
       122    527.3534    837.6019 307.6921704  +6.3676137     6967.534     10683.68      10940.4     81.04359     162.6724     325.4747      1.666     4.36     938.0889      57.4445     1226.645        28     1.504     0.913  47.66   0
       123    772.5762    834.2072 307.5904424  +6.3772277      11419.7     17709.79     18356.32     81.17377     162.8022     325.7341      1.668     4.19     932.3222      57.4445     1937.121        41     1.590     1.021  48.92   0
       124    444.1109    836.0916 307.7267920  +6.3654446     4438.042      6967.42     8061.715     81.69246     163.5141     325.9933      1.714     4.32     939.7089      57.4445     743.9958        23     1.464     0.889  44.64   1
       125    440.8661    829.6702 307.7283572  +6.3679859     2359.059     3743.543     4038.799     81.69246     163.0614     325.8961      1.737     4.19     939.5359      57.4445     360.1164        19     1.386     0.833  52.42   1
       126      2.4385    830.4377 307.9104028  +6.3529231     1157.944     1533.955     1507.869     81.43353     145.3244     263.2337      1.491     4.65     943.1403      57.4445     159.7821        13     1.130     0.903  -0.26  24
       127    794.5537    828.5869 307.5815047  +6.3802824     1220.047      1914.04     2009.991     81.04359     162.8022     325.6693      1.653     4.39     931.6427      57.4445     226.3707        14     1.398     0.699  55.70   0
       128    962.4244    828.5746 307.5117850  +6.3858970     571.3127       1024.7      1540.45     81.17377     162.8022     325.7665      1.799     4.17      926.048      57.4445     77.67242         5     1.010     0.491 -86.56   0
       129    138.4337    826.2492 307.8540701  +6.3592326     2946.866     4637.589     5021.341      81.5631     162.9967     325.8314      1.745     4.63     942.8931      57.4445     491.0924        24     1.566     0.878  51.97   0
       130    130.2677    826.1006 307.8574664  +6.3590190     11336.86     18076.72     19217.09     81.69246     163.1262     325.8638      1.714     4.23     942.8973      57.4445     1891.377        40     1.598     1.060  48.53   3
       131    122.6444    823.5206 307.8607198  +6.3598272     2769.562      4560.24     5581.074     81.69247     162.9967     325.8961      1.897     4.31     942.8655      57.4445     464.8708        24     1.598     0.867  42.58   3
       132    122.6861    817.2704 307.8609151  +6.3624080     1849.699     2991.533     3293.309     81.82162     163.2556     325.9286      1.729     4.30     942.7417      57.4445     270.0625        17     1.462     0.742  60.16   3
       133    918.1159    822.8062 307.5303820  +6.3867981     6129.725     9783.534     10188.94     81.30376     162.6724     325.7341      1.658     4.18     927.2143      57.4445     952.4326        33     1.615     0.957  45.43   0
       134    967.4887    822.7396 307.5098785  +6.3884744     1388.276     2110.347     2547.544      81.5631     163.1262     325.9286      1.633     4.13     925.7535      57.4445     265.8887        14     1.369     0.734  55.78   0
       135    673.6620    820.3290 307.6319920  +6.3796451     1810.449     2533.806     2529.992     81.82162     162.9967      325.961      1.540     4.11     934.3587      57.4445     340.4308        15     1.360     0.689  55.68   0
       136    560.6146    819.7026 307.6789630  +6.3761162     2427.699     3508.909     4280.535      81.5631     162.7373     325.6693      1.571     4.30     936.3895      57.4445     407.7037        17     1.283     0.873  45.89   0
       137    421.6746    864.8567 307.7351345  +6.3528197     811.5975     1372.727     1209.624      81.5631     162.8671     325.8638      1.739     6.23     940.8766      57.4445     114.2479        13     1.513     0.721  32.59   0
       138    408.4012    819.1838 307.7421954  +6.3712240     1206.547     1988.753     2333.288     81.30376     162.5426     325.6044      1.725     5.47     939.6923      57.4445     176.8231        13     1.474     0.796  59.34   0
       139    692.5457    817.9620 307.6242293  +6.3812543     571.7275     538.9276     219.8627     81.69246     163.0614     325.8961      0.951     3.88     933.8275      57.4445     105.2298         6     1.284     0.336  49.30   0
       140    941.8782    814.4660 307.5207943  +6.3910340     3088.125     4973.188      4633.61     81.82162     163.0614     325.8638      1.703     4.31      926.051      57.4445     428.7072        27     1.512     1.036  52.70   0
       141    972.6310    814.1396 307.5080328  +6.3921955      1866.49     3048.423     2940.328     81.43353     162.9967     325.8638      1.725     4.90     925.4112      57.4445      285.683        19     1.558     0.803  53.81   0
       142    912.4029    814.7948 307.5330250  +6.3899138     3030.449     4832.438      4846.51     81.04359     162.6724     325.7341      1.650     4.40     927.1259      57.4445     451.3956        22     1.531     0.822  49.48   0
       143    664.7269    814.3157 307.6359063  +6.3818278     1365.766     1968.787     1905.122     81.82162     163.3203     325.9286      1.580     5.22     934.2992      57.4445     207.5273        13     1.419     0.669  54.42   0
       144    811.9331    812.3507 307.5748351  +6.3875647     873.7985     1363.511     763.1521      81.5631     162.8671     325.8961      1.570     6.04     930.7181      57.4445     150.5214        12     1.606     0.639  49.16   0
       145    887.0310    810.1058 307.5437209  +6.3910014     916.5242     1471.851     2093.857     81.82162     162.8022     325.8961      1.597     4.82     928.0601      57.4445     133.3643         9     1.149     0.576  62.43   0
       146    237.1080    808.9432 307.8136803  +6.3696948     1827.069      3027.95     5143.648      81.5631     162.9319     325.9933      2.266     4.84     941.8578      57.4445     308.6311        19     1.593     0.744  43.94   0
       147    930.1724    804.6212 307.5259881  +6.3947063     1065.618     1844.579     2344.967     81.17377     162.8022     325.8638      1.971     4.91     925.8773      57.4445     170.3409        10     1.341     0.509  63.29   0
       148    674.4641    806.1700 307.6321377  +6.3855157      674.016     1313.488     1504.813     81.43353     163.0614     325.8314      1.438     3.41     934.0425      57.4445     100.7431         5     1.237     0.271  36.71   0
       149    257.4787    804.2646 307.8053794  +6.3723107     656.6783     1124.058     1114.011     81.95058     163.0614     325.8638      1.904     5.91     941.6738      57.4445     123.1775         8     1.639     0.599  51.17   0
       150    956.6656    802.1561 307.5150678  +6.3966084     2406.878     3774.656     4279.045     81.69246     162.9319     325.9286      1.669     4.24     925.3771      57.4445     363.6022        17     1.454     0.731  48.18   0
       151    903.9017    803.3576 307.5369418  +6.3943502      1201.03     1930.633     1979.891     81.69246     162.8671     326.1229      1.603     5.23     926.9926      57.4445     182.4384        11     1.220     0.632  52.24   0
       152    152.6825    803.8251 307.8489152  +6.3689667     777.0946     1107.422     1146.353     81.43353     162.7373     325.8961      1.719     4.78     942.3942      57.4445     110.6918         8     1.215     0.532  43.61   0
       153    676.4109    801.3030 307.6314938  +6.3875896     943.8256     1486.144     1830.505     81.43353     162.6075     325.7017      1.619     4.31     933.8734      57.4445     170.5026        10     1.222     0.654  55.91   0
       154    243.7577    800.8669 307.8111930  +6.3732516     640.6776      1491.43     3771.719     81.69246     162.9319      325.961      4.374     5.29     941.5633      57.4445     104.4287         7     1.299     0.609 -43.75   0
       155    998.5849    795.5110 307.4978814  +6.4007504     1700.246     2673.766     2633.598     81.43353     162.8022     325.7341      1.669     4.41        924.6      57.4445     272.5451        16     1.373     0.824  54.84   0
       156    467.5992    796.7324 307.7183713  +6.3824769     567.0558     890.9987     641.1673     81.04359     162.5426     325.6693      1.388     3.38     938.0869      57.4445     90.70972         5     0.760     0.435  68.69   0
       157    397.1385    796.7706 307.7476329  +6.3800961     592.9656     679.4181     777.1747     81.43353     162.9967     325.8314      1.342     3.37     939.3452      57.4445     110.4407         5     0.962     0.341  45.77   0
       158    624.8492    795.2152 307.6531144  +6.3883752      673.392      894.547      602.137     81.04358     162.9319     325.6044      1.325     4.95     933.8597      57.4445     105.3969         9     1.270     0.545  27.95   0
       159    799.7623    793.8260 307.5805157  +6.3948033     1243.501     1827.589     1696.713     81.30376     162.8022     325.7341      1.581     4.40     930.5206      57.4445     209.4495        13     1.399     0.694  36.11   0
       160    886.0298    791.1324 307.5447771  +6.3987988     1697.131     2642.856     2773.639     81.43353     162.9967     325.8638      1.659     4.79     927.5448      57.4445     300.5586        16     1.422     0.738  47.73   0
       161    860.4834    786.4865 307.5555442  +6.3998626     897.1713     1287.535     1187.204     81.43353     163.1909      325.961      1.566     5.53      928.478      57.4445     141.7437        11     1.173     0.734  51.72   0
       162    843.1172    782.9464 307.5628765  +6.4007432     1454.315     2185.951     2062.003     81.69246     162.9967     325.9933      1.552     3.93     928.8777      57.4445     236.4567        14     1.332     0.681  54.60   0
       163     42.0196    781.4771 307.8956322  +6.3744631     2312.544     3828.651     4292.959     81.30376     162.7373     325.8638      1.794     4.34     942.8279      57.4445     360.3811        23     1.522     0.931  54.75   0
       164    106.0005    780.0721 307.8691094  +6.3771981     901.6479     1756.709     1922.479     81.04359     162.4776     325.7665      2.146     6.20     942.1673      57.4445     164.6322        12     1.592     0.679  66.75   0
       165    654.7293    770.0764 307.6415550  +6.3997514      6273.39     9597.438     9475.617     81.95058     163.2556     325.8961      1.592     4.19     932.8278      57.4445     1034.137        29     1.539     0.901  48.39   0
       166    601.3820    769.6998 307.6637244  +6.3981197     1299.106      2011.78     1770.271     81.69246     162.8671     325.6693      1.704     5.62     933.3646      57.4445     191.7687        16     1.535     0.727  46.33   0
       167    523.2759    769.7800 307.6961610  +6.3954682     679.1918     977.8201     531.3195     81.30376     162.7373     325.8314      1.622     4.82     935.6266      57.4445     118.9058         6     1.217     0.541  66.75   0
       168    512.8458    770.0048 307.7004853  +6.3950257     761.4045     1026.564     1092.261     81.04359     162.6724      325.572      1.361     4.01     935.9841      57.4445     159.0155         6     1.170     0.428  36.97   0
       169    628.5256    765.7850 307.6525833  +6.4006448     2078.933     3249.915     3568.446     81.17377     162.7373     325.7665      1.656     4.85     932.8784      57.4445     343.9227        19     1.667     0.712  49.58   0
       170    117.6609    765.7512 307.8647540  +6.3835010     3748.218     5880.527     6602.853     81.69246     162.9319      325.961      1.706     4.51     941.8394      57.4445     572.6326        26     1.571     0.895  46.96   0
       171    991.7932    765.5195 307.5017135  +6.4129021     2422.202     3848.112     4094.327     81.30376     162.5426     325.7017      1.656     4.07     923.5319      57.4445     357.0763        23     1.594     0.875  51.60   0
       172    304.6294    766.4835 307.7870804  +6.3894883     721.2438     760.7638     1079.539     81.69247     162.8022      325.799      1.270     3.91     939.5523      57.4445     131.0164         6     1.082     0.405  54.27   0
       173    771.5769    762.2192 307.5932899  +6.4069054     20180.02     30596.05     31585.99     81.43353     162.9319     325.8314      1.642     4.34      929.736      57.4445     3442.697        44     1.602     0.977  49.29   0
       174    901.7311    762.0525 307.5392372  +6.4113254     3637.354     5666.413     5831.917      81.5631     162.8671     325.8314      1.607     4.58     926.3059      57.4445     572.5807        27     1.570     0.940  46.66   0
       175    470.8086    762.6247 307.7181943  +6.3966614     1453.645     2018.272     1880.069     81.30376     162.8022     325.7341      1.559     3.82     937.0316      57.4445     234.1582        13     1.223     0.730  52.40   0
       176    316.1011    761.8588 307.7824730  +6.3917825      766.363     1202.334     1445.534     81.43353     162.9967     326.0258      1.701     5.03     939.2214      57.4445     127.4698         7     1.207     0.715  67.76   0
       177    499.3370    762.1000 307.7063636  +6.3978350      884.444     1393.339      1405.98     81.43353     162.9967     325.9286      1.774     4.62     936.2197      57.4445      207.254         8     1.269     0.477  49.66   0
       178    273.1972    761.9377 307.8002888  +6.3903079     636.4965      1095.21     1455.978     81.04358     162.8022     325.6044      1.642     3.97      939.854      57.4445     104.6152         6     0.957     0.471  49.88   0
       179    245.0836    755.7045 307.8121763  +6.3919351      6208.25     9679.817     10000.09      81.5631     163.3849     325.9933      1.659     4.15      940.276      57.4445     957.7527        30     1.589     0.917  51.81   0
       180    652.0884    755.0631 307.6431597  +6.4058593     6869.585     10641.19     10555.97      81.5631     163.1909     325.9286      1.628     4.12     932.2917      57.4445     1070.603        28     1.472     0.951  52.37   0
       181    634.5405    756.0350 307.6504151  +6.4048704     877.8572     1377.036     1467.542     81.69246     162.9967     325.8638      1.846     6.20      932.488      57.4445     120.0203        12     1.402     0.771  38.56   0
       182    348.0183    755.7275 307.7694254  +6.3953854     503.5021     751.0571     1131.659     81.17377     162.9319     325.8314      1.425     3.38     938.5516      57.4445     88.56598         5     0.801     0.489 -55.66   0
       183    912.0601    747.9154 307.5354242  +6.4175053      1199.15     1686.011     1465.171     81.82162     163.0614     325.9933      1.512     4.13     925.7562      57.4445     176.7644        11     1.200     0.652  51.58   0
       184    723.8381    743.5400 307.6137491  +6.4130173     3709.994     5834.552     6573.148     81.69246     163.0614     325.9286      1.702     4.35      929.805      57.4445     503.1907        28     1.538     0.990  52.40   0
       185    990.1907    740.0923 307.5032364  +6.4233431     8597.561     13580.28     14350.64     81.30376     162.6075     325.6693      1.667     4.35     922.5991      57.4445     1330.861        34     1.568     0.979  51.78   0
       186    928.6001    740.5330 307.5288034  +6.4211047     2467.595     3677.467     3618.089     80.91319     162.4776     325.6044      1.615     4.36       925.19      57.4445      450.975        20     1.539     0.746  51.66   0
       187    679.0048    744.0933 307.6323514  +6.4112881     1036.818     1515.634     1415.927     81.30376     162.6724     325.6368      1.625     5.23      931.429      57.4445     156.5854        10     1.418     0.692  41.05   0
       188      9.4244    739.8436 307.9105859  +6.3905468     1850.805     3024.639      3215.02     81.17377     162.9319     325.7665      1.736     4.09     942.9892      57.4445     327.8708        20     1.550     0.854  37.77  16
       189     67.4808    734.7393 307.8866488  +6.3946097     25774.77     39914.34     42117.99     81.82162     162.9967     325.8638      1.705     4.25     941.9657      57.4445     4062.291        51     1.661     1.054  51.28   0
       190    528.6873    735.7125 307.6950675  +6.4097100     2009.616     3104.885     3024.311     81.43353     163.3849     325.9933      1.643     4.86     934.0824      57.4445     281.2216        17     1.412     0.861  40.29   0
       191    497.7072    733.2490 307.7080181  +6.4096876      1342.61      2006.33     1692.907      81.5631     162.8671     326.0258      1.511     4.29     935.2598      57.4445     214.8926        11     1.299     0.597  49.28   0
       192    918.3740    732.0355 307.5333375  +6.4242702      1014.63     1559.505     1485.996     81.30376     162.8022     325.6693      1.642     5.59     925.2411      57.4445     164.7534        11     1.392     0.633  48.61   0
       193    537.8939    729.7934 307.6914442  +6.4124616     1110.933     1730.549     2044.988     81.30376     162.6724     325.7017      1.894     4.23     933.4977      57.4445      205.222        12     1.304     0.661  50.61   0
       194    713.3657    727.0950 307.6186548  +6.4194540     3434.446     5135.301     5296.203     81.82162     162.8671     325.9933      1.604     4.61     929.6248      57.4445     611.5325        20     1.458     0.783  49.74   0
       195    735.4208    725.4001 307.6095515  +6.4208917     4127.158     6247.025     6351.863     81.17377     162.6724      325.572      1.649     4.32     928.8505      57.4445     734.5416        23     1.506     0.843  47.75   0
       196    567.0635    723.2505 307.6795505  +6.4161399       3320.5     4954.776     5285.303     81.69246     162.9319     325.9286      1.564     4.21     932.5397      57.4445       544.02        23     1.514     0.819  52.71   0
       197    403.1323    723.6693 307.7476228  +6.4104673     1375.201     1994.993     1623.997     81.69246     163.1262     325.8961      1.525     4.92     936.7843      57.4445     209.3397        13     1.247     0.704  43.04   0
       198    227.5288    722.7839 307.8205854  +6.4049312     1891.312     2725.842     2683.579     81.17377     162.9319      325.799      1.577     4.66     939.8522      57.4445     264.2441        18     1.427     0.836  52.80   0
       199   1008.3409    721.5316 307.4963234  +6.4316094     4796.937     7566.343      7621.44     81.82162     162.9319     325.8961      1.673     4.47     921.8135      57.4445     775.4818        26     1.566     0.862  46.73   0
       200    973.8173    720.4291 307.5107004  +6.4309121     7947.463     12222.88     12594.72     81.30376     162.8022     325.8314      1.658     4.49     922.9404      57.4445     1236.151        32     1.608     0.920  50.06   0
       201    311.2101    722.1428 307.7858525  +6.4080093      1552.41     2487.621     3063.777     81.04358     162.9319     325.6044      1.830     4.73      937.752      57.4445      199.068        18     1.415     0.842  48.34   0
       202   1023.3203    719.5343 307.4901689  +6.4329337     782.1014     1152.662     998.1927     75.51276     134.9249     251.0791      1.562     3.67     921.3387      57.4445     139.8014         7     0.927     0.548  57.00  24
       203    694.0144    719.1451 307.6269611  +6.4220873     942.6523     1791.585     1689.036     81.04359     162.9319     325.6044      1.913     5.44     930.0066      57.4445     164.8931        13     1.520     0.653  28.28   0
       204     86.0247    717.7662 307.8795248  +6.4022392     778.8702     1151.885     1173.807     81.17377     162.8022     325.6693      1.477     2.36     941.3239      57.4445     153.3286         7     0.775     0.650 -65.35   0
       205    800.7643    714.4313 307.5827817  +6.4276049     1171.944     1884.676     2311.388     81.30376     162.7373     325.6368      1.666     5.28     928.0721      57.4445     170.9626        13     1.456     0.671  54.47   0
       206    419.0142    714.5455 307.7413360  +6.4147660     2731.629         4433     4616.311     81.04358     162.9319     325.6044      1.722     4.52     936.5198      57.4445      467.879        24     1.590     0.939  58.29   0
       207    132.2151    713.6152 307.8604826  +6.4055078     23723.92     37185.46     39390.97     81.43353     162.6724     325.8314      1.701     4.24     940.5518      57.4445     3769.283        51     1.648     1.056  49.29   0
       208    350.5607    707.3389 307.7700115  +6.4154413     568.4493     808.8297      831.655     81.69246     162.9967     325.9286      1.270     3.45     936.9902      57.4445     114.7045         5     0.785     0.437 -68.88   0
       209    968.6899    703.3725 307.5134054  +6.4377806     7049.556        11392     12398.73     81.82162     162.7373     325.7665      1.794     4.52     922.8035      57.4445     946.5602        34     1.781     0.911  47.55   0
       210   1023.1562    698.1124 307.4909592  +6.4417696     65564.61     88682.37     91531.95     77.17258     137.2527     253.9229      1.437     4.78     921.7259      57.4445     11858.05        49     1.571     0.866  72.98  24
       211     13.3626    702.4343 307.9102240  +6.4061183     1250.157     1990.514     2136.424     81.43353     162.8022     325.6693      1.779     6.00     942.2914      57.4445     206.0712        13     1.300     0.779  51.48   0
       212    562.2255    698.5550 307.6823962  +6.4261700     47612.41     73743.63     76481.85     81.17377     163.0614     325.7665      1.677     4.16     931.8552      57.4445      8290.08        60     1.651     1.054  51.18   0
       213    431.0302    701.0430 307.7368031  +6.4207421     528.3017     784.6758     793.7147     81.30376     162.9319     325.7341      1.261     3.71     935.9937      57.4445      77.5257         5     1.012     0.392  30.92   0
       214    927.4220    700.1296 307.5306560  +6.4377409     747.9031      736.928     586.5163     81.30376     162.9319     325.8961      1.170     3.56      923.613      57.4445     135.6116         6     0.827     0.607  53.00   0
       215    522.5444    699.1936 307.6988560  +6.4245759     587.2991     742.8713     199.6591     81.17377     162.8671      325.572      1.179     2.25     932.9407      57.4445     108.1086         5     0.698     0.448 -66.00   0
       216    492.8516    695.9506 307.7112987  +6.4249184     546.6212     883.0875     796.6794     81.82162     162.8671     325.8638      1.313     3.02     933.8083      57.4445      114.353         6     0.899     0.449  54.28   0
       217    169.8235    695.1248 307.8454917  +6.4144048     2837.741     4317.925     4643.413     81.30376     162.8671     325.8314      1.621     4.83     939.4117      57.4445     395.2415        19     1.388     0.830  50.04   0
       218    972.9423    694.4063 307.5119415  +6.4416231     580.3484     751.0601     1445.099     81.17377     162.8671     325.6044      1.827     5.90     922.5817      57.4445      103.383         8     1.356     0.722  69.05   0
       219     62.4785    689.4532 307.8902673  +6.4131308     1288.721      1872.21     1382.837     81.82162     162.9967     325.8961      1.724     6.36     941.1972      57.4445     182.6365        15     1.498     0.759  38.28   0
       220    459.4890    682.3298 307.7256174  +6.4294204     61558.61     95450.66     99428.59     81.69246     163.2556     325.8961      1.705     4.26     934.4648      57.4445      10216.8        69     1.665     1.096  50.18   0
       221      2.9842    683.8865 307.9151658  +6.4134231     1731.739     2818.346     2662.922     81.30376     151.6535     271.4105      1.636     4.13     942.1517      57.4445     274.0654        16     1.399     0.760  45.12  24
       222    645.6907    679.5029 307.6483736  +6.4368302     931.9779     1386.095     1506.348     81.69246     163.4495     325.8961      1.749     4.76      929.596      57.4445     161.6493         9     1.236     0.546  31.27   0
       223    133.9180    677.3024 307.8610102  +6.4205516     1610.727     2638.208     2646.685      81.5631     163.3849      325.961      1.677     4.85     939.4948      57.4445     260.5123        18     1.473     0.892  32.23   0
       224    413.0993    675.0598 307.7451318  +6.4308637     873.9556     1298.333     1157.231     81.43353     162.9319     326.0258      1.662     5.62     936.1904      57.4445     121.3802        11     1.345     0.662  44.61   0
       225    929.4531    675.1213 307.5306562  +6.4481303     570.4766     959.2322     979.7396     81.69246     162.9967     325.8961      1.542     3.55     922.4409      57.4445     119.1788         5     1.272     0.286  37.12   0
       226    605.4220    673.9598 307.6652872  +6.4377688     775.1453     1229.322     1048.501     81.30376     162.8022     325.7017      1.745     6.35     930.1333      57.4445     117.6893        13     1.723     0.657  53.03   0
       227    304.9475    671.6399 307.7901681  +6.4286419     2052.535      3376.46     3968.818      81.5631     162.9967     325.8961      1.745     4.45     937.1556      57.4445     296.2619        21     1.525     0.900  62.18   0
       228      6.2396    673.1432 307.9141796  +6.4179666     664.3226     963.8723     1730.767     81.69246     163.0614     311.5505      1.838     5.22     941.9061      57.4445     132.8342         7     1.391     0.553  41.86  16
       229    457.1859    670.0988 307.7269887  +6.4343911     875.0901     1261.322     1446.564      81.5631     162.7373     325.6368      1.591     4.37     934.1221      57.4445     154.3615         8     1.259     0.432  57.44   0
       230    731.5756    665.9164 307.6131597  +6.4453133     5185.373     7548.633     7966.756      81.5631     162.7373     325.8638      1.569     4.11     927.8459      57.4445     853.2186        24     1.480     0.820  47.46   0
       231    785.0895    661.1301 307.5910934  +6.4490792     13537.32     20733.58     21567.59     81.69246     163.2556     325.8961      1.624     4.35     927.2344      57.4445     2505.894        38     1.610     0.930  48.75   0
       232   1002.5906    661.6682 307.5007304  +6.4561248     981.3365     1318.937     962.9475     81.17377     162.8022     325.7665      1.506     5.64     921.3005      57.4445     133.2524        11     1.249     0.717  37.28   0
       233    527.5316    661.1968 307.6980719  +6.4404251      1130.92      1821.06     2476.606     81.04359     162.6075     325.6693      1.872     4.61     931.4715      57.4445     204.0928        10     1.257     0.601  47.06   0
       234    609.0615    659.2334 307.6642740  +6.4439686     2950.483     4511.361      4402.84     81.43353     163.0614     325.8314      1.636     4.16     929.5043      57.4445     465.3936        23     1.519     0.845  46.11   0
       235     30.5384    660.6055 307.9045146  +6.4239599     691.5237     1026.016     1767.577     81.04359     162.8022     325.6693      1.714     3.94     941.2441      57.4445     127.4893         6     1.058     0.450  77.05   0
       236   1023.7019    659.3940 307.4920378  +6.4577680     928.7015     1240.585     1309.709     70.29855     128.5936      244.387      1.194     3.94     920.7485      57.4445     190.1484         7     1.018     0.437  81.51  24
       237    926.3502    655.5426 307.5326058  +6.4561073     1194.979     2034.126     2812.043     81.69246     162.9967     325.9286      2.190     4.87     922.2034      57.4445     234.9714        12     1.391     0.585  41.81   0
       238    367.3731    652.7214 307.7648819  +6.4385474     1027.163     1739.523     1776.215      81.5631     162.9319     325.8638      1.831     5.47     935.4012      57.4445     116.6075        12     1.221     0.690  44.41   0
       239    221.5245    652.8797 307.8254544  +6.4335793     1277.934     1947.314     2032.267     81.95058     163.2556     326.0258      1.590     4.28     938.0024      57.4445     202.7381        13     1.275     0.714  41.63   0
       240    861.0740    644.5695 307.5600907  +6.4584550     2823.826     4123.269     4360.091      81.5631     162.9967     325.8961      1.606     4.17     924.3578      57.4445     544.6777        19     1.442     0.758  46.70   0
       241    156.1718    644.1949 307.8528933  +6.4349643     590.2488     829.5231    -327.4032     81.17377     162.8022     325.7017      1.559     5.21     938.5779      57.4445     119.9751         6     1.498     0.586  37.58   0
       242    819.9930    641.8201 307.5772478  +6.4582163     2387.372     3793.433     3580.671     81.30376     162.7373     325.7017      1.587     4.44     925.7647      57.4445      332.397        19     1.586     0.734  50.40   0
       243    790.8967    637.7975 307.5894697  +6.4589034     2405.529       3687.5     4549.783     81.30376     162.6724      325.572      1.592     3.94     926.4984      57.4445      362.686        19     1.392     0.783  52.36   0
       244    733.7128    638.5397 307.6131976  +6.4566838     701.0956     1059.723     1705.574     81.82162     163.1262     325.9933      3.029     5.80      927.345      57.4445     132.0328         8     1.625     0.584  59.24   2
       245    247.9514    636.7557 307.8150259  +6.4411227     7677.062      11802.3     11801.99     81.69246     162.9319     325.8638      1.617     4.09     937.0878      57.4445     1101.404        31     1.549     0.942  45.93   0
       246    800.4927    633.0566 307.5856439  +6.4611811     156857.1     240160.2     251114.8      81.5631     162.9319     326.0581      1.666     4.37     926.2057      57.4445     25914.62       108     1.712     1.134  50.15   0
       247    182.0964    631.2963 307.8425642  +6.4411602     56104.92     89895.37     94863.18     81.69246     163.6432     325.7341      1.695     4.20     938.1684      57.4445     8922.343        76     1.697     1.179  50.83   0
       248    106.0786    627.5377 307.8742656  +6.4401521     6015.766     9396.072     9858.358     81.95058     163.0614     325.8961      1.689     3.97     939.0745      57.4445     959.8722        30     1.515     0.990  51.01   0
       249    971.5298    624.8806 307.5148733  +6.4702711     1383.532     2119.728     2144.873     81.95058     163.3203     325.9286      1.608     3.90     919.6507      57.4445     227.1124        14     1.307     0.794  41.39   0
       250    992.3249    623.9528 307.5062665  +6.4713483     708.1093     1002.662     783.7366      81.5631     163.0614     325.8961      1.451     4.76     918.6785      57.4445     163.5618         8     1.336     0.523  62.81   0
       251    221.1260    623.6760 307.8266123  +6.4456184      622.092     1190.003     1410.744     81.95058     163.2556     325.9286      2.536     5.98     937.6878      57.4445     115.7994         9     1.574     0.640  43.93   0
       252    837.1640    620.3124 307.5708417  +6.4676672     4434.781     6741.313     6556.108     81.69246     162.8671     325.8961      1.629     4.38     924.2847      57.4445     753.5965        25     1.521     0.897  49.08   0
       253    355.5163    618.3997 307.7709715  +6.4523140     16453.57     26085.74     27005.29     80.91319     162.4776     325.5396      1.722     4.43     933.8257      57.4445      2579.52        46     1.629     1.052  50.73   0
       254    446.1938    618.5729 307.7333013  +6.4552876     610.8203     749.9886     386.5251     81.17377     162.8022     325.7017      1.348     3.82     932.4168      57.4445     151.8726         6     1.264     0.330  40.65   0
       255    157.4258    617.3099 307.8532866  +6.4461021     1829.972     2988.018     2798.024     81.82162     162.7373     325.7341      1.774     5.00     938.3095      57.4445     319.2472        18     1.544     0.834  45.62   0
       256    521.8512    613.3280 307.7020532  +6.4599908     6226.496       9888.3     10491.49     81.69246     162.9967     325.9286      1.687     4.53      930.152      57.4445     970.4171        32     1.648     0.937  51.23   0
       257    232.5071    615.2139 307.8221726  +6.4494937     937.9114     1611.677     2099.719     81.43353     162.7373     325.7341      1.801     4.31     937.2034      57.4445     157.7898        12     1.327     0.729  58.44   0
       258    162.9165    615.1929 307.8510780  +6.4471606     667.0209     1138.981     1780.655     81.30376     162.6724     325.7341      1.567     5.15     938.2296      57.4445     100.1583         7     1.235     0.607  43.81   0
       259     94.7395    614.4450 307.8794206  +6.4451736     995.6194         1461     1131.206      81.5631     162.9319     325.9933      1.613     5.13     938.9023      57.4445     148.0504        13     1.361     0.746  59.40   0
       260    791.0093    613.6251 307.5902398  +6.4688837     5714.613     8644.463     8379.464     81.30376     162.8022     325.7665      1.610     4.21     925.7905      57.4445     984.0543        28     1.528     0.896  47.09   0
       261    379.9181    609.8879 307.7611247  +6.4566467     1450.089     2412.172     2230.854     81.43353     163.1909     325.9933      1.700     5.42     933.3359      57.4445     189.4139        16     1.380     0.780  37.32   0
       262    566.5887    606.3438 307.6837068  +6.4643735     2377.428     4024.179     3392.145     81.04359     162.9319      325.572      1.821     4.43     928.8777      57.4445     341.2343        23     1.467     1.039  36.67   0
       263    168.9044    606.4863 307.8488870  +6.4509554     6556.202     10376.92     11016.55     81.69246     163.3849      325.961      1.691     4.19     938.0078      57.4445     978.2485        33     1.549     1.031  48.04   0
       264     40.5547    605.1262 307.9022432  +6.4471938     4895.219     8088.708     8579.918      81.5631     163.0614     325.9286      1.792     4.20     940.0714      57.4445     762.9035        33     1.616     1.039  54.56   0
       265    807.7634    605.9817 307.5835386  +6.4725987     1319.382     2169.097     2318.778     81.17377     162.8022     325.6693      1.680     4.10     924.9749      57.4445     209.1188        14     1.276     0.760  38.61   0
       266    264.1276    602.9183 307.8094565  +6.4556316     83942.64     132796.6     139378.5     81.95058     163.3203     325.9286      1.686     4.08     935.4324      57.4445     12005.82        85     1.707     1.154  50.83   0
       267    554.0153    600.7181 307.6891201  +6.4662737     920.9839     1368.501     1890.599     81.30376     162.7373     325.7665      1.388     5.16     929.0684      57.4445     165.6367         9     1.244     0.605  37.10   0
       268    247.9883    597.9622 307.8163285  +6.4571342     1407.123     2343.704      2971.62     81.17377     162.8022      325.572      1.771     5.02     935.9209      57.4445     244.5153        16     1.510     0.780  40.76   0
       269    787.2742    595.3992 307.5924072  +6.4762810     15992.39     24585.39     25291.04     80.91319     162.4126     325.7341      1.649     4.16     925.0278      57.4445     2974.784        45     1.607     0.993  50.40   0
       270    963.4466    596.4537 307.5191901  +6.4817337     1676.597     2642.692     2845.899     81.69247     162.9967     325.9286      1.754     4.70     918.6165      57.4445     327.0458        15     1.517     0.839  59.05   0
       271    490.8846    593.7767 307.7155785  +6.4670211     40016.39     66765.55     72109.91      81.5631     162.7373      325.799      1.808     4.70     929.7935      57.4445     5475.604        74     1.797     1.246  42.53   0
       272    641.0270    591.9359 307.6532742  +6.4728145     961.1609     1512.862     1535.808     81.30376     162.9319      325.799      1.533     4.48     926.7071      57.4445      162.835         8     1.115     0.512  53.38   0
       273    203.3345    590.0654 307.8351444  +6.4588911     1789.693     3053.549     4155.771     81.69246     162.9967     325.9286      1.984     4.15     936.9038      57.4445     266.5496        16     1.373     0.800  61.18   0
       274     38.9986    590.1367 307.9033998  +6.4533276     1216.175     1952.232       2206.7     81.04359     162.7373     325.6693      1.753     4.62     940.0906      57.4445     193.0056        16     1.417     0.771  49.28   0
       275    660.8540    588.9751 307.6451384  +6.4747007     1341.621     2071.578      2123.78     81.30376     163.0614     325.7341      1.599     4.32     926.3958      57.4445     242.1072        16     1.310     0.878  38.03   0
       276    650.9861    588.8283 307.6492424  +6.4744308     2870.689      4440.79     4348.157     81.30376     162.8022      325.799      1.629     4.04     926.5021      57.4445     426.1704        24     1.533     0.875  47.10   0
       277    713.0404    587.7899 307.6235008  +6.4769373     1293.323      2083.74     2222.046     81.04358     162.8022     325.6368      1.979     4.36     926.0119      57.4445     190.3242        12     1.360     0.699  60.79   0
       278     68.0203    585.0641 307.8915183  +6.4563990     657.2547     1491.122     1363.295     81.30376     162.9967     325.7665      2.371     5.07     939.3093      57.4445     113.3553         7     1.064     0.684  72.11   2
       279    388.6513    584.6068 307.7583549  +6.4673738     1622.589      2444.29     2271.689     81.17377     162.8022     325.5071      1.648     5.14     932.4222      57.4445     249.2686        16     1.354     0.918  72.72   0
       280    320.0779    582.7933 307.7869001  +6.4658183     3599.627     5968.523     6418.888     81.30376     162.4776     325.6693      1.754     4.36      933.109      57.4445     494.2129        28     1.613     0.997  60.17   0
       281    135.2073    581.2547 307.8637413  +6.4602342     24560.86      39116.4     40097.47     81.17377     162.8022     325.6044      1.676     4.14     937.7888      57.4445     3914.661        49     1.633     1.056  50.01   0
       282    500.1288    582.0679 307.7121355  +6.4721636     1968.233     2980.692     3760.276     81.69246     163.1262     325.8638      1.651     4.34     929.1218      57.4445     291.4025        19     1.468     0.818  50.83   0
       283    863.1739    581.3964 307.5613517  +6.4845983     1578.649     2440.748     2481.211     81.17377     162.7373     325.7341      1.507     4.06      921.938      57.4445     306.2341        14     1.414     0.643  45.66   0
       284    100.3140    579.4545 307.8782958  +6.4598020     2556.019     4015.999     4155.681     81.69246     162.9319     326.0905      1.699     4.53     938.4297      57.4445     442.0684        21     1.569     0.844  51.59   0
       285    337.6435    577.9945 307.7797667  +6.4683892     1037.926     1334.392      1693.79     81.04358     162.6724      325.572      1.476     5.81     932.7213      57.4445     155.4467        12     1.219     0.780  46.72   0
       286    960.7426    575.9686 307.5210045  +6.4900982     4902.339     7519.536     7938.489      81.5631     162.9967     325.8314      1.636     4.49     917.6565      57.4445     722.8218        27     1.550     0.868  48.63   0
       287    534.0836    568.4150 307.6984938  +6.4789374     1490.336     2537.847     2543.622     81.30376     162.6724     325.7665      1.734     5.77     928.0366      57.4445      225.803        20     1.676     0.865  52.19   0
       288      1.3123    566.2308 307.9198669  +6.4619231     7681.091     9269.655     9998.668     70.74775     128.8397     244.7756      0.978     2.27     941.1318      57.4445     2512.238        18     1.136     0.640 -89.83  24
       289    432.2193    562.4577 307.7410089  +6.4779780     41265.38     64808.14     67616.53     81.30376     162.8671     325.7017      1.702     4.21     930.6216      57.4445     6789.102        63     1.652     1.127  50.59   0
       290    640.2178    562.1584 307.6546182  +6.4850772     11870.49     18463.01     19362.04     81.17377     162.8022     325.6693      1.641     4.08     925.7271      57.4445     2006.072        39     1.581     0.996  45.16   0
       291    280.2567    562.8296 307.8041187  +6.4727189     907.2607     1516.449     1215.583     81.43353     163.0614      325.799      1.548     5.54      933.059      57.4445     145.1685        10     1.408     0.614  47.77   0
       292    197.3768    559.8911 307.8386447  +6.4711437     18201.04     30546.31     32991.91     81.69246     162.8022     325.7341      1.818     4.54     935.7524      57.4445     2397.822        53     1.785     1.104  49.83   0
       293    974.2430    560.9781 307.5159020  +6.4967360     1018.448     1755.726     2271.257     81.17377     162.8671     325.7017      1.987     5.60     916.1556      57.4445     161.6113        12     1.160     0.993  41.39   0
       294    163.0056    560.8799 307.8528878  +6.4695788     1447.029     2254.706     2169.052     81.30376     162.5426     325.6693      1.634     5.22     936.6062      57.4445     235.9396        18     1.523     0.861  48.57   0
       295    814.4830    560.2070 307.5822939  +6.4917157     869.5432     1159.168     1174.733     81.30376     162.6724     325.7665      1.403     4.73      922.569      57.4445     182.0888         9     1.333     0.475  51.58   0
       296    903.0392    560.3534 307.5455020  +6.4946155     720.2332     1093.247     1174.798      81.5631     162.9967     325.7341      1.703     3.39     919.6345      57.4445      132.103         5     1.000     0.497  36.31   0
       297    562.1158    559.0287 307.6871674  +6.4837513     2569.094      3986.32     4054.187     81.69246     162.7373     325.7665      1.604     4.14     927.0595      57.4445     388.0759        20     1.462     0.796  46.99   0
       298    935.9203    556.1133 307.5319859  +6.4974640     4694.592     7416.917      7735.42     81.43353     163.3203     326.0258      1.624     4.22     917.9009      57.4445      716.924        26     1.553     0.845  47.54   0
       299    609.0078    554.5850 307.6678391  +6.4871571     6267.445     9679.257     9846.187     81.30376     162.7373     325.7341      1.661     4.24     925.7093      57.4445     972.7158        30     1.516     0.962  50.84   0
       300     96.7749    554.9673 307.8805990  +6.4697887     1071.007     1556.025      1752.47     81.17377     162.8022     325.7341      1.530     5.39     938.2911      57.4445     176.6551        11     1.396     0.608  42.69   0
       301    208.7315    554.3856 307.8341154  +6.4737980     526.1333      804.822     1553.038     81.17377     162.8671      325.799      1.310     2.87      935.194      57.4445     106.0342         5     0.739     0.432 -21.90   0
       302    958.4318    548.3142 307.5228974  +6.5014347     3540.575     5478.114     5672.185     81.69246     162.8022     325.8314      1.737     4.28     916.3063      57.4445     615.3815        24     1.566     0.819  48.16   0
       303    521.3172    545.7598 307.7045645  +6.4878593     7266.743     11061.92     11390.48     81.69246     163.0614     325.8314      1.640     3.99     927.2231      57.4445     1129.579        31     1.537     0.948  51.93   0
       304    397.6794    547.5906 307.7558607  +6.4829540     546.7067     904.6547     804.9603     81.30376     162.6075     325.7341      2.021     4.02     931.0221      57.4445     108.4457         5     1.102     0.420  36.95   0
       305    367.2001    545.8549 307.7685803  +6.4826466      2464.86     3839.353     3829.007     80.91319     162.6075     325.5396      1.609     3.84     931.4195      57.4445     411.2268        19     1.346     0.893  45.88   0
       306    877.5203    541.5772 307.5567368  +6.5015121     3034.135     5088.832     5474.033     81.30376     162.6724     325.8638      1.824     4.85     920.0832      57.4445     520.4648        30     1.863     0.986  38.45   0
       307    530.6811    542.4642 307.7007865  +6.4895335     739.5112      1168.38     1342.005     81.95058     163.0614     325.8961      1.706     4.52     926.9622      57.4445     131.8525         7     1.224     0.475  50.33   0
       308    226.1264    540.8444 307.8273502  +6.4799718      707.752     1132.732     353.1623      81.5631     163.0614     325.9286      1.634     5.60     934.1575      57.4445     104.9827         7     1.299     0.681  65.49   0
       309    885.1154    536.1917 307.5537635  +6.5039887     2117.711     3145.847     3665.998     81.30376     162.6724     325.7341      1.629     3.97     919.4886      57.4445     331.5342        18     1.410     0.774  43.08   0
       310    924.6211    535.4136 307.5373784  +6.5056298     1307.307     1685.225     1472.298     81.43353     162.7373      325.799      1.513     4.30     917.6021      57.4445     237.9741        13     1.272     0.740  44.81   0
       311    104.4095    535.2545 307.8780986  +6.4781814     731.2253     1426.788     1622.149     81.04359     162.9319     325.6044      2.031     5.79     937.6671      57.4445      120.967         8     1.348     0.699  56.85   0
       312    709.2043    531.9812 307.6269819  +6.4998423     2918.777     4368.121      4446.78     81.30376     162.6075     325.7017      1.584     4.54     924.0216      57.4445      456.686        23     1.444     0.992  40.56   0
       313    379.9878    530.1259 307.7638022  +6.4895677     3613.563     5843.117     5584.246     81.17377     162.6724     325.7017      1.688     4.15     930.2204      57.4445     487.7083        27     1.611     0.983  44.85   0
       314     71.1422    530.9734 307.8920626  +6.4788274     1925.057     2878.603     3215.248     81.30376     163.0614     325.7017      1.594     3.94      938.696      57.4445     264.6101        18     1.322     0.851  47.95   0
       315    420.4568    530.1597 307.7469905  +6.4909128     880.3794     1641.529     1935.452     81.69246     163.0614     325.9286      2.072     5.60     929.5739      57.4445      138.834        11     1.538     0.575  30.69   0
       316    607.7128    526.6990 307.6693212  +6.4986227     9753.453     15228.28     16016.76     81.69246     163.4495      325.961      1.689     4.15     924.9745      57.4445     1497.481        36     1.590     0.994  53.10   0
       317    770.4075    523.3317 307.6018497  +6.5054605     15938.64     24298.07     25242.32     81.17377     162.7373      325.799      1.650     4.23     922.1579      57.4445     2911.085        38     1.605     0.918  48.30   0
       318    290.2388    523.6807 307.8013020  +6.4892116     2571.959      4010.24     4115.357     81.69246     163.0614     325.8314      1.718     4.31     931.1204      57.4445     372.0108        22     1.500     0.903  58.01   0
       319    799.4650    520.3573 307.5898792  +6.5076602     1169.887     1833.039     1801.535     81.69246     162.9319     325.8961      1.712     5.84     921.0627      57.4445     231.0466        13     1.450     0.661  52.12   0
       320    373.1202    520.1013 307.7669952  +6.4934742     1561.004     2441.888     2533.608      81.5631     163.3849     325.9286      1.730     5.13     929.6694      57.4445     238.4771        16     1.375     0.812  45.40   0
       321    955.5790    518.3116 307.5250949  +6.5137222     2214.551     3545.321     3158.418     81.69246     162.7373     325.7665      1.691     3.89     915.5361      57.4445      381.599        19     1.494     0.762  48.25   0
       322    774.4323    518.7456 307.6003328  +6.5074880     1354.427     2388.049     2928.718      81.5631     162.9967     325.8638      1.946     4.51     921.8676      57.4445     275.1066        15     1.512     0.657  55.50   0
       323    362.0876    516.2632 307.7717083  +6.4946876     563.5946     978.7269     1130.792      81.5631     163.1909     325.8961      1.670     4.99      929.556      57.4445     113.9893         6     1.493     0.473  42.45   0
       324    107.7925    515.1607 307.8773771  +6.4865881     4179.285     6704.643     7522.534     81.04358     162.7373      325.572      1.709     4.37     936.9213      57.4445     602.4296        27     1.544     0.973  49.26   0
       325    746.1234    514.2941 307.6122433  +6.5083779     2168.703     3377.303     3159.308     81.43353     163.1909     325.8961      1.526     4.18     922.6509      57.4445     320.6409        17     1.511     0.684  47.49   0
       326   1009.6863    513.0157 307.5027958  +6.5177145     4098.693     6917.795     7410.146     81.30376     162.7373      325.799      1.791     4.70     912.3374      57.4445      532.267        29     1.651     0.951  39.25   0
       327    265.8260    512.2201 307.8118322  +6.4931205     1320.952     2052.523      2537.39     81.30376     162.8022      325.799      1.646     4.53     931.5401      57.4445     205.8967        13     1.440     0.634  47.55   0
       328    343.8922    509.9015 307.7794826  +6.4967018     3122.732     4952.595     4959.117     81.69246     163.5141     325.8638      1.718     4.59     929.4595      57.4445     433.3843        21     1.501     0.856  48.38   0
       329    699.8638    507.9870 307.6316738  +6.5094324       1504.3     2573.892     2840.177     81.17377     162.8022     325.7017      1.662     4.51     923.5021      57.4445     240.6104        14     1.452     0.658  48.55   0
       330    973.2901    506.2245 307.5181450  +6.5193023     671.1841     1069.333      1862.66     81.82162     162.8022     325.7341      2.265     5.18     914.2347      57.4445     109.8992         9     1.356     0.559  46.49   0
       331    403.8253    506.8969 307.7546884  +6.4999552     554.6874      688.187     619.9556     81.82162     162.7373      325.799      1.167     3.83     928.4269      57.4445     95.59351         5     0.803     0.523 -38.74   0
       332    232.0677    505.8779 307.8260706  +6.4946025     813.0153     1167.191     1090.753     81.82162     163.0614     325.8638      1.729     4.37      932.631      57.4445     131.7176         7     1.130     0.481  56.27   0
       333    442.6437    501.3748 307.7387503  +6.5035376     506.1156     798.4548     1148.472     81.30376     163.0614     325.7665      1.824     5.04       927.21      57.4445     84.91968         8     1.645     0.436  49.34   0
       334    541.0609    500.5369 307.6978953  +6.5071857     963.6047     1535.218     1285.901     81.69246     162.9967     325.9286      1.758     6.72     925.6104      57.4445     148.0917        12     1.464     0.883  44.99   0
       335    463.6806    498.6982 307.7301022  +6.5053484     1352.338     2266.061     2375.179      81.5631     163.3849      325.961      1.782     4.35     926.5811      57.4445     246.9883        17     1.558     0.802  47.80   0
       336    825.7960    497.7705 307.5797039  +6.5178629      1429.99     2058.956      1862.94     81.17377     162.8022     325.7341      1.544     4.38     919.4158      57.4445     213.6141        13     1.348     0.656  52.73   0
       337    811.5392    496.9665 307.5856538  +6.5177180     1933.889     2854.548      2428.43     81.43353     163.0614     325.8314      1.566     4.34        919.7      57.4445     309.2128        18     1.341     0.849  37.61   0
       338    708.9099    495.0017 307.6283551  +6.5150946     14297.58     22078.99     22861.04     80.91319     162.6075     325.6368      1.606     4.05     922.9482      57.4445     2105.873        40     1.612     0.970  49.97   0
       339    610.9102    496.6241 307.6690113  +6.5111423     785.2658     1169.324     1440.686     81.69246     162.8022     325.7341      1.763     5.07     924.2823      57.4445     121.4521         8     1.195     0.609  59.12   0
       340    630.0182    490.9246 307.6612664  +6.5141349     2406.878     3767.586     4227.797     81.17377     162.7373      325.799      1.674     4.40     923.9819      57.4445     341.4386        18     1.414     0.770  43.20   0
       341    624.8083    490.4074 307.6634483  +6.5141738     471.6725     1064.956     1107.019     81.04359     162.8022     325.7665      1.431     3.31     924.0037      57.4445     111.1479         5     1.187     0.267  56.00   0
       342    602.3461    486.1111 307.6729250  +6.5151942     13965.19      25320.1     30780.67     81.69246     162.8671     326.0258      2.171     7.05     924.1761      57.4445      2420.81        61     2.488     1.063  37.92   0
       343    703.6571    489.3979 307.6307268  +6.5172315     623.2504     900.8226     812.7376     81.04359     162.6724     325.6368      1.626     4.36     922.8817      57.4445     118.3474         5     0.927     0.585  54.98   1
       344    934.1635    484.9712 307.5351168  +6.5267674      3742.24     5591.536     5254.625     81.30376     162.7373     325.7017      1.569     3.93     916.0203      57.4445     614.4344        21     1.427     0.798  47.95   0
       345    373.3156    480.8275 307.7682469  +6.5096895     27439.27     44256.25     46592.19     81.82162     162.7373     325.7665      1.736     4.25     927.1301      57.4445     4043.442        53     1.654     1.112  50.27   0
       346    888.6246    479.0612 307.5542348  +6.5276850     1218.474     2884.112     3834.882     81.30376     162.9319      325.799      2.656     9.33     917.0226      57.4445     238.6779        26     2.501     0.971  50.77   0
       347    119.3657    480.3039 307.8737557  +6.5013633     2275.873     3563.576     3767.813     81.82162     162.8671     326.0258      1.721     4.51     935.5663      57.4445     374.0472        17     1.428     0.777  45.80   0
       348    903.0203    475.4152 307.5483775  +6.5296709     5021.056      7184.38     6876.219     81.30376     162.6724     325.7665      1.535     4.11     916.5015      57.4445     819.2515        25     1.474     0.846  49.00   0
       349     52.7963    475.8714 307.9015588  +6.5009498     1418.484     2063.089     2546.276     81.17377     162.6075     325.7341      1.680     4.63     938.3889      57.4445     196.3738        16     1.326     0.814  46.26   0
       350    230.8404    471.3427 307.8277541  +6.5088141     13297.89     21477.53     22240.76     81.69246     163.0614     325.9286      1.731     4.29       931.34      57.4445     1903.842        43     1.640     1.069  49.47   0
       351    693.8077    464.6388 307.6356562  +6.5271203     652.4097     1052.716      550.272     80.91319     162.7373     325.6044      1.832     4.56     921.9346      57.4445     115.1119         6     1.408     0.419  66.32   0
       352     66.1277    465.5137 307.8963737  +6.5056737     741.6975     1314.169     1094.587     81.82162     163.2556     325.8961      1.912     5.67     937.3773      57.4445     82.86957         9     1.266     0.715  23.40   0
       353    725.7642    464.8381 307.6223736  +6.5281079     868.1131      1196.76     1336.297     81.43353     162.8671     325.7017      1.813     4.64     921.3491      57.4445     139.0422         9     1.198     0.509  45.22   0
       354    954.3849    463.7112 307.5274335  +6.5362173     918.9324      1333.18     1459.294     81.43353     162.8022     325.7341      1.454     4.90      913.851      57.4445     152.3079        10     1.272     0.535  46.41   0
       355    343.8943    461.1343 307.7811374  +6.5168285     1320.828     2120.945     1952.399     81.69246     163.1262     325.9286      1.721     4.73     926.6985      57.4445      184.387        16     1.418     0.847  45.33   0
       356    131.2388    459.9741 307.8695153  +6.5101533     4841.906     7743.187     8217.471     81.30376     162.8022     325.7341      1.663     4.04     934.7277      57.4445     728.9871        27     1.526     0.935  47.43   0
       357    235.8440    459.1133 307.8260912  +6.5140296     1413.342      2287.41     2549.265     81.69246     162.8671     325.8961      1.785     4.87     930.6646      57.4445     174.9255        18     1.405     0.887  42.48   0
       358    428.4301    458.9886 307.7460926  +6.5205537     673.2075      1158.19     1078.712     81.17377     162.7373     325.7341      1.825     5.18     925.2862      57.4445     113.1443         7     1.112     0.681  41.87   0
       359    153.1383    455.7931 307.8605605  +6.5126163     2157.261     4002.468     4105.821     81.04358     162.8022     325.6368      1.943     4.85     934.0563      57.4445     282.1774        25     1.587     1.021  63.43   0
       360    817.2736    456.6723 307.5846332  +6.5345400     711.8856     1185.912     1882.101     81.95058     163.1262     325.9286      2.460     5.31      917.788      57.4445     123.1245         9     1.183     0.694  30.48   0
       361    548.9941    455.0703 307.6961402  +6.5262165     1034.605     1571.846     1537.571     81.17377     162.6075     325.7341      1.630     4.20     923.2576      57.4445     155.1226        10     1.134     0.769  59.70   0
       362    376.7115    450.6546 307.7678603  +6.5222562     1993.635      3247.13     2891.344     81.69246     162.8671     326.0258      1.711     4.88     925.5925      57.4445     276.3497        22     1.580     0.907  48.88   0
       363    965.9683    450.2371 307.5230759  +6.5421652     862.0854     1459.813     1409.054     81.30376     162.7373     325.6693      1.724     3.17     912.6105      57.4445     181.4327         7     0.949     0.646  70.19   2
       364    264.7473    450.9368 307.8143624  +6.5183762     753.0664     1050.858     967.3516     81.69246     162.9319     325.8638      1.462     3.61     929.2265      57.4445      131.201         7     1.148     0.640  43.57   0
       365    310.2250    449.0779 307.7955335  +6.5206726     561.9788     1000.119     1101.004     81.30376     162.9319     325.8638      1.782     3.96     927.4271      57.4445     100.2271         5     0.877     0.513  33.48   0
       366    430.4493    444.1780 307.7457562  +6.5267340     6909.552     11202.01     11675.39     81.30376     163.0614      325.799      1.752     4.38     924.4426      57.4445     1041.351        35     1.616     1.021  51.43   0
       367     26.9259    444.9888 307.9133568  +6.5128229     2810.647     4775.332     5239.715     81.17377     162.6075     325.7341      1.844     4.28     938.6483      57.4445      425.989        24     1.424     1.180  61.55   0
       368    771.0709    441.5968 307.6043374  +6.5392164     12420.38     19246.72     20488.85     81.17377     162.6075     325.7341      1.643     4.12     918.6446      57.4445      2108.24        41     1.587     1.063  52.26   0
       369    763.2301    443.3613 307.6075351  +6.5382258     1941.883     3064.008     3331.852     81.30376     162.7373     325.7665      1.606     3.86     919.0208      57.4445     279.4102        16     1.258     0.790  35.24   0
       370    334.5945    440.5160 307.7857007  +6.5250253     996.6484     1688.442      1792.82     81.17377     162.6724     325.6368      1.894     5.85     926.1133      57.4445      172.285        13     1.340     0.957  39.44   0
       371   1014.9518    436.8219 307.5031781  +6.5493373     3499.229     5140.782     5303.058     81.30376     162.9967     325.7665      1.569     4.12     910.1285      57.4445     523.7944        23     1.500     0.827  44.19  16
       372    946.0707    433.2585 307.5319154  +6.5485082     591.0623     837.9996     838.9806     81.82162     162.9967     325.8961      1.607     3.97     912.6248      57.4445     93.97455         6     0.926     0.488  35.44   0
       373    179.5815    432.5497 307.8503663  +6.5230991     773.3886       1138.1      1204.21     81.17377     163.0614     325.6368      1.715     4.91     932.2683      57.4445     108.8311         7     1.234     0.553  39.08   0
       374    478.8050    427.8793 307.7262205  +6.5350838     2965.422     4712.958     4892.306     81.30376     162.4776     325.6693      1.696     4.09     922.3519      57.4445     436.2992        26     1.527     0.938  57.76   0
       375    450.8697    428.4800 307.7378054  +6.5338983     2158.249     3347.181     3436.533     81.95058     163.3203     325.8638      1.644     4.14     923.0573      57.4445     333.7224        19     1.520     0.770  46.15   0
       376    907.4557    427.4633 307.5481538  +6.5496099     748.1724     1240.151     1293.895     81.82162     162.9967     325.8961      2.157     4.70     913.8752      57.4445      120.691         8     1.229     0.509  53.16   0
       377    836.4455    424.5640 307.5777532  +6.5484329     32672.81     51328.63     53785.59     81.43353     162.9319     325.8314      1.739     4.39      916.114      57.4445     5120.322        59     1.675     1.116  57.12   0
       378    982.1443    424.7732 307.5172147  +6.5532149     493.4259     612.8583     505.6054     81.30376     163.0614     325.7341      1.263     3.44     911.0093      57.4445     91.30975         5     1.009     0.339  42.63   0
       379    328.8932    419.7875 307.7887730  +6.5333885     692.1829     1176.501     1118.233     81.43353     162.7373     325.7017      1.868     4.64     925.4216      57.4445     85.65674         8     1.151     0.532  55.75   0
       380     53.0240    419.7386 307.9033754  +6.5241233      534.056     773.1286     1203.242     81.30376     162.9319      325.799      1.721     3.89     936.5472      57.4445     86.72839         5     0.848     0.511 -52.44   0
       381    608.1818    416.9247 307.6728436  +6.5439441     2444.812     3814.958     3636.513     81.17377     162.7373      325.799      1.688     4.62     920.0565      57.4445     395.2958        18     1.607     0.710  46.78   0
       382     16.5150    417.1508 307.9186296  +6.5239605     1107.723      1677.27     1023.141     81.69246     162.9967     325.9933      1.652     4.70     938.0597      57.4445     184.6949        15     1.314     0.865  48.52   0
       383    139.8833    416.3168 307.8674096  +6.5284618     557.6877     796.5435     665.7545     81.43353     163.2556     325.9933      1.500     3.82     933.3115      57.4445     91.98792         6     0.750     0.641  61.87   0
       384    692.8963    410.5011 307.6378666  +6.5494333      77563.3     119314.6     124475.8     81.69246     163.5141     325.7341      1.670     4.24      918.639      57.4445     11874.03        78     1.671     1.114  48.97   0
       385    851.2811    411.7961 307.5720211  +6.5541986     1170.564     1919.265     2339.624     81.17377     162.5426     325.6044      1.704     5.17     915.3638      57.4445     236.2999        13     1.491     0.715  63.95   0
       386     72.3155    409.9964 307.8956933  +6.5287941     1381.317     2167.611     2508.543     81.17377     162.6075     325.6044      1.597     4.42     935.3793      57.4445     205.6547        17     1.348     0.874  48.38   0
       387    934.6428    407.7593 307.5375239  +6.5586505      931.698     1173.667     1521.586     81.43353     162.9967     325.7665      1.332     4.63     911.7605      57.4445     170.3688         9     1.289     0.472  43.61   0
       388    555.2822    407.1454 307.6951517  +6.5462067     2529.021     4231.094         4499     81.69246     162.9967      325.961      1.754     4.62     919.9819      57.4445       424.42        20     1.520     0.805  48.54   0
       389     92.6684    405.9496 307.8873762  +6.5311500     5961.984     9536.649     9919.029      81.5631     162.8671     325.8961      1.709     4.06     934.3943      57.4445     862.9783        32     1.559     1.000  52.27   0
       390    538.6473    403.3333 307.7021917  +6.5472220     6922.651     11060.16     11300.55     81.69246     162.9319     325.9286      1.705     4.54     919.9119      57.4445     1096.921        30     1.596     0.927  50.12   0
       391    267.6686    401.1015 307.8148421  +6.5390418     2541.066     3972.112     3650.532     81.69246     163.1262     325.8961      1.690     4.38     927.1557      57.4445     323.7398        23     1.551     0.942  50.85   0
       392    401.5613    398.5212 307.7593062  +6.5446069     24828.47        39620     41523.09      81.5631     163.0614     325.8961      1.757     4.35     922.4517      57.4445     3653.916        52     1.675     1.100  50.43   0
       393    509.3661    397.5648 307.7145520  +6.5486205     1343.469     1971.313     1963.818     81.43353     162.7373     325.6368      1.552     4.64     919.9178      57.4445     219.2512        13     1.364     0.721  55.80   0
       394    381.7374    397.0369 307.7675922  +6.5445536      1129.35      1908.99     2183.209     81.69246     163.0614     325.8961      1.841     5.69     922.5821      57.4445      199.702        14     1.342     0.962  73.93   0
       395    481.0215    394.1276 307.7264442  +6.5490880     1152.264     1758.383     1710.672     81.30376     162.8022     325.8638      1.693     4.79     919.9892      57.4445     160.9221        14     1.389     0.820  55.94   0
       396    796.4565    390.9454 307.5955032  +6.5609706     879.6583     1394.817     918.2198     81.82162     163.0614     325.9286      1.661     6.07     915.4391      57.4445     136.9094        12     1.387     0.761  63.37   0
       397    490.6055    388.8938 307.7226400  +6.5515697     7998.624      13014.2     13640.12     81.30376     162.6724     325.6693      1.743     4.59     919.5002      57.4445     1090.085        37     1.633     1.033  51.23   0
       398    378.6604    391.1113 307.7690716  +6.5468957     786.6513      1286.26      1614.59      81.5631     163.1262     325.9286      1.754     5.01     922.2443      57.4445     113.3503         8     1.107     0.642  33.53   0
       399    759.7486    387.6852 307.6108641  +6.5610878     3055.004     4705.263     5241.725     81.69246     162.9319     326.0258      1.701     4.27     916.1223      57.4445     464.4471        19     1.441     0.772  54.12   0
       400    915.1625    387.4207 307.5463040  +6.5663939     1002.612     1415.917     1373.184     81.30376     162.7373     325.6368      1.617     5.26     911.8005      57.4445     152.6483         9     1.127     0.694  42.69   0
       401    707.8226    387.2876 307.6324508  +6.5595138     726.9929     1194.061     959.2858     81.69246     162.8022      325.799      1.713     3.41      916.675      57.4445     147.5227         7     0.896     0.565  56.49   0
       402    317.3256    385.6508 307.7947379  +6.5470881     1112.112     1721.324         1819     81.69246     163.0614     325.9286      1.717     5.30     924.1794      57.4445     142.3394        15     1.353     0.789  53.16   0
       403    253.5740    379.9847 307.8214151  +6.5472827     703.9227         1128     786.6944     81.43353     162.8671     325.8314      1.638     4.16     926.8546      57.4445     118.6074         5     0.750     0.659   3.92   0
       404    152.7877    379.4208 307.8633040  +6.5441234     1116.168     1638.638     1254.115     81.43353     162.6724      325.799      1.645     5.29     932.6669      57.4445     185.9041        13     1.507     0.671  40.74   0
       405    380.5475    373.0994 307.7688990  +6.5543928     7006.473      11290.7     11548.37     81.69246     162.9967     326.1229      1.738     4.46     921.0945      57.4445     1008.276        34     1.661     0.968  50.63   0
       406    236.4615    373.6164 307.8287406  +6.5493352     1963.026     3283.696     3177.696     81.17377     162.9319     325.7017      1.796     4.49     927.3639      57.4445     329.7249        20     1.532     0.853  47.07   0
       407    748.3845    369.0539 307.6162156  +6.5683970     51934.22     80812.79     84216.12     81.04358     162.9967     325.6044      1.662     4.13     915.0764      57.4445     8757.723        70     1.666     1.093  51.74   0
       408    733.7746    373.0904 307.6221490  +6.5662420     936.2578     1624.499     1685.156     81.82162     162.7373     325.7341      1.813     6.29     915.5013      57.4445     167.6321        10     1.262     0.880  14.95   0
       409    420.1553    368.4871 307.7526006  +6.5576267      2200.66     3668.258     3321.281     81.69246     162.8671     325.8961      1.669     4.68     920.2825      57.4445      296.005        25     1.679     0.905  53.76   0
       410    983.3211    366.2238 307.5187013  +6.5774189     1605.804     2380.526       2051.7     81.30376     162.8022     325.8638      1.503     4.03     908.2094      57.4445     360.3813        15     1.398     0.667  47.99   0
       411    565.9958    365.6623 307.6921063  +6.5636866     1096.152     2012.209     2155.564     81.04358     162.7373     325.6368      1.789     6.91     916.4985      57.4445     157.1335        16     1.787     0.748  57.89   0
       412    924.1523    365.1935 307.5433194  +6.5758679     2373.975     3470.724     3297.151     81.17377     162.8022     325.5071      1.585     4.28      910.626      57.4445      454.285        17     1.503     0.707  45.79   0
       413    457.2702    364.8598 307.7373042  +6.5603699     923.4572     1571.174     2274.472     81.82162     162.9967     325.9286      1.809     4.14     918.7811      57.4445     145.7949        11     1.169     0.754  50.01   0
       414    406.6298    364.1439 307.7583671  +6.5589649     1800.209     2818.036     2987.404      81.5631     163.0614      325.799      1.712     5.10     920.2534      57.4445     249.1194        18     1.480     0.845  46.58   0
       415    827.9630    358.3353 307.5835154  +6.5754832      1181.09     1880.901     2097.212      81.5631     162.9967      325.961      1.708     4.73     913.4221      57.4445     172.1161        13     1.436     0.604  41.61   0
       416    457.2379    359.0827 307.7375136  +6.5627530     637.0859     1097.892     1284.551     81.69246     162.9319     325.8638      1.759     4.33     918.3784      57.4445     92.91174         5     1.035     0.517  53.99   0
       417    960.3425    356.7396 307.5285686  +6.5805659     377.0848     561.9409     1000.383     81.82162     162.9319     325.9286      1.012     3.28     908.7889      57.4445     87.29773         5     0.742     0.447 -74.34   0
       418    183.0861    355.3486 307.8515359  +6.5550781     2064.149     3435.171     3297.697     81.69246     162.8671      325.961      1.813     4.39     930.5781      57.4445     292.7561        20     1.488     0.838  49.92   0
       419    437.4230    355.5688 307.7458650  +6.5635380     1201.503     1767.845     2107.549     81.04359     162.8022     325.6693      1.627     6.04     918.9201      57.4445     171.9346        13     1.383     0.743  41.12   0
       420    746.8757    353.6064 307.6173649  +6.5747220     5884.605     9186.517     9386.981     81.30376     162.4776     325.7341      1.686     4.17      914.041      57.4445      879.879        30     1.534     0.964  43.43   0
       421    219.0504    354.0340 307.8366396  +6.5568311     741.5322     1016.702     647.0271      81.5631     162.9967      325.799      1.449     4.17     927.5839      57.4445     117.4198         7     0.961     0.516  52.54   0
       422    763.2857    351.4995 307.6106183  +6.5761407     2648.867     4077.731     5019.562     81.69246     163.5141      325.961      1.754     3.95     913.8587      57.4445     472.8513        22     1.461     0.888  41.60   0
       423    337.6815    352.9690 307.7873911  +6.5612603     719.7372     1163.354     521.7021      81.5631     162.8671     325.8638      1.625     4.44     921.0886      57.4445     111.3372         7     0.878     0.638  17.67   0
       424     79.5585    352.6985 307.8946350  +6.5526848      1196.37     1755.248     2298.907     81.69246     162.8671     326.1229      1.819     5.01     933.4161      57.4445     181.2601        13     1.202     0.797  46.55   0
       425    352.9344    346.2977 307.7812807  +6.5645262     1574.418     3662.181     4114.773     81.69246     163.0614     325.9286      2.499     7.77     920.0558      57.4445     178.1531        29     1.945     1.148  14.59   0
       426     66.7443    346.8192 307.9001586  +6.5546794     1235.177      1866.28     2165.464     81.17377     162.9967     325.7017      1.569     5.11       933.69      57.4445     202.9443        16     1.476     0.807  57.88   0
       427   1001.5097    342.5727 307.5119423  +6.5877875     5991.515     8804.866     9069.735     81.82162     162.7373     325.7665      1.624     4.33     906.2462      57.4445     1014.324        28     1.484     0.883  49.29   0
       428    479.6346    342.3368 307.7287766  +6.5704160     1970.909     3281.812     3618.929      81.5631     163.0614     325.8961      1.726     4.41     916.3488      57.4445     296.1652        19     1.450     0.826  46.82   0
       429    242.1227    337.8254 307.8276053  +6.5642967     5561.816     9070.074     9882.291     81.30376     162.9319     325.8638      1.713     4.27     926.0456      57.4445     727.0435        31     1.580     0.992  52.86   0
       430    806.6050    335.9783 307.5931448  +6.5839960     621.9287     892.2468     1196.161     81.30376     162.7373     325.7017      1.600     4.59     912.7836      57.4445     103.6316         6     1.198     0.500  44.14   0
       431    933.0619    333.0289 307.5407036  +6.5894406     490.2198     516.2626     360.3543     81.43353     162.9967     325.8638      1.300     3.75     908.9333      57.4445     85.83459         5     1.008     0.401  29.43   0
       432    761.4752    331.5046 307.6120467  +6.5843324     830.5597     1228.509     1155.878     81.30376     163.1909     325.8961      1.615     5.24     912.7953      57.4445     149.7426        10     1.473     0.616  42.21   0
       433    219.0648    330.5683 307.8374314  +6.5665159     715.0155     1043.309      742.895     81.43353     162.9967     325.8638      1.454     3.61     927.3009      57.4445     119.1191         6     1.152     0.326  52.05   0
       434    376.6231    328.7664 307.7720343  +6.5725575     1567.891     2419.913     2432.508     81.17377     162.8022     325.7017      1.650     3.54     919.1903      57.4445     290.3501        17     1.300     0.890  40.67   0
       435    963.3204    327.8755 307.5283055  +6.5925782     1026.506      1531.99     1399.637     81.95058     163.2556     326.0258      1.552     4.63     907.3331      57.4445      194.947         8     1.171     0.520  49.95   0
       436    145.9950    324.4000 307.8679978  +6.5666017     1828.166     3041.661     3223.668     80.91319     162.6724     325.6368      1.806     4.73     931.6687      57.4445     256.9537        19     1.519     0.821  51.70   0
       437    298.4309    324.5057 307.8046646  +6.5716877      1151.42      1757.21      2176.06     81.82162     162.8022     325.8961      1.700     5.22     922.6438      57.4445     156.9852        11     1.429     0.540  43.39   0
       438    899.2190    319.3719 307.5552261  +6.5939463     1748.291     3124.098     3554.996     81.30376     162.8022     325.8314      2.008     5.22     909.5481      57.4445     289.8724        18     1.578     0.757  42.47   0
       439    555.7697    320.1983 307.6978954  +6.5821072     2188.759     3530.544     3265.724     81.04358     162.8022     325.7017      1.684     4.68     913.6575      57.4445     345.6068        20     1.562     0.792  41.34   0
       440    719.3218    317.7697 307.6300252  +6.5885900     4806.291     7546.559     7884.304      81.5631     163.0614     325.8638      1.680     4.33     912.1469      57.4445     763.5168        28     1.562     0.896  50.57   0
       441    660.0242    317.5615 307.6546694  +6.5866900     2106.744     3159.418     3618.521     81.30376     162.8022     325.7017      1.571     4.36     912.3102      57.4445     326.6357        19     1.591     0.758  54.51   0
       442    375.1404    312.0651 307.7732173  +6.5794004     721.9489     1260.246     1432.731     81.82162     162.9319     325.9286      1.948     6.18     918.7831      57.4445     101.7711         9     1.375     0.782  41.55   0
       443    915.2724    309.6871 307.5488831  +6.5984799     1127.274     1738.442     1584.306     81.82162     163.2556     325.8961      1.680     5.19     908.5779      57.4445     169.9493        15     1.461     0.727  56.09   0
       444    218.9028    303.1423 307.8384312  +6.5778292     2130.032     3317.894     3414.942      81.5631     162.9319     326.0581      1.683     4.35     926.9838      57.4445      285.994        18     1.371     0.839  45.25   0
       445    861.6626    302.1565 307.5714121  +6.5997961      1621.47     2319.992     2273.384     81.69246     162.9319      325.961      1.550     4.11     910.0858      57.4445     302.2153        14     1.422     0.705  48.25   0
       446    751.8617    301.2720 307.6170635  +6.5964881     1627.021     2458.188     2277.074     81.82162     162.9967      325.961      1.688     4.60     911.1278      57.4445     260.8865        15     1.436     0.657  48.22   0
       447    240.7815    297.2465 307.8295419  +6.5809986     508.3206      810.459      481.218     81.17377     162.9319     325.6693      1.437     3.45     925.4162      57.4445     86.72852         5     0.979     0.352  46.23   0
       448    314.4714    295.4906 307.7989860  +6.5842017     626.2075     912.5889     824.5756      81.5631     163.2556     325.8961      1.467     4.10     920.9738      57.4445     101.5863         5     1.201     0.401  54.29   0
       449    778.7717    292.0915 307.6061930  +6.6011777     12944.42     20317.59      22233.9     81.82162     162.7373     325.7665      1.676     4.38      910.395      57.4445     2079.792        47     1.607     1.207  39.82   0
       450    717.3342    288.5847 307.6318386  +6.6005686      679.756     1140.492     1218.929     81.17377     162.8671     325.8314      1.765     4.96     910.6119      57.4445     107.7205         8     1.290     0.541  72.27   0
       451    458.3414    287.3320 307.7394889  +6.5924023     1380.876     2514.736     3370.531     81.82162     162.9319     325.8961      2.157     4.75     913.5797      57.4445     211.9803        17     1.476     0.852  48.72   0
       452    141.0129    286.1019 307.8713707  +6.5822395     2125.899     3528.466     3653.875     81.43353     162.7373     325.6693      1.780     4.57     930.7308      57.4445     306.7485        21     1.631     0.793  52.09   0
       453    115.6796    285.2030 307.8819262  +6.5817571     1115.126      1857.24     1778.709     81.04359     162.4776     325.6368      1.757     5.82     931.7286      57.4445     173.9222        14     1.458     0.655  53.24   0
       454    452.6946    292.8249 307.7416487  +6.5899457     21489.36     34969.03     37048.73     81.82162     162.7373     325.7665      1.762     4.33     914.2023      57.4445     2846.189        53     1.689     1.123  49.85   0
       455    167.7030    284.2110 307.8603464  +6.5839186     741.2252     1120.204     724.2498     81.43353     162.6075     325.7017      1.635     4.51     929.4611      57.4445     132.7345         7     1.084     0.534  27.08   0
       456    915.1899    282.6807 307.5498294  +6.6096232     1409.861     2108.241     1836.377     81.30376     162.6724     325.7341      1.569     4.61     907.3453      57.4445      229.344        13     1.364     0.682  42.89   0
       457    576.7554    278.6475 307.6905842  +6.5999594     4594.985     7049.052     6831.763     81.69246     162.9319     325.8638      1.663     4.04     911.0726      57.4445     673.3901        26     1.446     0.943  45.69   0
       458    539.3372    278.6485 307.7061310  +6.5987041     1901.254     2931.922     2979.694      81.5631     162.9319      325.961      1.674     4.77     911.1568      57.4445     293.4421        19     1.594     0.730  47.43   0
       459    297.0128    279.4246 307.8067853  +6.5902452     866.9944     1345.438     1108.123     81.43353     162.8022     325.8314      1.581     5.20     921.3122      57.4445     134.5984        10     1.274     0.600  51.25   0
       460    937.7099    275.6996 307.5407079  +6.6132568     2625.538     3777.452     3749.948     81.69246     163.4495     325.8638      1.622     4.48     906.0449      57.4445     411.9549        19     1.456     0.766  53.43   0
       461    883.8265    275.2413 307.5631123  +6.6116454     11069.05     17001.81     17252.17     81.30376     162.8022     325.7341      1.621     4.44     908.1671      57.4445     1720.465        36     1.571     0.932  50.00   0
       462    559.0622    275.3462 307.6980474  +6.6007286     840.0042      1170.75      1025.71     81.69246     162.9319     325.8638      1.567     5.92     910.8277      57.4445     118.5331        11     1.397     0.707  40.58   0
       463    381.2849    277.5366 307.7718366  +6.5938570     1476.914     2341.713     1971.798     81.82162     163.1262     325.8638      1.716     4.47     917.2401      57.4445     216.0923        19     1.416     0.885  52.20   0
       464    203.4889    275.8469 307.8457632  +6.5885752     613.6505     1044.922     732.2473     81.69246     162.8671     326.0581      1.909     4.04     927.4283      57.4445     95.82117         6     1.006     0.463  34.83   0
       465    970.4951    273.0820 307.5271738  +6.6154322     9670.183      14820.3      15400.3     81.43353     163.3203     326.0258      1.617     4.33       904.46      57.4445     1723.528        32     1.571     0.887  49.75   0
       466    681.9319    273.1328 307.6470709  +6.6057602     2800.527     4594.774     5133.234     81.69246     163.0614     325.9286      1.788     4.21     909.9127      57.4445      376.587        25     1.520     0.934  53.76   0
       467     10.0080    271.7446 307.9262862  +6.5837494     24255.63     39716.19     42017.65     81.04359     162.8022     325.6044      1.738     4.18     935.7919      57.4445     3451.679        54     1.704     1.114  49.43  16
       468    256.2535    272.5497 307.8239533  +6.5917115     1201.448     1973.393     1924.044     81.82162     162.9319     325.9286      1.681     5.78     924.0397      57.4445     172.2185        13     1.427     0.660  41.76   0
       469    490.6979    268.0389 307.7266997  +6.6014508     1853.621     3135.325     3476.635     81.69246     162.8671     326.1229      1.771     4.66     910.9777      57.4445     276.3435        19     1.443     0.891  43.66   0
       470    822.2968    264.5344 307.5890400  +6.6140070     1960.437     3129.828     3136.129     81.69246     163.0614     325.9286      1.754     5.27     908.7886      57.4445     368.7209        18     1.679     0.703  52.12   0
       471    874.6292    263.6137 307.5673267  +6.6161369     1936.981     2950.327     3206.212     81.30376     162.8022      325.799      1.636     4.61     908.0375      57.4445     329.0413        18     1.497     0.782  53.06   0
       472    502.5922    263.9456 307.7218966  +6.6035393     2351.861     3802.233     4163.988     81.17377     162.8671     325.6044      1.653     4.14     910.5685      57.4445     376.2874        21     1.455     0.877  42.57   0
       473    734.0046    261.1868 307.6258390  +6.6124342     38683.05     60244.36     62566.25     81.30376     162.7373     325.7665      1.641     4.24     909.1083      57.4445     6274.769        61     1.661     1.046  50.30   0
       474    337.0743    260.4938 307.7907839  +6.5994049     5263.181     11842.74     13068.69      81.5631     163.1262     325.8961      2.287     6.67     918.8734      57.4445     627.9413        49     2.073     1.343  84.50   0
       475    967.7891    259.8316 307.5287454  +6.6208106     2857.851     4568.762     4874.494     81.17377     162.7373     325.7665      1.677     4.68     903.9313      57.4445     447.3143        21     1.519     0.808  54.17   0
       476   1006.0436    258.6361 307.5128904  +6.6225813     1692.791     2539.659     2417.085     81.43353     162.9319     325.7341      1.589     4.57     902.2352      57.4445     265.2201        14     1.347     0.690  48.40   0
       477    901.8372    258.2844 307.5562015  +6.6192458     7551.387     11499.42     11974.76     81.69246     162.9967     325.8638      1.625     4.52      906.649      57.4445     1211.682        34     1.591     0.916  49.24   0
       478    445.4810    257.3868 307.7458481  +6.6043291     4905.801     7795.819     8336.444     81.30376     162.7373     325.7017      1.736     4.27     912.4412      57.4445     733.7389        31     1.563     1.001  51.55   0
       479    922.2754    248.2729 307.5480472  +6.6240607      865.537     1225.771     1641.845     81.95058     163.2556     325.9286      1.612     6.22     905.3108      57.4445     121.5283        13     1.404     0.775  66.07   0
       480    102.8522    248.6078 307.8885011  +6.5964276     4601.732     7459.378         7610     81.17377     162.8022     325.6044      1.715     4.29     931.2206      57.4445     632.1104        30     1.505     1.045  50.02   0
       481    273.1117    245.3439 307.8178738  +6.6035065     32186.48     52587.13     55255.93     81.69246     162.8671     326.0258      1.762     4.34     922.7166      57.4445     4762.152        60     1.714     1.135  49.32   0
       482    248.4338    246.3731 307.8280920  +6.6022516      6206.91     9996.757      10296.9     81.17377     162.7373     325.6693      1.742     4.30     924.3928      57.4445     922.8685        32     1.605     0.985  49.00   0
       483    702.5994    244.9665 307.6394369  +6.6180770     795.4008     1078.414      1151.16     80.78257     162.8022     325.6368      1.353     3.10     908.5115      57.4445     155.5708         6     0.955     0.465  32.51   0
       484    397.1750    240.8512 307.7664799  +6.6095311     46961.16     76916.38     80508.63     81.30376     162.9967      325.799      1.744     4.25     914.4946      57.4445     6670.268        65     1.698     1.146  49.12   0
       485    153.1516    242.1165 307.8678242  +6.6008009     3810.367     6255.482     6415.297     81.69246     162.9967      325.961      1.730     4.23     928.6492      57.4445     527.6665        29     1.597     0.949  50.17   0
       486    414.5989    241.3570 307.7592232  +6.6099076     1461.221      2190.41     2589.366     81.04359     162.6724     325.5071      1.695     4.31     913.4929      57.4445      211.403        17     1.365     0.846  61.69   0
       487    301.1631    238.5441 307.8064499  +6.6072562     17404.66     28229.12      29596.3      81.5631     162.9967     325.9286      1.755     4.26      920.747      57.4445     2620.401        50     1.665     1.099  47.92   2
       488    308.5084    238.5431 307.8033982  +6.6075036     1938.412     3337.948      4125.33      81.5631     162.9319     325.9933      1.974     7.13     920.1455      57.4445       253.97        25     1.637     1.400 -77.74   3
       489    736.4357    237.1064 307.6256435  +6.6224539     31727.07     49301.45     51787.34     81.82162     162.8671     325.9933      1.679     4.41     907.7996      57.4445     5137.747        55     1.672     1.023  49.85   0
       490    684.5379    239.4606 307.6471279  +6.6197444     1026.923     1510.545      1127.07     81.69247     162.9967     325.9286      1.750     5.71     908.3983      57.4445     130.4614        12     1.156     0.990   9.75   0
       491    784.8198    237.8866 307.6055130  +6.6237513     1216.122     1890.561     2201.273     81.43353     162.7373     325.8314      1.631     5.09     907.7527      57.4445     181.2559        13     1.297     0.738  49.61   0
       492     53.2465    234.2714 307.9095989  +6.6006723     8709.698      14169.6     14402.89     81.69246     162.9967     325.8961      1.741     4.51      934.192      57.4445      1336.52        36     1.636     1.022  51.94   0
       493    995.0594    231.8568 307.5183582  +6.6332669     891.2664     1397.975     1460.839     81.82162     162.9967     325.9286      1.700     5.51     901.5014      57.4445     164.8343        11     1.377     0.678  53.88   0
       494     87.1978    232.3237 307.8955595  +6.6026205     1560.718     2452.668     2012.117     81.17377     162.4776     325.7665      1.601     4.72     931.7432      57.4445     237.7617        17     1.391     0.794  39.56   0
       495    109.5266    232.1727 307.8862876  +6.6034352     925.5801     832.4725     1120.151     81.43353     162.9319     325.8314      0.781     1.46     930.3858      57.4445     303.9637         5     0.617     0.435  55.84   0
       496    995.9974    217.8338 307.5184417  +6.6390858      2154.09     3580.902     4504.203     80.91319     162.8022     325.6368      2.279     4.72     900.6837      57.4445     367.7622        25     1.786     0.973  66.05   2
       497    578.9785    215.3989 307.6918037  +6.6261373     984.8953     1609.451     1957.333     81.30376     162.6724     325.6044      1.713     5.40     907.4548      57.4445     152.5449        12     1.344     0.698  47.85   0
       498    587.3484    213.3100 307.6883966  +6.6272801     1881.809     3174.794     3372.259     81.69246     162.8022     326.0258      1.832     4.47     907.4387      57.4445     308.4858        20     1.574     0.824  44.40   0
       499    331.4291    213.6789 307.7947195  +6.6185357     1099.954     1866.451     1665.908      81.5631     162.9967     325.8961      1.659     5.24     918.0367      57.4445     185.6852        12     1.389     0.736  51.29   0
       500    272.0032    211.5492 307.8194829  +6.6174163     28586.28     47317.43      50425.2     81.04358     162.7373     325.4747      1.784     4.41     922.7432      57.4445     4126.083        59     1.735     1.117  50.53   0
       501     17.3492    209.9987 307.9253400  +6.6094790     4292.212     6925.312     7168.404     81.04358     162.6075     325.4422      1.717     4.44     937.2215      57.4445     633.4797        29     1.636     0.903  50.83   0
       502    570.7399    222.0190 307.6950025  +6.6231289     741.7887     1354.765     1198.117     81.30376     162.8671     325.7341      1.606     4.98     907.6269      57.4445     117.6237         9     1.346     0.522  30.19   0
       503    703.6458    208.2182 307.6402458  +6.6332786     7678.284     11886.85     12823.06     81.30376     162.8671     325.6368      1.655     4.18     906.8832      57.4445      1216.56        34     1.640     0.941  47.34   0
       504    181.5049    209.8271 307.8571425  +6.6150814     855.4208     1247.763     953.6577     81.82162     162.7373      325.799      1.489     3.07      926.707      57.4445     154.9313         8     0.979     0.564  21.68   0
       505    257.9366    206.8152 307.8254884  +6.6188968     825.7072     1457.792     1736.231     81.17377     162.8671     325.7341      1.950     4.62     923.5425      57.4445     128.4008        10     1.011     0.714  58.29   0
       506    114.4163    205.2421 307.8851728  +6.6147141     4902.508     8033.307     8498.741     81.17377     162.8022     325.6693      1.774     4.47     929.1375      57.4445     684.1477        32     1.587     1.011  51.81   0
       507    576.3604    203.7392 307.6932867  +6.6308616     694.5062     1083.818      1606.44     81.69246     162.9967      325.961      1.856     4.86     907.1472      57.4445     134.5033         9     1.252     0.535  40.64   0
       508    453.5876    202.9285 307.7443274  +6.6270766     1227.862     1993.325     2141.264     81.17377     162.6075     325.7017      1.762     4.95     909.0868      57.4445     180.9092        14     1.375     0.791  41.41   0
       509    385.0966    201.4380 307.7728364  +6.6253913     3642.933     6299.166     6925.358     81.69246     162.8671     326.0581      1.875     4.67     913.5751      57.4445     469.2737        31     1.809     0.925  52.75   0
       510    642.5813    202.8121 307.6658022  +6.6334641     695.7454     1028.818     1113.337     81.43353     162.6724      325.799      1.467     3.38       907.15      57.4445      113.618         5     0.783     0.422  67.16   0
       511    349.5401    200.2116 307.7876518  +6.6247025     2924.437     4851.931      4949.86     81.04359     162.8671     325.6044      1.823     4.85     916.3668      57.4445     384.4399        24     1.605     0.906  52.31   0
       512    103.9811    200.0508 307.8896852  +6.6165049     1705.856     2737.237     3017.416     81.17377     163.0614     325.6693      1.690     4.55     929.3132      57.4445     212.6041        19     1.468     0.794  45.26   0
       513    739.9828    198.3073 307.6254823  +6.6385856     691.1011     1063.546      496.608     81.43353     162.8022     325.7341      1.532     4.81     906.2145      57.4445     120.9514         7     1.370     0.479  50.81   0
       514    665.6143    197.8238 307.6564005  +6.6362945     850.5918     1419.543     1699.827     81.43353     162.8022     325.8314      1.876     5.58     906.7806      57.4445     122.2639         9     1.479     0.593  51.72   0
       515    996.4320    194.6497 307.5190435  +6.6486688     1680.573     2474.482     2620.013     81.43353     162.9967     325.8314      1.479     4.06     899.1598      57.4445     300.6976        11     1.177     0.641  54.51   0
       516    663.2288    187.9932 307.6577245  +6.6402718     5933.372     9573.123     10399.04     81.17377     162.8022     325.7017      1.699     4.24     906.4072      57.4445     934.5461        34     1.636     0.953  48.32   0
       517    201.4296    189.1104 307.8495687  +6.6243020      5398.34     8613.346     8465.326     81.82162     162.7373     325.8314      1.720     4.41     925.7964      57.4445     777.2619        32     1.623     1.007  49.51   0
       518     84.1476    188.9989 307.8983019  +6.6203975     2060.839     3576.647     4038.868     81.04359     162.6075     325.4422      1.763     4.46     930.4099      57.4445     281.5808        20     1.514     0.835  54.18   0
       519    811.4136    187.7337 307.5961585  +6.6453399     1063.551     1282.909     1238.805     81.17377     162.8022      325.799      1.479     4.34     904.5306      57.4445     205.1205        12     1.237     0.640  46.22   0
       520    615.4039    185.2995 307.6776881  +6.6397808     9003.351     14515.88     15004.86     81.43353     162.7373     325.5396      1.725     4.31     907.0306      57.4445     1484.044        35     1.613     0.987  51.39   0
       521    553.3821    184.9795 307.7034703  +6.6378333     559.6422     873.6269     1290.911     81.43353     162.8671      325.799      1.753     4.14     906.2946      57.4445     76.80096         5     0.785     0.622  -3.19   0
       522     14.4619    185.2077 307.9273843  +6.6196127     779.9592     1369.833     1365.363     81.04359     162.8022     325.7017      1.872     4.55     937.8573      57.4445      118.314         7     1.045     0.627  75.90   2
       523    342.5864    181.1537 307.7911884  +6.6323340     3342.637     6011.169     6807.018     81.04359     162.8022     325.6693      1.948     4.63     917.0212      57.4445     498.7288        32     1.482     1.272  35.26   0
       524    988.7123    180.2037 307.5227388  +6.6543732     809.1813     1236.892     1567.731     81.17377     162.6724      325.572      1.757     6.28     898.4808      57.4445     107.2363        10     1.368     0.810  58.91   0
       525    524.3256    180.2877 307.7157029  +6.6387948     1594.026     2435.311     1632.856     81.69246     163.3203     325.9933      1.717     4.80     906.3776      57.4445     235.9232        15     1.385     0.726  51.02   0
       526    618.9164    176.7747 307.6765174  +6.6434168     51638.14     81657.56      85508.8     81.69246     162.7373     325.8638      1.691     4.16      906.813      57.4445      7124.77        68     1.688     1.104  48.94   0
       527    297.9705    170.5514 307.8100868  +6.6352095      3279.05     5446.195     5213.142     81.30376     163.0614      325.799      1.729     4.70     921.2515      57.4445     523.8607        25     1.526     0.966  44.71   0
       528    697.7993    165.0682 307.6441357  +6.6508913     964.9065     1454.404     884.4253     81.04358     162.5426     325.6693      1.551     4.88     905.2153      57.4445     135.5504        12     1.474     0.700  39.89   0
       529    669.4459    163.9951 307.6559537  +6.6503844      1309.32     2130.342     1766.187     81.04358     162.6724      325.572      1.633     5.28     905.2911      57.4445     185.8044        13     1.316     0.722  57.89   0
       530    683.4138    160.7469 307.6502596  +6.6521929     3144.354      4917.07     4640.011     81.04359     162.9319     325.6368      1.686     4.65     905.0551      57.4445     470.0975        23     1.505     0.852  48.13   0
       531      2.4874    153.0320 307.9334560  +6.6324873      6520.48     14565.47     22950.17     81.82162     145.9769     264.0748      3.819    10.05      938.734      57.4445       1127.5       113     4.019     1.702 -87.11  24
       532     55.5886    158.5931 307.9112034  +6.6319831     448.9436     551.9069      309.876     81.30376     162.8022      325.799      1.513     4.49     932.7302      57.4445     87.83594         5     1.341     0.428  45.14   0
       533    425.1363    151.7919 307.7578847  +6.6472255     3829.351     6073.342     6058.799     81.17377     162.7373     325.7017      1.686     3.98     908.1328      57.4445     625.9084        25     1.546     0.895  50.42   0
       534    879.7413    148.1721 307.5691028  +6.6639525     2217.216     3339.695     3620.135     81.30376     163.0614      325.799      1.627     4.19     900.8342      57.4445     369.7397        19     1.392     0.848  58.39   0
       535    897.7075    147.1961 307.5616700  +6.6649558     3879.386     5881.558     5815.451     81.30376     162.6724     325.6693      1.617     4.32     900.2731      57.4445      697.608        24     1.499     0.850  51.32   0
       536    578.0416    147.5112 307.6944935  +6.6541237     666.0892     858.3758     484.0071     81.69246     162.9319     325.9286      1.277     4.13     905.5505      57.4445      126.884         7     0.969     0.582  57.27   0
       537    589.8488    145.7957 307.6896454  +6.6552277     1798.128     2374.068     2058.969     81.04358     162.8022     325.5396      1.523     4.33     905.6701      57.4445     230.5483        15     1.228     0.782  39.29   0
       538    388.5802    143.4327 307.7733583  +6.6494473     1876.334     3122.182     2940.818     81.17377     162.8022     325.7017      1.761     4.81     911.6965      57.4445     262.4062        21     1.566     0.829  43.19   0
       539    235.4218    144.7092 307.8369548  +6.6437703     644.9442     1125.088     1317.353     81.69246     162.8022     325.7665      1.703     5.13     924.1541      57.4445     90.94281         8     1.192     0.625  56.76   0
       540    136.4835    140.4664 307.8782089  +6.6421900     3087.988     4941.598     5814.371     81.95058     163.2556      325.961      1.829     4.33     926.3713      57.4445     489.3804        27     1.560     0.958  45.34   0
       541     18.2871    138.2782 307.9273941  +6.6391090     11655.24      19205.6     20474.69     81.69246     163.3203     326.0258      1.763     4.46     935.2074      57.4445     1712.865        44     1.700     1.074  53.35   0
       542    284.7521    139.0225 307.8166507  +6.6477769     1288.823     2135.665      2619.43     81.30376     162.9967     325.7665      1.850     4.41     922.3187      57.4445     176.5271        15     1.335     0.790  46.07   0
       543    557.7515    138.5337 307.7032290  +6.6571483     637.0417     1018.501     814.3759      81.5631     162.9319     325.8961      1.624     4.72     904.9608      57.4445     107.7739         6     1.277     0.496  43.46   0
       544    545.5518    138.4538 307.7083011  +6.6567721     900.1642     1451.919     1095.614     81.69247     162.9967      325.961      1.587     4.19     904.7872      57.4445      119.048        10     0.987     0.757  25.00   0
       545    753.6358    137.6255 307.6218621  +6.6640868     691.0911     1152.194     1749.722     81.30376     162.8022     325.6693      2.140     5.12     903.1497      57.4445     102.2767         7     1.022     0.724  39.35   0
       546    819.9284    132.9245 307.5944734  +6.6682452     6291.688     9492.654     9794.303     81.95058     163.2556     325.8961      1.613     4.15     901.0206      57.4445     972.6748        29     1.544     0.892  51.42   0
       547    410.3935    134.2149 307.7646073  +6.6539843     1048.741     1539.396     1411.919     81.30376     162.7373     325.7341      1.604     4.65     909.0663      57.4445     149.9906        11     1.124     0.850  38.97   0
       548      1.8075    126.3775 307.9346470  +6.6434644      2307.11     3282.298     4957.302     76.48536     136.6358     253.0063      2.061     4.63     935.3472      57.4445     345.4801        19     1.804     0.730  65.78  26
       549    765.0988    133.2020 307.6172483  +6.6662961     3011.639     4710.203     4464.441     81.17377     162.7373      325.572      1.565     4.46      902.499      57.4445      537.449        19     1.466     0.756  46.12   0
       550     90.3778    134.1239 307.8975819  +6.6432540     560.4008     671.3272      667.773     81.30376     162.8022     325.8314      1.293     3.53     927.6767      57.4445     97.47565         5     0.817     0.441  72.91   0
       551    527.3507    131.2747 307.7161077  +6.6591243     859.7787     1307.043     1573.463     81.69246     163.0614     325.9286      1.557     5.31     905.0473      57.4445     161.6089        13     1.509     0.633  41.81   0
       552     43.3069    131.2506 307.9172379  +6.6428529     982.9335     1532.365     1131.285      81.5631     162.8022     326.0905      1.504     4.96     932.0637      57.4445     136.0358         9     1.286     0.541  41.26   0
       553    420.2092    129.9442 307.7606735  +6.6560766     854.9824     1349.458     1357.198     81.04358     162.9319     325.6044      1.710     4.91     908.0739      57.4445     130.0861         9     1.208     0.565  62.14   0
       554     58.6585    130.0655 307.9108997  +6.6438597     3178.544     4832.764      5220.79     81.82162     162.9319     325.9286      1.625     4.66     930.4727      57.4445     493.4661        23     1.424     0.936  49.87   0
       555    647.7777    130.6287 307.6660875  +6.6634290     515.3901     701.3178     936.5971     81.17377     162.8022     325.7665      1.329     3.42     904.2234      57.4445     80.33795         5     0.762     0.444  17.89   0
       556    582.5508    126.9944 307.6933151  +6.6627424     1376.489     1924.024     1935.507     81.04358     162.8022     325.5396      1.470     3.65     904.8004      57.4445     231.5647        13     1.218     0.701  50.02   0
       557    206.0458    127.4123 307.8497492  +6.6499199     3358.078     3528.266       3440.4     81.04358     162.8022     325.6044      0.667     2.02     924.6714      57.4445      1867.52         5     0.737     0.201 -85.35   0
       558    759.7038    120.7221 307.6199124  +6.6712661     1901.499     2878.023      2907.15     81.43353     163.1909      325.961      1.577     4.57     901.9916      57.4445     332.5125        15     1.453     0.670  45.98   0
       559    400.5178    120.8443 307.7691648  +6.6591706     999.2338     1085.779     1166.557     81.69246     162.9967     325.8638      1.512     5.30     910.0996      57.4445     167.7272        12     1.332     0.671  48.73   0
       560     73.8699    121.4554 307.9048725  +6.6479258     875.2107     1154.818     1196.418     81.69246     162.8671     325.8638      1.497     5.86     928.6171      57.4445      138.543         9     1.092     0.884  47.76   0
       561    651.1440    120.8113 307.6650212  +6.6675935     545.7148     657.4363     749.7812     81.04358     162.9319      325.572      1.569     4.22     903.6509      57.4445     69.22211         6     1.202     0.423  61.17   0
       562     97.8301    119.8383 307.8949719  +6.6494007     876.9244     1495.553     1213.065     81.30376     162.7373     325.7665      1.794     5.98      926.625      57.4445     155.2708        10     1.389     0.725  47.49   0
       563     86.3841    114.4244 307.8999122  +6.6512492      9139.28     14553.86     14922.25     81.43353     162.8671     325.8314      1.732     4.42     927.3464      57.4445     1345.124        34     1.625     0.996  52.19   0
       564    415.4659    114.1533 307.7631806  +6.6624342     2548.224      4103.35     4355.454     81.69246     162.9319     325.8961      1.748     4.72     908.2969      57.4445     349.7596        22     1.412     0.967  41.36   0
       565    629.1010    106.5161 307.6746653  +6.6727545     18071.54     28270.56     29679.86     81.69246     163.5141     325.9933      1.689     4.27     903.4589      57.4445     2857.685        46     1.668     1.016  48.37   0
       566    253.0261    108.4903 307.8308714  +6.6593101     1549.934     2331.893     3053.261     81.82162     162.7373     325.7341      1.674     4.95     923.2058      57.4445     192.0364        14     1.351     0.703  39.93   0
       567    528.8882    102.5671 307.7164422  +6.6710237     5135.917     8145.143     8613.898     81.82162     162.9319     325.8961      1.716     4.28     904.3862      57.4445     727.9918        28     1.526     0.976  47.58   0
       568    246.9816    102.6029 307.8335833  +6.6615364     1756.695      2855.01     4120.057     81.30376     162.5426     325.6693      2.067     5.19     923.3315      57.4445     238.7217        18     1.497     0.911  44.42   1
       569    434.4128     98.1300 307.7558513  +6.6696834     21565.27     35258.98      36796.4     81.17377     162.7373     325.7665      1.748     4.47      907.218      57.4445     3235.772        48     1.678     1.069  50.81   0
       570    615.4900     96.9176 307.6806465  +6.6762597     3158.401     5329.838      6214.19     81.43353     163.2556     325.9933      1.918     5.90     903.2569      57.4445     501.9717        31     2.104     0.922  63.25   0
       571    255.0386     98.4750 307.8303757  +6.6635111     8855.166     14436.34     15678.85      81.5631     162.9967      325.961      1.767     4.40     923.0748      57.4445     1242.653        38     1.686     1.014  50.60   0
       572    315.0138     99.0027 307.8054363  +6.6653108      935.246     1480.146     1986.601     81.30376     162.6724     325.7341      1.581     5.14     919.7072      57.4445     168.1219        11     1.449     0.526  65.87   0
       573    912.3193     98.2283 307.5572522  +6.6856538     1964.657      3044.76     3632.986      81.5631     162.8022     325.8638      1.647     4.44     897.4139      57.4445     367.0811        20     1.460     0.841  44.02   0
       574    520.0344     98.4332 307.7202615  +6.6724327      639.946     835.7529     972.1307     81.30376     162.7373     325.6368      1.608     4.76     904.4645      57.4445     91.21271         7     1.230     0.522  38.33   0
       575     20.3850     98.1369 307.9278904  +6.6557456     2182.265     3322.874     3532.304     81.17377     162.8671     325.7017      1.634     4.27     930.7488      57.4445     333.4922        19     1.432     0.790  41.13   0
       576    547.7155     97.9255 307.7087760  +6.6735709     659.5297     1037.441     1156.783     81.82162     163.3203      325.961      1.593     4.25     903.9188      57.4445     114.0063         6     1.246     0.414  35.64   0
       577    242.8485     95.0083 307.8355589  +6.6645316      2849.53     4919.562     5380.334     81.17377     162.8022     325.5396      1.819     4.62     923.3507      57.4445     384.6094        29     1.668     1.008  48.10   0
       578    296.0457     93.1533 307.8135169  +6.6670869     898.9358     1597.924     1791.465     81.69246     162.8671     325.9286      2.092     5.67     921.4737      57.4445     158.0702        13     1.630     0.735  47.78   0
       579    933.0674     88.3561 307.5489634  +6.6904215      924.375     1554.072     1203.279     81.69246     162.9319     325.9286      1.640     4.38     896.5726      57.4445     173.0954         8     1.135     0.583  60.98   0
       580    684.2364     87.7806 307.6523881  +6.6823343     1740.284     2607.955     2575.919     81.17377     162.8022     325.6693      1.604     4.64     901.5129      57.4445     270.1431        15     1.394     0.712  44.07   0
       581    250.4841     83.0227 307.8327936  +6.6697350     635.2678     991.2058     1638.166      81.5631     162.7373      325.799      2.298     4.71     922.9933      57.4445     92.69019         7     1.145     0.549  66.80   0
       582    195.4326     83.1779 307.8556639  +6.6678179      691.405     1011.066     345.2357     81.17377     162.8022     325.7017      1.388     4.33     924.0577      57.4445     114.8077         7     1.166     0.458  40.68   0
       583    172.5278     80.5180 307.8652720  +6.6681444     10494.88     16744.61     17443.49     81.95058     163.3203     325.9286      1.766     4.61     924.3258      57.4445     1472.625        44     1.726     1.059  50.00   0
       584    918.1024     78.3713 307.5555197  +6.6940424     3973.441     5992.947     6359.261     81.82162     162.7373     325.8961      1.615     4.51     896.5948      57.4445     684.6449        21     1.471     0.780  47.78   0
       585    516.7766     78.7937 307.7222814  +6.6804287     2846.844     4361.315      4316.62     81.17377     162.8022     325.7665      1.667     4.28     904.0467      57.4445     367.6616        24     1.561     0.905  51.62   0
       586    718.9026     76.8400 307.6383525  +6.6880107     1826.524      2901.09      3119.66     81.69246     162.8671     326.1229      1.670     5.19     900.7946      57.4445     254.3431        17     1.528     0.779  50.73   0
       587    454.9245     77.1039 307.7480413  +6.6790498     1850.596     2969.392      2747.28     81.30376     163.1262      325.961      1.713     5.55     905.9286      57.4445     286.9103        18     1.666     0.781  51.53   0
       588    982.9051     74.4996 307.5287202  +6.6978051     1882.312     3306.146     3574.419     81.69246     163.5141     325.7341      1.927     4.69     893.7032      57.4445     268.2015        21     1.443     1.024  56.05   0
       589    777.6776     74.0512 307.6140221  +6.6911293     538.4853     824.9587     812.9001     81.69246     163.0614     325.8961      1.671     4.50     899.2092      57.4445     87.99896         6     1.193     0.483  37.42   0
       590    702.2646     71.0239 307.6454636  +6.6898538     7045.087     11244.89     11579.86     81.30376     162.9967      325.799      1.680     4.24     900.7133      57.4445     1252.301        32     1.588     0.922  49.79   0
       591    622.5677     70.3391 307.6786058  +6.6874661     3799.507     5923.158     6368.716     81.43353     163.0614     325.8314      1.730     4.56     901.9512      57.4445     640.9822        24     1.503     0.883  49.80   0
       592    324.4401     69.9213 307.8025074  +6.6776296      878.431     1274.962     1827.888      81.5631     162.9967     325.8961      1.655     5.19     918.6774      57.4445     144.1738        10     1.281     0.757  47.00   0
       593    378.4615     68.7872 307.7800977  +6.6799135     741.0228     1203.942     906.5493     81.17377     162.8022     325.6044      1.649     5.25     912.6337      57.4445     126.5148        10     1.287     0.605  44.89   0
       594    422.6590     66.5220 307.7618084  +6.6823333     6012.113     9834.913     10147.45     81.82162     162.9967     325.8314      1.759     4.43     907.0764      57.4445     847.6907        33     1.658     0.970  48.47   0
       595    498.1451     63.2920 307.7305496  +6.6862010     873.0136     1379.361     818.2832      81.5631     162.8671     326.0258      1.478     5.04     904.1181      57.4445     161.1263        10     1.418     0.507  44.79   0
       596    319.2847     61.4095 307.8049390  +6.6809690     12258.15     20339.58     21889.77     81.30376     162.6724     325.7341      1.801     4.26     919.0735      57.4445     1863.789        44     1.692     1.063  50.84   0
       597     23.6570     66.0745 307.9276234  +6.6690877     8174.064     13363.01     14070.36      81.5631     162.8671     325.8638      1.770     4.49     928.3815      57.4445     1097.179        35     1.655     0.999  51.55   0
       598     92.9649     61.9476 307.8989648  +6.6731277     2441.358     4183.118     4223.799      81.5631     162.9967     325.8314      1.824     4.46     925.6452      57.4445     315.5045        21     1.410     0.942  42.82   0
       599     84.4025     60.6668 307.9025664  +6.6733676     1481.209     2251.112     2760.471     81.04359     162.6724     325.7017      1.719     4.41     925.9429      57.4445     229.6466        16     1.319     0.840  51.48   0
       600    385.4867     59.4761 307.7774946  +6.6839923     2280.303     3346.774     3207.286     81.69247     163.3203      325.961      1.630     4.25     911.5759      57.4445     350.4404        20     1.435     0.878  49.19   0
       601    787.4078     59.7678 307.6104616  +6.6973498     764.7584     1276.135     1441.351     81.17377     162.8671     325.7017      1.736     5.29     898.3741      57.4445     136.6111        10     1.428     0.553  36.31   0
       602    454.5759     60.2045 307.7487597  +6.6860125     561.0455     594.2725     378.0038     81.17377     162.7373     325.7341      1.360     3.47     905.5846      57.4445     93.47113         5     0.740     0.471 -74.77   0
       603    980.9679     56.5196 307.5301322  +6.7051610     881.7076     1134.112     1045.268      81.5631     162.9319     325.8638      1.453     5.06     892.5921      57.4445     162.3983        11     1.255     0.698  44.80   0
       604    646.1942     54.9413 307.6693091  +6.6946127     10686.28     17083.12     17898.27     81.17377     162.8671     325.6368      1.676     4.51     900.8635      57.4445     1732.519        37     1.628     0.964  48.26   0
       605    810.8367     54.4111 307.6009064  +6.7003444     1621.646     2717.851     2639.666     81.17377     162.8022      325.572      1.773     5.89     897.5807      57.4445     249.4507        16     1.574     0.763  48.98   0
       606    523.7642     54.6258 307.7201973  +6.6906373     1284.367      1899.83     1358.024     81.30376     162.8022     325.6693      1.644     4.61     903.2532      57.4445     219.4285        13     1.406     0.719  54.73   0
       607     64.4353     55.4664 307.9110404  +6.6748406      773.541     1068.884     1515.052      81.5631     163.0614      325.961      2.010     6.67     926.4156      57.4445     112.5948         9     1.398     0.892  61.45   0
       608    246.6458     51.7570 307.8354517  +6.6825090     6114.035     10680.67     11783.44     81.69246     162.9967     325.8314      1.930     4.35     922.6039      57.4445     845.4375        48     1.788     1.451  16.17   0
       609    768.9943     53.3211 307.6183319  +6.6993942     438.9204      431.623     643.4254     81.30376     162.4776     325.6693      1.387     4.09     898.7108      57.4445     90.38489         5     1.079     0.443 -66.14   0
       610    881.2726     52.4966 307.5716995  +6.7034902     1702.068     2364.999     2605.652     81.30376     163.1909     325.8638      1.438     4.46     896.6434      57.4445     278.5393        14     1.333     0.681  47.75   0
       611    637.8068     50.3183 307.6729512  +6.6962395     8871.805     14187.94     15149.29     81.30376     162.5426     325.7341      1.715     4.60     900.8191      57.4445     1348.109        36     1.640     0.979  54.85   0
       612    407.7444     50.3853 307.7685540  +6.6884919     7894.284      12561.9     13180.28     81.04359     162.8671     325.6044      1.713     4.45     908.2584      57.4445     1142.421        33     1.615     0.948  50.01   0
       613    667.6234     49.7268 307.6605804  +6.6974829     7941.608     12589.59     14215.67     81.30376     162.8022     325.8314      1.736     4.32     900.2252      57.4445     1228.012        35     1.736     0.909  47.82   3
       614    671.0956     47.0512 307.6592281  +6.6987034     12842.92     20580.29      22097.8      81.5631     162.9319     326.1229      1.695     4.43     900.0482      57.4445     2023.989        37     1.653     0.969  48.74   3
       615    723.3281     49.1096 307.6374520  +6.6996034     1735.709     2681.358     3082.036      81.5631     163.2556     325.8961      1.638     4.33     899.7465      57.4445     316.6606        16     1.484     0.679  45.91   0
       616    186.3065     47.4611 307.8606713  +6.6822507     1067.866     1697.324     1720.821      81.5631     162.9967      325.961      1.631     5.62     923.2291      57.4445     138.8038        12     1.266     0.704  61.49   0
       617    647.0848     46.2595 307.6692331  +6.6982256     3077.106     5220.653     6887.248     81.69246     163.0614     325.9933      1.964     4.82     900.4789      57.4445     551.1932        28     1.676     0.970  47.18   0
       618     54.1078     43.3362 307.9157451  +6.6794984     3031.363     5037.892     5194.498     81.69246     163.1909      325.961      1.788     4.44     926.1848      57.4445     475.2479        27     1.614     0.999  56.08   0
       619    936.4443     42.9992 307.5490920  +6.7092538     817.9417     1241.191     1568.652     81.04358     162.6724     325.5071      1.628     5.01     894.6168      57.4445     138.2623        10     1.386     0.512  49.20   0
       620    144.7497     40.8021 307.8781664  +6.6835992     4857.575     8067.578     8633.966     81.04359     162.6075     325.4747      1.764     4.34      923.679      57.4445     678.7657        32     1.629     1.015  46.64   0
       621     76.3658     40.8997 307.9065791  +6.6812543     597.4106     1044.398     920.3092     81.69246     162.8671     326.0581      1.473     4.34      925.614      57.4445     91.57556         5     1.580     0.339  61.28   0
       622    771.8173     39.3438 307.6176316  +6.7052572     1256.996     2335.268     2467.062     81.17377     162.9319     325.6368      1.811     5.59       898.08      57.4445     220.8876        16     1.522     0.844  49.51   0
       623    878.9849     37.4347 307.5731593  +6.7096299     1974.357      3022.12     3480.814     81.30376     162.7373     325.7341      1.640     4.30     896.2678      57.4445     332.1938        17     1.457     0.717  47.40   0
       624    200.9084   1021.9560 307.8214769  +6.2805653     597.3995     1144.665     1280.489     81.69246      152.556     272.6527      2.026     4.56      944.519      57.4445     84.59888         7     1.162     0.508  52.72  16
       625    731.3394     34.7707 307.6346081  +6.7057895     1531.183     2412.018     2307.903     81.43353     162.9967     325.8638      1.661     4.20     899.1912      57.4445      281.781        16     1.464     0.748  43.10   0
       626    964.3544     34.3768 307.5377841  +6.7137447      1086.26     1472.268     2238.311     81.30376     162.9967     325.7665      1.596     5.73      892.204      57.4445      179.769        12     1.302     0.719  53.71   0
       627    831.1335     34.8453 307.5931331  +6.7090984     844.6617     1082.776     1284.216     81.69246     162.9319     325.9286      1.537     4.33     896.7695      57.4445     140.5728         7     1.162     0.460  55.63   0
       628    787.9677     28.4350 307.6112888  +6.7102999     2927.962     4326.116     4642.462     81.30376     162.7373     325.6368      1.531     3.95     897.0958      57.4445     456.5114        19     1.423     0.768  50.05   0
       629    625.0395     36.5241 307.6787243  +6.7015046     1069.275     1619.684     1089.168      81.5631     162.9967      325.961      1.534     4.44      900.535      57.4445       207.67        12     1.376     0.600  48.44   0
       630    613.1699     23.0883 307.6841122  +6.7066517     11508.09     18552.73     19752.45     81.82162     162.8022     325.8314      1.707     4.36     900.1722      57.4445     1914.508        38     1.622     0.990  49.86   0
       631    659.0129     23.9180 307.6650328  +6.7078458     940.4075      1590.07     2219.159     81.30376     162.7373     325.7341      1.742     5.00     899.3671      57.4445      153.191         9     1.445     0.489  41.66   0
       632    626.9942   1021.0280 307.6445838  +6.2952496       626.63     1019.557      1202.02     81.17377     160.4502     285.2951      1.592     3.69     940.1288      57.4445     101.6262         5     0.667     0.588  89.91  16
       633    918.4501   1017.4935 307.5236755  +6.3064566     1835.748     3228.089     3389.395      81.5631     162.8671     321.8205      1.907     4.75     931.0035      57.4445     257.7009        25     1.610     1.015  49.56  16
       634    778.0347   1014.0019 307.5821018  +6.3032048      1309.77     2100.167     2195.166     80.78257     162.8022     325.7017      1.729     4.38       935.86      57.4445     191.1243        15     1.312     0.803  40.98   0
       635    639.1257   1013.5754 307.6397983  +6.2987318     4565.734     7180.891     7115.506     81.30376     162.8022     325.8314      1.684     4.25     939.5124      57.4445      686.007        26     1.514     0.915  46.85   0
       636    251.3272   1013.6757 307.8008231  +6.2856781     4204.256     6641.236     6918.875     81.95058     163.2556     325.9286      1.743     4.38     944.7248      57.4445      645.306        26     1.528     0.944  46.13   0
       637    988.3161   1013.3611 307.4948022  +6.3104948     830.5439     1287.078     1553.353     81.69246     162.9319     325.8314      1.655     5.17     931.2587      57.4445     115.8818         9     1.179     0.641  79.43   0
