#   1 NUMBER                 Running object number                                     
#   2 X_IMAGE                Object position along x                                    [pixel]
#   3 Y_IMAGE                Object position along y                                    [pixel]
#   4 ALPHA_J2000            Right ascension of barycenter (J2000)                      [deg]
#   5 DELTA_J2000            Declination of barycenter (J2000)                          [deg]
#   6 FLUX_APER              Flux vector within fixed circular aperture(s)              [count]
#   9 FLUXERR_APER           RMS error vector for aperture flux(es)                     [count]
#  12 FLUX_RADIUS            Fraction-of-light radii                                    [pixel]
#  13 FWHM_IMAGE             FWHM assuming a gaussian core                              [pixel]
#  14 BACKGROUND             Background at centroid position                            [count]
#  15 THRESHOLD              Detection threshold above background                       [count]
#  16 FLUX_MAX               Peak flux above background                                 [count]
#  17 ISOAREA_IMAGE          Isophotal area above Analysis threshold                    [pixel**2]
#  18 A_IMAGE                Profile RMS along major axis                               [pixel]
#  19 B_IMAGE                Profile RMS along minor axis                               [pixel]
#  20 THETA_IMAGE            Position angle (CCW/x)                                     [deg]
#  21 FLAGS                  Extraction flags                                          
         1    172.1325     20.4234 307.8650620  +6.6682173      10507.9     16920.45     17240.69     78.00718     156.3256     312.6201      1.718     3.67     835.4273     55.11533     1277.304        42     1.478     1.209  75.04   0
         2    516.4315     18.7246 307.7220643  +6.6804915     2864.143      4456.82     4877.628       78.256     156.4499     312.6512      1.715     3.52     826.6871     55.11533     410.1405        25     1.322     1.149  69.74   0
         3    917.8051     18.3452 307.5552988  +6.6940872     4172.743      5984.36     5449.905     77.75755     156.1389     312.3712      1.553     3.68     825.3321     55.11533     566.5323        24     1.304     0.972  73.45   0
         4    718.6420     17.0680 307.6380988  +6.6879530     1951.792     2918.969     3000.997     78.38012     156.3256     312.7444      1.570     3.74     825.5105     55.11533     232.7322        18     1.218     0.925  70.63   0
         5    454.5638     17.1705 307.7478231  +6.6790566     1706.364     2524.149     2653.703     78.00718     156.1389     312.5268      1.622     3.46     827.6104     55.11533     240.0781        17     1.173     0.890  73.86   0
         6    982.4366     14.5573 307.5285696  +6.6978100     2145.401     3425.485     3964.455     78.13169     156.3256     312.5579      1.778     4.06     819.5777     55.11533     262.7964        21     1.340     0.969  81.92   0
         7    701.9213     11.0559 307.6452489  +6.6898753     7285.352     11083.38     11934.14     78.50404     156.3877     312.6822      1.630     3.61      825.374     55.11533     992.6486        31     1.378     1.058  77.55   0
         8    622.0563     10.1768 307.6784640  +6.6875626     3846.065     5913.616     6087.776     78.00718     156.3877     312.4956      1.617     3.52     825.2122     55.11533     514.2553        28     1.434     1.034  58.78   0
         9    324.1532     10.6271 307.8022299  +6.6773767     969.3217     1596.197     2130.268     78.00718     156.4499      312.589      1.863     3.87     834.6833     55.11533     136.1407        13     1.145     0.815  14.00   0
        10    377.5966      8.8093 307.7800855  +6.6799234     642.2646     913.1341     365.5114     77.75755     156.0766     312.5268      1.453     4.14     831.9219     55.11533      83.1394         7     1.251     0.392  75.61   0
        11    422.2949      6.4757 307.7615919  +6.6823885     6439.973     9808.119     10294.68     78.00718     156.5741     301.0246      1.667     3.62     828.5972     55.11533      811.059        30     1.388     1.086  78.84  16
        12     23.3130      6.0025 307.9273820  +6.6691560     8097.043     12958.03     13587.71     77.75755     156.0144     296.5676      1.704     3.73     834.9188     55.11533     1019.267        36     1.427     1.150  70.62  16
        13    669.5228      5.7548 307.6588897  +6.6909788     797.5615     1117.251     850.1855       78.256     156.4499     294.1651      1.507     3.98     825.3118     55.11533     128.5115         9     0.924     0.851  63.92  16
        14    497.9700      3.4523 307.7302503  +6.6861773     814.5853     1187.895     1344.069     78.13169     150.3669     266.9676      1.506     5.23     826.2269     55.11533     125.7753        10     1.211     0.638  66.17  24
        15    318.9217      2.1078 307.8046914  +6.6807180     11176.58     14748.46     15472.46     76.11505     135.6151     247.6635      1.422     3.51     834.8003     55.11533     1524.788        31     1.322     0.983  16.08  24
        16    413.8973      2.3904 307.7652191  +6.6837931     783.1152     957.0801     1535.623     77.88247     138.7331     251.7124      1.396     5.02     828.9509     55.11533     118.5431         9     1.174     0.607  40.33  24
        17     92.4700      2.1198 307.8987800  +6.6730904     2291.771     3099.064     3313.894     76.62418     135.7583      247.742      1.465     3.46     834.9404     55.11533     313.6888        17     1.150     0.925  34.17  24
        18    787.1679      1.2525 307.6101567  +6.6967764     559.6088     541.8848     475.7237     67.30392      123.143     233.8969      0.981     3.41      824.811     55.11533     148.3646         5     0.824     0.409  11.76  24
        19    385.1547      1.1140 307.7772049  +6.6833545     742.3636     907.4276     709.1537     65.10145     120.8321     231.5998      1.078     2.94     831.2688     55.11533     227.5797         6     1.078     0.317  -0.95  24
        20     83.7366      1.4200 307.9024323  +6.6730850     936.1241      1290.23     1439.426     69.15601     125.7982     236.7061      1.347     3.59     834.8659     55.11533     169.6944         7     0.957     0.478   8.47  24
        21    591.0837    992.4331 307.6582611  +6.2809756     1364.432     2259.883     2319.329     78.38012     156.2012     312.6512      1.774     4.64     860.0351     55.11533     162.8984        15     1.279     0.847  78.84   0
        22    742.5224   1022.5626 307.5943728  +6.2736053     1322.061     1965.393     1709.664       78.256     139.7106     252.7529      1.645     4.86     859.4496     55.11533     155.0639        15     1.140     1.003   4.48  24
        23    566.4637   1023.8800 307.6674248  +6.2671670     798.5691     1070.296     1126.717     65.54786     121.1535     231.7257      1.102     3.36     860.6132     55.11533     177.3524         5     1.024     0.320   3.38  24
        24    999.8954    990.9933 307.4885715  +6.2952382     4293.148     7722.051     8126.687     78.13169     156.0766     312.4956      1.897     4.20     852.0519     55.11533     495.5212        36     1.559     1.242  87.30   0
        25    522.1468    990.5518 307.6869461  +6.2794421      4197.81     6796.383     7666.472     78.50404     156.3877     312.6822      1.788     3.84     860.1262     55.11533     493.0319        32     1.459     1.151 -86.68   2
        26    631.8123    989.8228 307.6414388  +6.2834175     1265.272     2131.769     2068.001     78.00718     156.2012      312.589      1.835     3.64     859.5295     55.11533     214.4459        16     1.119     0.993 -85.59   0
        27     57.1243    989.3973 307.8800490  +6.2642942     808.1998     1464.361      1625.19     77.88247     155.8897      312.589      1.867     4.80     855.9932     55.11533     148.0541         9     1.190     0.703  89.16   0
        28    475.3782    987.0001 307.7064833  +6.2793403     2153.464     3526.838     3718.775     78.00718     156.0766     312.4023      1.807     4.03     860.1967     55.11533     286.3412        21     1.308     1.025  74.55   0
        29    383.7217    985.6032 307.7445845  +6.2768416     551.0695     749.8733     626.7114     77.88247     155.8897     312.4956      1.413     4.61     860.0699     55.11533     78.54742         7     0.899     0.671 -70.28   0
        30     18.4299    984.7612 307.8962700  +6.2649050     416.5251     758.0603     856.1424     78.00718     156.1389     312.5579      2.042     5.12     855.5972     55.11533      75.7959         5     1.014     0.730 -15.60   0
        31    909.8895    979.1423 307.5263399  +6.2971268     41250.55     69085.41     73346.65       78.256     156.3256     312.8065      1.786     3.60      855.021     55.11533     4874.486        78     1.614     1.401  75.86   0
        32    217.1748    976.9944 307.8140211  +6.2748005     1725.585     2717.463       3108.2     77.88247     156.2012     312.5268      1.664     4.93     859.4563     55.11533     220.1085        18     1.288     1.043 -85.57   0
        33    105.2281    976.2922 307.8605214  +6.2713244     735.0555     1214.076     1333.047     78.50404     156.1389     312.5579      1.808     4.77     856.6135     55.11533     114.9273         8     0.939     0.687  65.87   0
        34    756.0198    970.9948 307.5905009  +6.2953481     6373.067     10350.44     11935.77     78.00718     156.0766     312.4956      1.816     3.77     857.3466     55.11533     855.2778        38     1.745     1.128 -80.92   0
        35    616.2205    975.2231 307.6484035  +6.2889232      739.045     1261.495     1130.549     78.13169     156.2012     312.6201      1.830     5.60     859.5092     55.11533     131.3479        10     1.358     0.650  81.65   0
        36    807.6934    972.9161 307.5689813  +6.2962828     2188.611      3325.47     3366.714     78.13169     156.8222     312.8065      1.595     3.66     856.3693     55.11533     307.0901        20     1.317     0.920  87.43   0
        37    542.7904    969.9182 307.6790697  +6.2886532     923.7478     1659.686     1878.322     78.00718     156.0144     312.5268      2.229     6.11     859.7125     55.11533     133.4688        12     1.687     0.622  82.82   0
        38    225.7109    970.1429 307.8107085  +6.2779163     1468.386      2197.01     2225.714       78.256     156.3256     312.8065      1.533     3.70     859.5128     55.11533     199.0597        15     1.200     0.850  62.23   0
        39    189.9459    969.5807 307.8255761  +6.2769457     793.7339     1323.192     1160.877     77.88246     156.3877     312.4956      1.790     4.08     858.6274     55.11533     109.4615        11     1.107     0.735  83.57   0
        40     50.3334    967.7841 307.8835993  +6.2729888     2806.049     4384.323     4554.428     77.88247     156.2634      312.589      1.719     3.85     855.9221     55.11533     348.8984        24     1.333     1.068  74.10   0
        41    944.1904    966.0072 307.5125383  +6.3036954     6283.277     10678.67     11100.44     77.75755     156.2012     312.5268      1.804     3.72     853.6522     55.11533     783.5828        38     1.549     1.238  73.49   0
        42    200.5901    961.8920 307.8214166  +6.2804781     558.9086     817.2159      660.187     78.00718     156.0144     312.4645      1.590     4.61     858.7009     55.11533     84.46161         7     1.228     0.492 -89.25   0
        43    626.5208    960.1174 307.6446349  +6.2955050     722.0792     1094.627     1317.212     78.50404     156.6362     312.8065      1.582     4.18     859.0061     55.11533     112.0381         6     0.999     0.499 -88.08   0
        44    918.1223    957.7141 307.5236402  +6.3062491     2029.324     3415.211     2261.969     78.38012     156.6982     312.7755      1.808     4.41     854.0315     55.11533     245.1782        23     1.330     1.180  39.33   0
        45    777.4451    953.9035 307.5821790  +6.3031214     1423.589       2233.5     2266.613     78.38012     156.2634     312.8376      1.607     4.22     856.5168     55.11533     170.7803        14     1.141     0.830  71.67   0
        46    638.7180    953.4730 307.6397940  +6.2986568     4675.839     7087.866     7356.037     78.62777     156.6982     312.7133      1.682     3.80     858.6935     55.11533     572.4865        29     1.330     1.120  71.68   0
        47    250.7912    953.6423 307.8008528  +6.2855720     4143.146     6416.523     6574.386     77.88247     156.2012     312.4334      1.668     3.73     859.3588     55.11533     514.0177        28     1.337     1.104  82.96   0
        48    460.9205    951.9560 307.7136665  +6.2933241     1007.461     1491.557     1306.035     78.38012     156.3877     312.6822      1.518     4.66     859.4816     55.11533     138.3015        10     1.124     0.831  75.82   0
        49     19.5317    951.1226 307.8969507  +6.2788301     2173.727     3387.227     3643.497     78.50404      156.512     312.6512      1.726     3.88     855.6176     55.11533     261.0695        22     1.240     1.129  63.22   0
        50    870.8341    949.9478 307.5435355  +6.3078762     928.2053     1239.949     1327.632       78.256     156.3877     312.6201      1.428     5.22      854.761     55.11533     130.4043        10     1.172     0.712  31.54   0
        51    942.1271    947.0966 307.5140290  +6.3114345      872.474     1523.379     1578.798     78.00718     156.5741     312.6512      1.843     5.62     852.9164     55.11533     131.7377        12     1.365     0.832  81.88   0
        52    286.7966    947.0917 307.7861251  +6.2894866     809.8803      1338.07     1949.467     78.00718     156.0766     312.4645      2.136     5.41     859.5067     55.11533     113.6132        10     1.355     0.609 -85.49   0
        53    994.8493    946.5856 307.4921548  +6.3134052     846.7157     1543.289     1802.536     77.75755     156.3256     312.4023      1.930     5.45     851.3942     55.11533     117.6924        14     1.289     1.003  56.14   2
        54    961.8499    947.8825 307.5058134  +6.3117684     617.7825      1045.31     751.4617     78.38012     156.3877     312.7133      1.641     3.86     852.3761     55.11533     84.16437         5     1.004     0.426  44.17   0
        55    563.0726    945.8019 307.6714603  +6.2992900     1579.484     2329.872     2083.821     77.88246     155.8897     312.5268      1.598     4.13     859.2307     55.11533     217.5714        19     1.306     1.002  78.68   0
        56    602.8472    942.3479 307.6550619  +6.3020487     1242.825     2030.719     1760.808     78.50404     156.3256     312.7133      1.635     3.69     858.8923     55.11533     181.7782        15     1.285     0.728  83.34   0
        57     52.4137    942.9457 307.8835758  +6.2833136     699.2887     972.5022      1332.46     77.75755     156.3256     312.4334      1.753     3.92     855.9424     55.11533     124.0964         7     1.143     0.727  58.13   0
        58    282.4036    940.1681 307.7881826  +6.2921975     1459.016     2524.604     2368.792     77.63244     156.2634     312.4645      1.744     4.37     859.3987     55.11533     189.8357        17     1.410     0.822 -85.90   0
        59    550.7538    938.4630 307.6768221  +6.3019072     637.9364       1086.8     990.7117       78.256     156.3256     312.7444      1.842     4.32     859.1768     55.11533      103.153         8     1.108     0.693  67.93   0
        60    748.9896    936.6085 307.5945750  +6.3093104     777.3412     1326.611      1737.97     77.88246     156.2012      312.589      1.513     3.83     856.3433     55.11533     145.3251         6     1.211     0.347  28.05   0
        61    886.9509    932.8217 307.5374180  +6.3154857      6791.98     10992.85     11084.95     78.00718     156.4499      312.589      1.704     3.54     853.8906     55.11533     869.4705        34     1.406     1.185  72.45   0
        62    422.7533    929.9833 307.7302538  +6.3011155     2102.234     3082.123     3591.671     77.88246     156.2634     312.4645      1.630     4.04     859.0214     55.11533      256.405        19     1.297     0.956  64.31   0
        63    151.4132    943.1979 307.8424652  +6.2865421     415.3508     693.6782     765.0899     78.00718     156.0766     312.4956      1.558     4.48     856.8418     55.11533     66.59894         5     1.165     0.489 -86.81   0
        64    324.4737    928.1746 307.7711202  +6.2985626     9683.956     15302.63     16322.88     78.00718     156.2634     312.6201      1.722     3.61     859.3231     55.11533     1234.399        42     1.450     1.220 -87.23   0
        65    244.5987    927.1630 307.8043178  +6.2962962     7097.905     10945.87     11148.56     77.50713     156.2012     312.4645      1.652     3.54      858.907     55.11533     892.2935        33     1.420     1.111  84.07   0
        66    572.5546    921.6122 307.6683374  +6.3095951     1203.182     1795.165     1821.805     77.88247     156.2012     312.4023      1.656     4.61     858.6473     55.11533     164.1824        14     1.196     0.930 -85.43   0
        67    756.6604    921.5038 307.5918974  +6.3158035     718.6948     944.5176     902.9619     78.13169     156.3877     312.7755      1.458     3.88     855.8773     55.11533     110.0124         6     0.912     0.472 -87.56   0
        68    902.6972    917.7896 307.5313841  +6.3222182     1015.832     1751.045     2497.929     78.13169     156.0144     312.5268      2.021     3.78     853.0624     55.11533     147.6563        11     0.998     0.849  81.59   0
        69    135.1159    918.0985 307.8500798  +6.2963563      615.782      850.908     446.0148     78.38012     156.8222     312.7444      1.401     4.05      856.329     55.11533     100.7437         5     1.002     0.467  44.50   0
        70    859.6714    917.1088 307.5492724  +6.3210619     761.0519      1424.33     1496.949       78.256     156.5741     312.6822      1.949     5.11     854.2582     55.11533     113.8589         9     1.145     0.645  27.46   0
        71    401.2194    916.3845 307.7396531  +6.3060074     475.8427     534.9307     807.5963     78.13169     156.1389      312.589      1.421     3.79     858.8966     55.11533     69.73633         5     1.020     0.404 -84.45   0
        72    831.9798    911.5608 307.5609569  +6.3224272     533.8309     816.0116     908.1158     78.00718     156.2012     312.4334      1.517     4.08     854.6717     55.11533     81.78906         5     0.769     0.617  86.92   0
        73    738.9650    910.8649 307.5996023  +6.3196042     1646.813     2530.626     2693.482       78.256     156.3877     312.7133      1.652     3.84     855.8047     55.11533     206.4061        15     1.171     0.838  77.27   0
        74    814.8632    910.9879 307.5680834  +6.3220916     430.7086     753.7242     643.9833     77.88247     156.2012     312.4645      1.277     3.93     854.9756     55.11533     75.94006         5     1.278     0.345 -24.98   0
        75    562.4860    910.6790 307.6728860  +6.3137718     581.4044      572.976     239.9105       78.256     156.6982     312.7755      1.202     3.92      858.496     55.11533      104.108         6     0.916     0.674 -60.56   0
        76    970.3445    906.6547 307.5036682  +6.3290743     1235.125     2103.218     3071.234     78.62777     156.3877     312.6822      2.325     3.93     851.1376     55.11533     184.0363        16     1.137     1.048  89.22   0
        77    603.3386    907.6508 307.6560252  +6.3163909     816.8071     1210.307     1112.085     78.38013     156.3256     312.6822      1.599     5.35      857.767     55.11533     103.2355         9     1.221     0.663  37.89   0
        78    524.1308    906.7365 307.6889443  +6.3141139     1074.319     1652.246     1486.816     78.38012     156.3877     312.7444      1.683     5.02     858.6749     55.11533     180.1222        14     1.287     0.852  86.68   0
        79    614.7442    907.3854 307.6512983  +6.3168825     526.6657     639.0626      486.394     77.75755     156.2634     312.4023      1.175     4.27     857.5873     55.11533     107.2636         5     0.952     0.546  53.05   0
        80    657.5385    904.3461 307.6336315  +6.3195705     2614.489      4009.18     3839.614     78.38013     156.3256     312.6512      1.690     3.95     857.1797     55.11533      335.638        24     1.378     1.056  60.64   0
        81   1009.0703    902.4310 307.4877295  +6.3321106     518.1143     916.1993     1296.275       78.256     156.3877     312.6512      2.338     5.42     850.0335     55.11533     89.30029         7     1.281     0.648 -48.96   0
        82    948.5386    903.1730 307.5128395  +6.3297840     519.8157     945.4467     948.8234     78.00718     156.4499      312.589      1.516     3.66     851.6007     55.11533     82.78564         5     1.051     0.366  -5.54   0
        83     54.0811    900.1696 307.8843305  +6.3010304     2889.494     4666.778     4709.358       78.256     156.2634     312.6512      1.681     3.91     855.4247     55.11533     366.7803        26     1.411     1.049  81.07   0
        84    818.4679    900.7830 307.5669292  +6.3264255     828.0831     957.6106     806.3871     77.88247     156.3256      312.589      1.500     5.42     854.6384     55.11533     115.6137        10     1.098     0.756  29.13   0
        85    197.6940    899.1389 307.8247386  +6.3062893     2108.126     3173.603      3006.21       78.256     156.4499     312.7133      1.584     3.98     857.5634     55.11533     246.9257        20     1.355     0.908  88.49   0
        86     71.6832    899.6341 307.8770404  +6.3018442     2031.298     2881.467     3004.911     78.38013     156.3877     312.6512      1.593     3.50      855.647     55.11533      257.876        16     1.114     0.927  59.88   0
        87    935.9257    899.5264 307.5181991  +6.3308685     836.9451     1367.703     1554.534     78.62777     156.6362     312.7444      1.886     5.03     851.8952     55.11533      101.974        10     1.072     0.668 -64.00   0
        88    231.7011    895.5469 307.8107403  +6.3089159     589.6391     847.3893     741.8994       78.256     156.3877     312.8998      1.371     3.87     858.5077     55.11533     122.6867         6     0.942     0.456  87.28   0
        89    790.0045    894.0981 307.5789725  +6.3282339     804.5789     1267.213     1341.706     78.13169     156.0766     312.3712      1.782     5.85      854.895     55.11533      122.426        10     1.218     0.790 -70.12   0
        90    652.2264    893.2642 307.6362099  +6.3239681     7027.309     10864.92     11285.79     78.00718     156.3256      312.589      1.672     3.48     856.8279     55.11533     868.8039        34     1.348     1.208  89.56   0
        91     12.2795    891.3851 307.9019830  +6.3032490     1213.285     2043.622      1885.86     78.00718     156.1389     312.4956      1.801     4.96     854.7106     55.11533     139.1075        20     1.262     1.158  47.26   0
        92    889.9901    889.6357 307.5376049  +6.3334181     2779.858     4358.509     4710.766     77.88246     156.1389     312.4645      1.660     3.60     852.8644     55.11533     356.7761        25     1.298     1.091  63.16   0
        93     25.1656    890.0837 307.8966769  +6.3042204     1088.418     1620.781     1450.547     78.38012     156.3877     312.6512      1.540     5.70     854.8593     55.11533     128.6071        12     1.166     0.786  88.86   0
        94    335.2366    886.4182 307.7680601  +6.3161642     16389.66     25438.23     27022.83     77.88247     156.2012     312.4645      1.691     3.56     858.9885     55.11533     2049.336        50     1.459     1.275  83.64   0
        95     69.8450    887.3368 307.8782195  +6.3068594     1230.948     2097.885     2224.239     78.38012     156.3256     312.7133      1.686     4.86     855.3969     55.11533     164.0816        15     1.403     0.776  89.15   0
        96    342.9934    886.9080 307.7648228  +6.3162225     499.3125     955.2313     1292.209     78.00718     156.0766     312.4956      2.630     3.96     858.9565     55.11533      93.1579         5     0.856     0.525  60.06   0
        97    205.9174    885.7454 307.8217767  +6.3120956     1279.789      2141.14     2110.521     78.38012     156.3877     312.7755      1.842     4.39     857.7306     55.11533     180.2086        14     1.188     0.850  72.79   0
        98    385.8270    885.6850 307.7470791  +6.3181657     623.3912     958.2991     981.1916     78.50404     156.1389     312.5579      1.578     4.75     858.6131     55.11533     117.9398         7     0.976     0.655  13.09   0
        99    412.9603    877.8228 307.7360780  +6.3223226     950.1161     1552.483     976.6893     78.00718     156.2012     312.4956      1.730     5.17     858.2623     55.11533      141.824        12     1.276     0.708  67.69   0
       100     98.4386    876.9773 307.8666980  +6.3120992     1728.168     2710.838     2296.182     78.00718     156.1389     312.4956      1.680     4.30     855.6148     55.11533     221.5995        22     1.402     1.053  86.17   0
       101    666.4465    873.5523 307.6309681  +6.3325829     955.4985     1522.834     1578.033     78.38013     156.2634     312.6822      1.710     6.26     856.1173     55.11533     125.3179        13     1.170     0.941   5.96   0
       102    880.3550    871.3824 307.5422182  +6.3406327     1905.147     3121.123     3394.427     78.00718     156.2634     312.4334      1.714     3.99      852.658     55.11533     247.6763        19     1.338     0.927  70.69   0
       103    850.9909    871.1127 307.5544205  +6.3397629     2100.169     3440.223     3585.694     78.00718     156.0766     312.4956      1.687     3.94     853.1976     55.11533     275.2269        20     1.316     0.984  74.85   0
       104    814.3591    870.1750 307.5696629  +6.3389257      2984.42     4750.928     4625.346     78.00718     156.2634     312.4645      1.646     3.67     853.8472     55.11533     381.1044        24     1.420     0.970  83.03   0
       105     82.0172    870.6470 307.8737301  +6.3141598      2538.79     3981.974     4334.165     77.88246     156.3256     312.4334      1.697     3.67     855.2939     55.11533     359.3427        21     1.224     1.036  81.61   0
       106    330.2392    868.5168 307.7707389  +6.3233873     798.2734     1230.551         1871     78.38013     156.3256     312.6512      1.636     4.61     858.8906     55.11533     119.0449         8     1.152     0.525  68.48   0
       107    550.2990    861.6837 307.6795955  +6.3335924     340516.7     518695.8     542728.8     78.38013     156.8842     312.7755      1.687     3.50     857.6249     55.11533     43462.76       176     1.647     1.394  79.41   0
       108    638.2117    864.9224 307.6429824  +6.3352006     1223.535     1889.634     1755.681     78.00718     156.0144     312.5268      1.576     3.66     855.8475     55.11533     173.6833        16     1.163     0.939  70.69   0
       109    394.4886    864.2580 307.7442051  +6.3273031     7786.627     11976.86     12375.14     78.38013     156.3256     312.8065      1.687     3.73     858.2479     55.11533     884.6526        36     1.402     1.163  75.75   0
       110    337.7457    862.6318 307.7678207  +6.3260692     12403.63     19417.09     20412.01       78.256     156.4499     312.6512      1.700     3.61      858.746     55.11533     1456.435        45     1.452     1.223  80.03   0
       111    656.1293    859.0576 307.6357396  +6.3382220     3657.793     5728.784     6350.434     78.50404     156.3877     312.6512      1.681     3.54     855.5892     55.11533     436.8961        28     1.464     1.016  77.54   0
       112    888.3788    858.0033 307.5393353  +6.3464248      5138.54     8412.926       9460.7     78.00718     156.0766     312.4645      1.800     3.86     852.2383     55.11533     630.8763        37     1.615     1.327   9.70   0
       113    727.8521    856.1328 307.6060558  +6.3418303     884.8135     1235.266     1587.006       78.256     156.3256     312.6201      1.554     4.89     854.8843     55.11533     141.7825         9     1.196     0.567  83.21   0
       114    630.9238    853.0191 307.6464089  +6.3398711     3360.468     5413.125     5843.527     77.88247     156.0766     312.6201      1.731     3.95     855.5052     55.11533     413.4731        28     1.321     1.166  66.98   0
       115   1022.1063    852.0942 307.4840030  +6.3533290     4304.449     7145.324     7369.096     78.38012     145.0361      259.321      1.755     3.88     848.5314     55.11533     505.9004        31     1.471     1.140  78.04  24
       116    819.4456    852.1838 307.5681549  +6.3465240     1608.899     2667.451      2709.83     77.88247     156.2634     312.4645      1.720     4.10     853.3167     55.11533     233.1775        21     1.250     1.172  86.72   0
       117    621.3024    852.3555 307.6504264  +6.3398229     984.7943     1444.899     1793.984     78.38013     156.3256     312.8687      1.622     6.54     855.5415     55.11533     128.9694        13     1.294     0.928  79.03   3
       118    623.8579    847.4536 307.6495302  +6.3419323     2198.704     3442.816     4043.539     78.50404     156.3877     312.6822      1.784     3.89     855.3903     55.11533     293.2336        22     1.377     0.988 -88.59   2
       119    173.2359    852.6890 307.8364630  +6.3246442     535.3392     607.2623     441.2847     78.38013     156.3256     312.6822      1.141     3.43     856.4335     55.11533     122.1122         5     0.964     0.452  -6.63   0
       120    946.0256    851.1163 307.5156285  +6.3511936     743.1085     1121.984     1194.514     78.38012     156.1389     312.6201      1.516     4.30     850.7459     55.11533     126.2518         7     0.741     0.712 -86.55   0
       121    907.5461    845.6614 307.5317901  +6.3521608     3233.876     5135.255      5139.38     78.38013     156.3256     312.6512      1.730     3.95     851.5563     55.11533     360.6953        23     1.382     1.007  75.89   0
       122    317.5133    846.1476 307.7767777  +6.3321953     1080.629     1538.666     1285.279     78.38012     156.2634     312.8065      1.542     3.85     858.3463     55.11533      147.139        14     1.132     0.891 -27.33   0
       123    365.5795    841.6124 307.7569725  +6.3356822      2681.53     3852.478     3629.778     78.13169     156.0766      312.589      1.597     3.69     857.9918     55.11533     352.6694        21     1.275     0.999  80.05   0
       124    501.8200    831.3062 307.7007485  +6.3445092     3111.273     4897.231     4677.663       78.256     156.2012     312.5268      1.685     3.85     856.6434     55.11533     382.0112        26     1.368     1.072  74.51   0
       125    846.5433    830.5286 307.5576295  +6.3563709     1196.178     1609.022      2294.26     78.50404     156.3256     312.6512      1.600     4.21     852.4972     55.11533     155.4373        13     1.022     0.875  60.96   0
       126    566.8527    828.9058 307.6738252  +6.3476805     718.3929     1316.856     1552.469       78.256     156.2634     312.9308      2.108     5.86     856.0302     55.11533     98.15356         7     1.077     0.897  56.50   0
       127    548.6772    827.5930 307.6814165  +6.3476133     6244.555     9520.449     9978.831     78.00718     155.8897     312.4956      1.643     3.50     856.3665     55.11533     777.5081        32     1.364     1.123  81.51   0
       128    555.7070    826.8689 307.6785219  +6.3481479     1281.026      1992.77     2292.436       78.256      156.512     312.6822      1.638     4.19     856.1872     55.11533     175.1926        13     1.127     0.789  75.64   0
       129    466.3413    826.6056 307.7156389  +6.3452600     1626.508     2423.484     2939.724     77.88247     156.2634     312.4334      1.693     4.22     856.7416     55.11533     203.8828        16     1.240     0.926  77.51   0
       130    260.0847    828.2365 307.8012278  +6.3376604      612.774     1062.553     1202.679     78.38012     156.3877     312.6512      1.773     3.98     857.4852     55.11533     109.5776         6     1.021     0.576  19.90   0
       131    884.5878    825.8440 307.5419885  +6.3595763     1588.824     2397.172     2832.296     77.88247     156.2634     312.4023      1.761     3.84     851.6735     55.11533     214.3605        16     1.279     0.822  79.41   0
       132    108.1487    825.6597 307.8644015  +6.3336132     1344.168     2068.747     1988.761     78.38012     156.3256     312.6822      1.571     3.16      854.994     55.11533     188.3068        12     0.931     0.844  89.22   0
       133    684.8256    824.4000 307.6249890  +6.3534922     721.8257     1168.105     1200.818     77.88247     156.0144     312.4645      1.687     4.60     853.9407     55.11533     118.0457         6     1.091     0.553  68.94   0
       134    519.3901    821.4048 307.6937861  +6.3491864     20068.86     30705.69     31411.49     77.88247     156.1389     312.5579      1.672     3.63     856.2355     55.11533     2439.344        47     1.449     1.188  79.27   0
       135    360.4994    822.9979 307.7597097  +6.3431970      706.685     1073.449     1016.305     77.88247     156.1389     312.3712      1.723     6.21     857.5439     55.11533     93.84943         7     1.264     0.858  83.57   0
       136    933.0441    819.7656 307.5220705  +6.3637044      3715.92     6105.942     6347.354     78.13169     156.3256     312.5579      1.758     3.76     850.2283     55.11533     448.0164        28     1.412     1.057  77.22   0
       137    166.2207    820.7828 307.8404539  +6.3375811       641.08     963.5071     389.5547     78.13169     156.2012      312.589      1.526     5.34     855.7817     55.11533     75.76666         9     1.287     0.626  86.64   0
       138    405.2271    817.5916 307.7413196  +6.3469308     484.8718     498.9889     160.9387     78.00718     156.2012     312.5268      1.360     5.00     857.2909     55.11533     69.47192         5     1.098     0.646  65.73   0
       139     29.8571    811.8349 307.8973768  +6.3366843      1589.83     2370.057     1674.962       78.256     156.3877     312.7133      1.622     4.23     854.1807     55.11533     216.4947        16     1.166     0.974  63.02   0
       140    312.0096    810.1043 307.7802792  +6.3468917     3287.943     4798.778     5013.749     78.13169     156.0144     312.4645      1.526     3.52     857.2032     55.11533     452.7306        22     1.244     0.969  76.66   0
       141    777.5887    805.9539 307.5870886  +6.3642120     55083.08     85389.57      89464.8     77.88246     156.2012     312.3712      1.676     3.58      852.876     55.11533     6830.783        76     1.530     1.285  77.31   0
       142    572.7687    807.4993 307.6720891  +6.3567170     267.5772      760.647     846.1947     78.38013     156.1389     312.8065      2.532     5.46     855.2279     55.11533     99.56659         6     2.435     0.345  44.18   2
       143     12.0271    808.1609 307.9049044  +6.3376004     2070.278     3104.654     3026.536     78.00718     156.2012     312.5268      1.560     3.30     854.0547     55.11533     306.6154        21     1.193     1.027  75.62   0
       144    234.3596    782.2786 307.8134615  +6.3557701     771782.8      1831413      2011902       78.256     156.3877     312.7133      2.309     4.53     855.5425     55.11533     63451.32       617     2.742     2.077  89.51   4
       145    699.5100    797.0398 307.6198111  +6.3652802     88933.77     136128.6     142675.3     78.38012     156.3877     312.7133      1.661     3.60     853.0494     55.11533     11172.06        82     1.542     1.269  80.82   3
       146    902.8046    801.1926 307.5352509  +6.3703630     8325.777     13309.19     13714.29     77.75755     156.0766     312.5268      1.680     3.58     850.5999     55.11533     1057.052        37     1.438     1.172  87.93   0
       147    344.3831    797.9036 307.7672482  +6.3530165      21010.1     32334.62     33647.53       78.256     156.2012     312.4645      1.660     3.61     856.8057     55.11533     2596.034        48     1.464     1.192  84.63   0
       148    406.2735    795.7001 307.7416231  +6.3560044     22294.82      34308.6     35602.14     78.00718      156.512     312.6512      1.676     3.59      856.731     55.11533     2792.371        50     1.473     1.199  81.01   0
       149    393.8071    797.9594 307.7467235  +6.3546531     1445.276      2204.69     1956.128     77.75755     156.0766     312.3712      1.623     4.98     856.8279     55.11533     192.0442        15     1.277     0.823  75.31   0
       150    633.3923    797.7203 307.6472441  +6.3627856     814.0864     1428.073     1735.705     78.00718      155.952     312.5268      1.754     4.83      853.814     55.11533     134.7971         9     1.141     0.579  59.58   0
       151    943.4692    795.0643 307.5185697  +6.3742513     1997.408     2920.688     2796.241     78.38012     156.4499     312.7133      1.569     3.87     849.3868     55.11533     257.3054        19     1.249     0.953  76.06   0
       152    640.4152    791.7415 307.6445289  +6.3654893      6706.28     9998.587     10778.58     77.75755     156.3256     312.4334      1.631     3.57     853.4056     55.11533     854.7476        30     1.373     1.064  80.52   0
       153    872.6500    793.9126 307.5480174  +6.3723614     729.1238     1332.084     1267.592     78.38012     156.2634     312.7755      1.877     4.36      851.397     55.11533     120.0714         8     1.144     0.640  74.83   0
       154    429.0114    789.7807 307.7323808  +6.3592115     1687.678     2443.047     2199.878     78.00718     156.1389      312.589      1.571     3.69     856.2286     55.11533     229.6415        17     1.134     0.977  59.28   0
       155    420.7984    804.4868 307.7352955  +6.3528641     753.5118      1076.74     990.6031     77.63244      155.952     312.4023      1.434     4.56     856.9462     55.11533     103.8228         8     1.037     0.571  74.06   0
       156    154.0119    788.8289 307.8466033  +6.3503630     683.6075     1046.123     758.5075     77.88247     156.2012      312.589      1.495     5.07     854.7873     55.11533     101.1569         8     1.157     0.630  67.93   0
       157    593.0947    783.8352 307.6644451  +6.3671685     816.0768     1200.081         1224     78.50404     156.2634     312.7755      1.478     5.39     854.0217     55.11533     106.6808        10     1.076     0.760 -85.66   0
       158   1022.7473    783.9576 307.4860200  +6.3814831     722.5115     1082.614     1085.684     77.50713     137.3953     249.8907      1.553     3.71     847.4152     55.11533     95.92584         7     0.762     0.646  81.63  24
       159    868.2718    783.7993 307.5501750  +6.3763908     759.3311     1390.952     1374.388     77.75755      155.952     312.4956      1.848     5.11      851.283     55.11533     100.5262         8     1.197     0.617 -77.51   0
       160    675.3948    781.8022 307.6303375  +6.3707643     2474.849     3753.449     4085.468     77.75755     156.0766     312.4645      1.644     3.61     852.3402     55.11533     320.0436        21     1.299     0.952  74.60   0
       161    144.4556    782.5549 307.8507834  +6.3526317     908.5105     1237.105     1134.343     78.38013     156.3877     312.6822      1.335     3.44     854.4155     55.11533     151.6003         8     1.026     0.498 -89.97   0
       162    119.2942    781.9954 307.8612500  +6.3520158     1011.934      1476.86      1598.86     78.13169     156.0766     312.4334      1.577     3.97     854.1102     55.11533     148.6529        12     1.063     0.793  69.96   0
       163    409.2045    778.3990 307.7409893  +6.3632459     54145.36     83518.21     87449.66     77.75755      155.952     312.4334      1.674     3.50     855.8427     55.11533     6863.688        75     1.518     1.299  84.56   0
       164    899.7487    792.6786 307.5368056  +6.3737763     6582.189     10366.67     10978.31     78.38013     156.4499     312.6822      1.713     3.55     850.5331     55.11533     889.2527        34     1.435     1.134  84.81   0
       165    526.9641    777.3796 307.6921237  +6.3676173     6994.912     10806.91     11143.05     77.88246     156.2012     312.4645      1.642     3.70     854.5461     55.11533     927.1544        34     1.439     1.099  79.53   0
       166    443.7230    775.9995 307.7267364  +6.3653951     4459.466     6935.811     7142.288     77.63244     155.7649     312.4334      1.635     3.48     855.4048     55.11533     563.8687        26     1.264     1.121  84.73   0
       167    772.1875    774.0753 307.5904025  +6.3771935     11483.33     17932.01     18338.73     78.00718     156.0766     312.4956      1.656     3.65     852.3633     55.11533     1489.566        40     1.414     1.173  77.82   0
       168    705.8246    800.5814 307.6170698  +6.3640293     21988.26     33845.85     36751.41     78.00718     156.1389     312.6201      1.691     3.64     853.2456     55.11533     2674.337        58     1.589     1.254  83.26   3
       169    667.2672    773.0786 307.6340060  +6.3740940     467.3962      879.882     1084.596     78.50404     156.4499     312.6512      1.443     3.67     852.1923     55.11533     86.83606         5     1.474     0.262  48.47   0
       170    440.4443    769.3554 307.7283218  +6.3680283     2237.333     3457.205     3319.889     78.38013     156.3877     312.6201      1.704     4.15     855.1685     55.11533     286.0165        22     1.389     0.991 -83.81   0
       171      1.8041    770.5493 307.9104222  +6.3527842     1042.777     1366.884     1109.499     73.25157     131.1698     242.6277      1.439     4.11     854.3844     55.11533     157.9189        11     1.080     0.783  62.58  24
       172    122.2114    756.9593 307.8608852  +6.3624505     2047.021     3267.689     3980.586     77.75755     156.2012     312.4023      1.750     4.09     853.2293     55.11533     252.5366        20     1.268     1.022  74.66   3
       173    129.8826    765.9387 307.8573963  +6.3590015     11457.82     18124.77     20045.75     78.50404     156.3877     312.6822      1.704     3.65     853.6122     55.11533     1420.695        46     1.471     1.267  82.75   2
       174    122.1609    763.4137 307.8606880  +6.3597840     3067.751     4933.146     5927.479     77.88247     156.2012     312.4334      1.865     3.61     853.4484     55.11533     421.9927        27     1.386     1.094  52.39   3
       175    793.8519    768.3100 307.5815995  +6.3802984     1263.476     1778.528     2148.515     78.38012     156.2012     312.8065      1.567     4.22     852.0919     55.11533     166.0457        16     1.204     0.910  79.21   0
       176    138.0651    766.2054 307.8539896  +6.3591668     2971.008     4815.189     5114.717     77.88246     156.1389     312.4645      1.637     3.77     853.6666     55.11533      402.966        26     1.495     0.969  81.93   0
       177    917.6855    762.6749 307.5303635  +6.3867635     6527.186      10012.3     10542.28     78.50404     156.6982     312.7444      1.660     3.61     849.4655     55.11533     768.5842        32     1.392     1.117  65.50   0
       178    966.6864    762.5012 307.5100202  +6.3884713     1377.447     2297.692     3091.541     78.38013     156.8222     312.7444      1.842     5.00     848.1682     55.11533     182.4423        17     1.262     1.000  84.11   0
       179    672.9927    760.3031 307.6320580  +6.3795604     1662.672     2644.322     3100.168     78.13169     156.0144     312.4334      1.728     4.00      851.731     55.11533     259.9839        15     1.259     0.784  62.92   0
       180    559.8887    759.5536 307.6790516  +6.3760810     2347.805     3573.777     3903.937     78.38012     156.2634     312.7755      1.669     3.75     853.4438     55.11533     292.0042        20     1.225     0.988  82.42   0
       181    407.9619    759.0543 307.7421576  +6.3711911     1185.909     1850.833     2512.958     78.38012     156.4499     312.6822      1.743     5.00     854.9014     55.11533     152.6826        14     1.312     0.825 -88.34   0
       182    691.5126    757.8192 307.6244507  +6.3812060     613.7406     1026.535     806.8538     78.13169     156.1389     312.5579      1.558     4.78     851.8176     55.11533     116.7799         6     1.351     0.480  65.68   0
       183    941.4952    754.1343 307.5207622  +6.3910849     2981.619     4710.877     5118.966     78.38012      156.512     312.7133      1.750     4.01     848.7106     55.11533     394.9165        25     1.319     1.118  51.69   0
       184    911.8979    754.5853 307.5330383  +6.3899103     2891.477     4274.338     4457.045       78.256     156.1389     312.4645      1.598     3.76     849.4701     55.11533     384.2625        24     1.294     1.069  67.83   0
       185    972.2640    753.8688 307.5079933  +6.3922217     1963.032     2970.149     3350.541     78.38012     156.4499     312.7444      1.666     3.89      847.814     55.11533     263.9808        16     1.170     0.948  74.41   0
       186    664.1817    753.7603 307.6359370  +6.3819668     1393.901     2231.122     2615.809     78.00718     156.2012     312.4645      1.842     4.44     851.6878     55.11533     194.5317        15     1.299     0.826  62.72   0
       187    811.3951    752.3132 307.5748515  +6.3874898     1008.495     1708.775     1665.816     77.88247     156.0766     312.3712      1.718     4.81     851.7112     55.11533     141.6317        13     1.404     0.685  84.70   0
       188    886.8223    749.8317 307.5436113  +6.3910353     810.9221     1041.191     1219.528     77.88246     156.2012     312.4956      1.391     4.82      849.939     55.11533     117.7803        10     1.000     0.723  63.95   0
       189    236.8192    748.7708 307.8135719  +6.3696871     1874.524     3051.947     3978.021     78.00718     156.2012     312.6201      2.013     3.96     854.1149     55.11533     226.0735        22     1.335     1.049 -89.72   0
       190    929.7266    744.0920 307.5259864  +6.3948382     974.7911     1385.563     1533.237     78.38012      156.512     312.7133      1.634     5.26     848.8789     55.11533     148.5594        11     1.324     0.600  84.36   0
       191    257.1779    744.5911 307.8052591  +6.3720973     707.9148     1011.506     1079.772     78.00718     156.1389     312.5268      1.546     5.01     853.9625     55.11533     102.9801         8     1.077     0.658  37.36   0
       192    152.3228    743.8536 307.8488248  +6.3688749     940.5941     1413.547     1131.622     78.50404     156.3877     312.7133      1.686     4.05      852.804     55.11533      129.682        11     1.244     0.712  88.90   0
       193    956.3187    741.9482 307.5150149  +6.3966112     2420.309      3713.49      4005.62     78.38012     156.3877     312.6822      1.664     3.77     848.0268     55.11533     323.3569        21     1.332     0.960  76.90   0
       194    903.5804    742.7128 307.5368908  +6.3945344     1011.349     1597.456      1644.39     78.13169     156.1389     312.5579      1.705     5.78     849.4199     55.11533      140.626        13     1.544     0.656 -83.04   0
       195    675.8972    740.8068 307.6315075  +6.3877073     884.3408     1483.001     1982.179     78.13169     156.0144     312.4645      2.009     4.83     851.2385     55.11533     133.2839        11     1.281     0.659 -88.24   0
       196    998.0203    735.3427 307.4979181  +6.4007306     1674.645     2706.492     2707.113     78.00718     156.2634     312.4956      1.704     3.84     846.5519     55.11533      233.704        18     1.225     1.021  74.87   0
       197    466.7717    736.7421 307.7184882  +6.3823768     502.2296     487.4402     419.0063     78.00718     156.4499      312.589      1.255     5.05     853.8499     55.11533     100.1786         5     1.055     0.685  76.28   0
       198    624.2310    735.3751 307.6531459  +6.3882197     696.2264     767.6163     765.7548     77.88247     156.2634     312.4956      1.178     3.63     851.4628     55.11533     129.7498         7     0.944     0.529  54.98   0
       199    799.2613    733.9446 307.5805074  +6.3946682      1125.81     1690.926     1526.661     78.50404     156.3877     312.6822      1.701     4.91     851.7328     55.11533     156.5952        15     1.313     0.859  70.04   0
       200    885.6683    731.1241 307.5447184  +6.3987208     1492.513      2151.31     2402.517     78.50404      156.512     312.6822      1.605     3.98     849.5214     55.11533     179.7426        16     1.158     0.911  65.11   0
       201    859.9750    726.3995 307.5555471  +6.3998130     1048.732       1471.9     1536.925     78.00718     156.0766     312.4956      1.556     3.87     849.9827     55.11533      160.347        12     1.036     0.810  63.22   0
       202    842.4165    722.6777 307.5629639  +6.4007629     1576.794     2426.633     2043.377     78.00718     156.1389     312.5579      1.656     4.02     850.3705     55.11533     196.2247        17     1.161     0.983  89.59   0
       203     41.5048    721.3480 307.8956024  +6.3744351     2479.664     3910.799     4009.454       78.256     156.3256     312.9308      1.757     4.17     853.3184     55.11533     287.5833        22     1.399     0.965  87.28   0
       204    105.5651    720.2018 307.8690404  +6.3770659      901.603     1740.382      2058.07     77.50713     156.2012     312.5268      2.120     6.30     852.2137     55.11533     123.1629        15     1.763     0.633  78.08   0
       205    454.2223    720.4505 307.7242486  +6.3886822     538.0848      708.948     348.2344     77.88247     156.4499     312.5579      1.321     4.38     853.2202     55.11533     80.82166         5     1.189     0.458  58.42   0
       206    559.4518    716.5812 307.6806798  +6.3938087     578.9091     820.7747      715.255     77.88247     156.4499     312.4645      1.412     4.81     852.0086     55.11533     82.88556         7     1.095     0.599 -65.63   0
       207    654.2844    709.9772 307.6415198  +6.3997126     6222.598     9656.632     10473.48       78.256     156.1389      312.589      1.673     3.61     850.7979     55.11533     766.8784        30     1.347     1.124  80.50   0
       208    600.9791    709.0949 307.6636863  +6.3982913     1487.971     2300.981     2323.718       78.256     156.2012     312.5268      1.638     4.13     851.2489     55.11533     191.0953        18     1.329     0.915 -85.28   0
       209    522.7763    709.9253 307.6961345  +6.3953272     732.0238     1133.937     1217.559     78.00718     156.2012     312.6201      1.558     3.60     852.3179     55.11533     124.4608         6     0.909     0.443  55.55   0
       210    511.7853    709.4097 307.7007162  +6.3951716     778.5741     927.4092     1630.702     78.13169     156.1389     312.6201      1.576     4.68      852.426     55.11533     95.60291         8     1.009     0.615  71.84   0
       211    991.2830    705.1777 307.5017273  +6.4129604     2493.673     4068.265     4009.716     78.13169     156.0766     312.5579      1.741     3.98     846.7482     55.11533     286.3472        24     1.356     1.084  78.78   0
       212    628.0738    705.7330 307.6525474  +6.4005870     2069.414      3199.06     3581.492     78.50404      156.512     312.6512      1.651     3.94     850.9369     55.11533      290.436        22     1.301     1.012  83.33   0
       213    303.6981    706.0845 307.7872412  +6.3895590     687.5449     1048.561     1264.383     78.38012     156.7602     312.7444      1.894     6.24     852.6757     55.11533     91.41937         9     1.279     0.855  66.56   0
       214    117.2286    705.7112 307.8646872  +6.3834412     3748.078     5747.548     6321.883     78.50404     156.1389      312.589      1.644     3.57     851.9785     55.11533     478.5056        27     1.344     1.151  79.53   0
       215    239.5701    705.5954 307.8138878  +6.3876053     674.2639     1146.986     1306.583     77.88247     156.2012     312.4956      1.535     4.40     852.3925     55.11533     103.4559         7     1.082     0.510  47.68   0
       216    771.1923    702.0972 307.5932340  +6.4068787      20363.3     30777.81     31728.18     78.13169     156.0144     312.4645      1.617     3.49     850.7078     55.11533     2542.277        45     1.410     1.182  80.46   0
       217    901.2674    701.8718 307.5392218  +6.4113198     3653.932     5678.904      5615.45     78.38012      156.512     312.7133      1.652     3.56     848.4979     55.11533     447.8077        27     1.351     1.069  76.54   0
       218    470.1555    702.2334 307.7182459  +6.3967381     1335.166     2029.392      2039.56     78.00718     156.3256     312.5268      1.591     3.94     852.5533     55.11533      165.242        16     1.076     1.047 -35.32   0
       219    498.8354    701.9412 307.7063456  +6.3978208     922.9582     1211.645     1293.956     78.38012     156.3877     312.6822      1.458     3.70     852.3525     55.11533     153.0002         9     0.980     0.700  88.62   0
       220    272.3728    701.5585 307.8004024  +6.3903749     593.6216     1069.016     1037.344     78.00718     156.2634     312.5268      1.613     3.39     852.4715     55.11533      82.4046         5     1.043     0.320  68.56   0
       221    634.3859    696.4780 307.6502375  +6.4046197     876.9744     1557.414     1935.086     78.00718     156.1389     312.4956      2.062     5.31     850.7178     55.11533     136.3182        11     1.282     1.021  73.23   0
       222    244.6844    695.5961 307.8121017  +6.3919057      6111.62      9417.89     9730.813     77.88247     156.0144     312.3712      1.661     3.53     852.0493     55.11533     726.9617        35     1.407     1.160  74.13   0
       223    651.7493    694.8503 307.6430814  +6.4058733     7061.443      11046.3     12057.09     78.38012     156.2634     312.6201      1.695     3.42     850.5555     55.11533     901.7111        35     1.402     1.140  79.98   0
       224    911.2523    687.2048 307.5355672  +6.4177091     1304.432     1917.455     1746.438     77.75755     156.1389      312.309      1.573     5.76     847.8629     55.11533     176.6173        15     1.455     0.895  45.82   0
       225    723.4783    683.2327 307.6136834  +6.4130712     3703.332     5832.893     6446.435       78.256     156.3877     312.6822      1.720     3.90     850.2603     55.11533     449.9637        26     1.442     1.021  77.37   0
       226    678.7125    683.7152 307.6322583  +6.4113735     1011.762     1571.735     1864.205     78.13169     156.5741     312.7444      1.825     4.06     850.2051     55.11533     145.8597        10     1.008     0.775 -57.79   0
       227    989.7242    679.9028 307.5032221  +6.4233441     8696.014     13796.92     14060.21     78.00718     156.6362     312.7444      1.680     3.66     846.7335     55.11533     1061.703        36     1.438     1.149  76.04   0
       228    928.2305    680.4277 307.5287434  +6.4210744     2421.038     3703.583     3999.446     77.88247     156.1389     312.4645      1.655     4.08     847.2137     55.11533      298.707        20     1.304     0.952  80.99   0
       229      8.8044    679.6082 307.9105939  +6.3905660     1833.808     3103.337     3619.991     77.75755     156.0766     312.5268      1.955     4.88     852.2192     55.11533     253.3051        24     1.439     1.261  51.59  16
       230     67.1170    674.6002 307.8865487  +6.3945983      25193.9     39678.45     41449.96     77.63244     155.8897     312.3401      1.673     3.50     851.6444     55.11533     3328.331        55     1.498     1.253  82.70   0
       231    528.3181    675.6520 307.6949875  +6.4096637     2087.819     3215.898     3160.276     78.38013     156.3877     312.7133      1.676     3.62     851.2966     55.11533     266.6391        22     1.293     1.010 -83.85   0
       232    497.3364    672.6127 307.7079562  +6.4098795     1356.866       1968.3     1991.088     77.88247     156.2012     312.4956      1.628     4.67     851.3881     55.11533     193.1965        14     1.168     1.010 -84.39   0
       233    917.9046    672.0411 307.5333132  +6.4241922     1064.446     1646.246     1873.305     78.38012     156.3256     312.8065      1.538     4.20     847.2908     55.11533     159.4649         9     0.911     0.812  67.57   0
       234    537.5212    669.4060 307.6913758  +6.4125511     1117.426     1837.957     1535.643     78.00718     155.8897     312.4645      1.730     5.36     850.9786     55.11533     140.9891        11     1.187     0.832  85.64   0
       235    713.1248    667.0284 307.6185280  +6.4194151     3570.862     5367.069     5372.671       78.256     156.4499     312.6512      1.595     3.74     849.8043     55.11533       445.73        26     1.280     1.117  79.84   0
       236    735.1059    665.3114 307.6094569  +6.4208597     4169.492     6240.863     6102.043     78.38012     156.8222     312.7444      1.595     3.75     849.7504     55.11533     541.4769        28     1.371     1.098  79.29   0
       237    566.6824    663.1031 307.6794776  +6.4161310     3282.154     4958.758     4799.233       78.256     156.7602     312.7444      1.604     3.74     850.4841     55.11533        416.2        20     1.211     0.981  70.31   0
       238    402.5667    663.8549 307.7476082  +6.4103153     1286.756     1931.414     2394.672       78.256     156.3877     312.6512      1.568     4.48     851.1472     55.11533     190.0314        10     1.061     0.713  67.73   0
       239    227.1857    662.6313 307.8204819  +6.4049273     1742.428     2607.807     2722.357     78.00718     156.1389     312.6201      1.597     3.59     850.7977     55.11533     231.9283        16     1.127     0.938  77.42   0
       240   1007.9762    661.4171 307.4962615  +6.4315857     4988.923     7798.394     7286.942     78.13169     156.2634      312.589      1.663     3.66       846.09     55.11533     646.5168        31     1.392     1.130  83.56   0
       241    310.4606    661.9631 307.7859222  +6.4080027       1385.8     2211.881     1669.927     78.38012     156.4499     312.6512      1.653     4.28     851.2496     55.11533     190.3304        17     1.247     0.991  73.03   0
       242    973.3835    660.2704 307.5106669  +6.4309046     8081.542     12366.47     12890.63     77.88247     156.3256      312.589      1.657     3.80     846.4368     55.11533     988.5029        34     1.408     1.108  78.44   0
       243   1022.4714    659.0228 307.4903217  +6.4330580     852.5745     1140.478     784.9192     78.00718     140.4046     253.9041      1.508     5.20     845.8325     55.11533     127.8221        10     1.227     0.624  66.11  24
       244    693.2836    659.0365 307.6270368  +6.4220507     983.9653     1396.025     1430.799     78.38012     156.3256     312.6201      1.389     5.16     849.4542     55.11533     139.9913        11     1.076     0.856  82.96   0
       245     85.0527    657.2412 307.8796879  +6.4023692     947.5228     1556.694     1640.606     78.38012     156.4499     312.6822      1.810     5.50     851.1933     55.11533     122.2494        12     1.180     0.723  76.57   0
       246    418.8298    654.2916 307.7411768  +6.4148097     2846.542     4678.182     4894.996     78.50404     156.1389     312.6201      1.768     4.71     850.7784     55.11533      350.979        27     1.606     1.108 -79.76   0
       247    131.8435    653.5486 307.8603820  +6.4054693     24282.32     37317.17     39061.85     78.38012     156.3256     312.7133      1.677     3.61     851.0713     55.11533     3002.652        52     1.489     1.224  86.07   0
       248    800.3526    654.0479 307.5827379  +6.4276927     1244.793     1820.707     2097.683     78.38012     156.2634     312.7133      1.624     4.44     849.0871     55.11533      164.449        14     1.132     0.902 -88.71   0
       249    351.2835    648.1367 307.7694357  +6.4150827     800.1267     1091.025     1013.691     78.50404     156.4499     312.6512      1.518     4.84     850.5642     55.11533     96.16608         8     1.036     0.640  80.52   0
       250    968.2610    643.2431 307.5133653  +6.4377640     6892.793     11134.07     11968.64     78.38013     156.3877     312.8065      1.736     3.84     846.0667     55.11533     897.9979        37     1.588     1.103  55.64   0
       251     12.9887    642.4179 307.9101154  +6.4060613     1123.879     1623.728     1604.182     78.00718     156.0766      312.589      1.486     4.56     851.3041     55.11533     156.1288        12     1.215     0.719  87.65   0
       252   1023.1052    638.3183 307.4907524  +6.4416277     80992.84     109948.7     112907.7      74.3056     132.6437     244.4239      1.435     4.27     844.6791     55.11533     11273.64        56     1.507     0.966  86.65  24
       253    561.8821    638.4196 307.6823023  +6.4261613     48005.59      73965.2     77392.48     78.00718     156.0766     312.6201      1.670     3.76     849.4382     55.11533     6168.348        67     1.502     1.248  82.42   0
       254    926.2094    640.3912 307.5309260  +6.4375373      676.148     982.5684     810.0231     77.88247     156.2012     312.5579      1.430     3.43     846.8868     55.11533      92.2345         5     0.801     0.424  20.77   0
       255    205.5950    639.6323 307.8302251  +6.4136967     626.0504     884.4302     1216.221     77.75755     156.2634     312.4645      1.682     5.27     850.5624     55.11533     91.01086         8     1.133     0.693 -83.50   0
       256    521.4641    638.2267 307.6990945  +6.4248859     706.2217      1276.43     1381.012     78.00718     156.3256      312.589      1.503     4.09     849.7824     55.11533     121.9232         7     1.184     0.404  74.78   0
       257    972.5548    635.0892 307.5118555  +6.4412739     731.2236     1151.674     1155.305     78.38012     156.2634     312.7444      1.788     5.41     845.7433     55.11533     107.3602         7     0.978     0.844  63.05   0
       258    492.0346    635.2812 307.7114159  +6.4251150     649.3125     984.0359     1001.659       78.256     156.3877     312.6822      1.548     4.29      849.962     55.11533     86.11536         6     1.157     0.454 -73.46   0
       259    169.3663    634.9639 307.8454280  +6.4144052     2698.679     4520.151     4500.267     78.13169     156.1389     312.4334      1.782     4.02     850.6771     55.11533     362.2606        25     1.373     1.114  75.63   0
       260    301.6393    634.0357 307.7905283  +6.4192366     370.6701     632.4709     279.7965     78.13169     156.2634     312.4956      1.792     5.27     850.1868     55.11533     70.51343         5     1.642     0.478  55.97   0
       261     61.9719    629.0195 307.8902276  +6.4132435      1427.51     2449.949     2511.994     78.00718     156.2012     312.6201      1.834     4.02     850.7938     55.11533     205.3937        14     1.161     0.830  89.98   0
       262    459.1405    622.1866 307.7255182  +6.4294178     60624.04     95125.28     99585.41     77.75755     156.3256     312.3712      1.664     3.52     849.5986     55.11533     7519.167        74     1.511     1.295  84.25   0
       263      2.6609    623.9482 307.9150295  +6.4133386      1695.53     2480.314     2477.641     78.38012     142.1249     255.9631      1.645     4.58     851.0125     55.11533     204.7551        16     1.154     0.919  85.20  24
       264    645.0414    619.2740 307.6484098  +6.4368525     859.9954     1339.638     1169.873       78.256     156.4499     312.7133      1.538     5.06     848.0588     55.11533     121.5212         9     1.089     0.679 -44.21   0
       265    133.5256    617.2009 307.8609126  +6.4205325     1554.466       2576.6     1950.317     77.63244     155.8273     312.5268      1.741     4.90     850.3843     55.11533     178.9919        20     1.358     1.067  89.42   0
       266    928.7581    614.8809 307.5307233  +6.4481553     591.1358      841.032      882.438     78.38012     156.3877     312.6512      1.472     3.78     846.7371     55.11533     88.47882         5     1.172     0.349 -77.20   0
       267    605.2969    614.1042 307.6650903  +6.4376556     832.2168     1385.163     1539.325     78.38012     156.9462     312.5268      1.758     3.95     848.2357     55.11533     125.1539        11     1.140     0.695  83.97   0
       268    412.3259    614.9112 307.7452058  +6.4308504     799.5103     1267.151     748.4891     78.38012     156.6982     312.7444      1.441     5.19     849.3405     55.11533     111.0927         9     1.167     0.653 -47.64   0
       269    304.5897    611.4995 307.7900638  +6.4286403     2166.395     3598.912     4280.139     78.13169     156.0144     312.4645      1.899     4.80     849.2812     55.11533     254.2174        27     1.646     1.014  86.43   0
       270    487.4203    613.6818 307.7140600  +6.4338780     539.0079     733.0385     1137.454     78.13169     156.0766     312.6201      1.791     5.27     849.2243     55.11533     84.62512         5     1.021     0.768  84.27   0
       271      4.8159    612.6089 307.9145185  +6.4180927      739.753     1233.588     1644.464     78.13169     156.1389      284.113      1.881     4.80     850.7906     55.11533     111.7505         7     1.158     0.564 -19.13  16
       272    456.6986    610.6864 307.7269199  +6.4340840     827.1475     1357.974     2024.436     78.38013     156.8222     312.7444      2.235     5.48      849.193     55.11533      118.436        11     1.126     0.753  62.00   0
       273    731.1452    605.7606 307.6131036  +6.4453145     5329.353     8052.683     8788.175     78.38012     156.4499     312.6822      1.652     3.54     847.4572     55.11533     670.0364        29     1.348     1.083  86.67   0
       274    784.7361    601.0499 307.5910042  +6.4490524     13999.33     20947.94     21472.01       78.256     156.3256     312.7133      1.594     3.44     847.2987     55.11533     1863.255        39     1.375     1.143  74.18   0
       275   1002.2754    601.2036 307.5006479  +6.4562569     1068.874     1729.645     1787.249     77.88247     155.8897      312.589      1.775     5.08     843.6879     55.11533     140.9586        13     1.272     0.858 -75.94   0
       276    526.9770    600.9897 307.6980593  +6.4404450     1235.355     1874.191     1843.606     78.00718     156.2012     312.5268      1.643     5.10     848.2854     55.11533     176.1819        17     1.496     0.851  77.29   0
       277   1023.7233    599.9453 307.4917819  +6.4574921     1170.459     1627.954     1617.043     67.44819     123.4583     234.4365      1.295     4.09     842.9069     55.11533      245.392         8     1.112     0.445 -87.68  24
       278    608.6071    599.0232 307.6642231  +6.4439931     2896.855     4350.537     4305.137     77.88246     156.2012     312.5268      1.632     3.95      847.817     55.11533     350.7332        21     1.271     1.017  81.52   0
       279     29.7955    599.8542 307.9045768  +6.4242005     710.6661     1093.314     1157.648     77.75755     156.1389     312.3712      1.620     4.69     850.4828     55.11533     94.10223         7     1.001     0.624  -2.79   0
       280    925.8364    595.2012 307.5325971  +6.4561832     976.4826     1437.389     1471.725     77.50713     156.2012     312.4956      1.540     5.88      845.873     55.11533     152.3837        13     1.349     0.721  84.91   0
       281    184.2717    593.9133 307.8406255  +6.4318550     638.0114      1105.86     1156.052     78.50404     156.6362     312.6822      1.803     4.66     849.6322     55.11533     85.87073         7     1.389     0.444 -88.86   0
       282    366.9660    592.6848 307.7647937  +6.4385039     907.2172     1283.363      1127.97     78.38012     156.2634     312.6512      1.554     4.90     848.6955     55.11533     134.0048        10     1.005     0.677  87.78   0
       283    221.0758    592.7317 307.8253808  +6.4335810     1336.419     1901.909     2125.785     78.50404      156.512     312.6822      1.582     3.81     849.4041     55.11533     189.7442        15     1.105     1.034  62.70   0
       284    860.8304    584.2804 307.5599630  +6.4585204     2710.487     4270.782     4627.002       78.256     156.3256     312.6512      1.725     3.63     845.9328     55.11533     353.1959        23     1.359     0.992  73.92   0
       285    155.8882    583.9875 307.8527486  +6.4349979     640.6138      1117.54     1243.386     78.13169     156.1389     312.5579      2.030     4.76     849.4394     55.11533     87.91016         8     1.206     0.532 -79.28   0
       286    819.4539    581.5972 307.5772383  +6.4582451     2616.202     3760.306     3776.396     77.75755     156.1389      312.309      1.588     3.58     846.6764     55.11533     354.2759        23     1.294     1.018  67.63   0
       287    790.5400    577.9775 307.5893689  +6.4587727     2626.088     4117.817      5298.43     78.00718     156.3256     312.6201      1.859     4.08     846.9847     55.11533     310.5621        22     1.289     1.050  58.85   0
       288    732.8779    577.8395 307.6133226  +6.4569006     730.9933     1530.453     2756.911       78.256     156.3877     312.6822      3.522     5.58     847.0447     55.11533      122.806         9     1.499     0.586  75.68   0
       289    800.1096    572.9258 307.5855641  +6.4611785       159460     240411.2     251877.8     78.38012     156.6362     312.7133      1.608     3.64     846.9101     55.11533     20007.37       117     1.567     1.315  79.43   0
       290    181.7233    571.1464 307.8424534  +6.4411690     57125.68     90333.77     95884.04     78.50404     156.3877     312.7133      1.715     3.62     848.8392     55.11533     6989.524        87     1.585     1.374  85.34   0
       291    247.4291    576.4872 307.8149850  +6.4411741     7699.469     12335.66     13130.09     78.50404     156.1389     312.5579      1.764     3.69     848.5709     55.11533     890.8666        41     1.524     1.218  72.68   0
       292    105.7131    567.4204 307.8741465  +6.4401486     6105.094     9647.352     10240.09     78.13169     156.1389     312.5579      1.720     3.76     849.1375     55.11533     703.9339        34     1.420     1.183 -88.36   0
       293    970.9136    564.8062 307.5148943  +6.4702380     1438.891     2065.418      1949.25     77.88246     156.0766     312.4334      1.561     3.69      843.257     55.11533     236.8263        16     1.200     0.892  52.20   0
       294    991.9632    563.3391 307.5062006  +6.4715464      744.284      1085.39     503.6476     78.38012     156.4499     312.6512      1.504     4.64     842.8114     55.11533     110.3555         8     1.016     0.601 -63.08   0
       295    836.7087    560.2414 307.5707890  +6.4676394     4596.269     6813.948     6847.307     78.38013     156.3877     312.7444      1.591     3.52      845.771     55.11533     572.0095        28     1.319     1.065 -89.03   0
       296    355.1066    558.2941 307.7708795  +6.4523045     16644.71     26245.09     27095.93     78.38012     156.8842     312.6512      1.695     3.53     847.7943     55.11533     2081.958        45     1.476     1.198  80.82   0
       297    445.3908    558.3763 307.7333797  +6.4553020     824.5974     1202.528     1445.578     78.00718     156.2012     312.5579      1.518     5.10     847.7244     55.11533     123.6943         9     1.071     0.686 -61.40   0
       298    157.1461    557.1375 307.8531340  +6.4461256     1763.191     2971.016     3487.783     78.38012     156.3256     312.6512      1.779     4.34     848.5734     55.11533     229.4727        22     1.352     1.122  74.68   0
       299    790.5868    553.5323 307.5901709  +6.4688673     5922.571     8716.867      9203.03     77.88247     156.2012      312.589      1.638     3.55     846.6697     55.11533      692.301        28     1.305     1.076  74.85   0
       300    521.4622    553.1889 307.7019600  +6.4599959     6347.109     9947.595     9971.422     77.88247     156.2012     312.4645      1.659     3.61     847.1819     55.11533     779.7723        33     1.378     1.139  73.43   0
       301    231.8053    554.5990 307.8222132  +6.4496856     930.9728     1613.921     1869.436     77.75755     156.0766     312.4645      1.730     5.29     847.8486     55.11533     134.2958        11     1.283     0.615  72.19   0
       302     94.5833    554.4581 307.8792072  +6.4451254     954.7814     1086.087     1406.663     77.88247     156.3256     312.4334      1.386     4.65     848.8872     55.11533     146.6982         8     0.856     0.781  59.58   0
       303    379.6133    549.9275 307.7609837  +6.4565820     1307.024     2091.628     2376.041     77.88246     156.0766     312.4956      1.735     4.25     847.5244     55.11533     189.8754        18     1.316     0.944  44.85   0
       304    566.1734    546.4102 307.6836183  +6.4642937     2257.415     3778.429     3762.669     78.00718     156.2012     312.5579      1.774     4.26     846.7156     55.11533     252.5088        23     1.292     1.174 -50.72   0
       305    168.4754    546.2815 307.8487959  +6.4509890       6587.1     10233.32     10536.62     78.62777     156.6362     312.7444      1.718     3.68     848.1174     55.11533     773.9637        33     1.408     1.119  85.65   0
       306    849.5181    546.3884 307.5659339  +6.4737872     681.1217     890.5831     653.7281     78.00718     156.1389     312.5268      1.648     5.87     845.0014     55.11533     90.78949         7     1.075     0.901  68.81   0
       307    263.7292    542.7832 307.8093539  +6.4556375     84343.38     133701.9     139060.2     77.88247     156.3256      312.589      1.707     3.54     847.3644     55.11533      10476.6        88     1.560     1.336  86.40   0
       308     40.0751    545.0231 307.9021638  +6.4471845     4777.833     7700.401     7726.682     78.00718     156.2634     312.6201      1.675     3.64     849.6801     55.11533     643.5865        29     1.424     1.063  84.86   0
       309    807.1170    545.7193 307.5835676  +6.4726459     1278.137     1777.578     1786.774       78.256     156.6362     312.7444      1.491     3.82     846.3729     55.11533      201.287        13     1.016     0.934  74.03   0
       310    553.1879    540.6633 307.6892052  +6.4662312     802.6178     1113.615     1201.745     77.88247     156.2012     312.4645      1.413     4.94     846.5985     55.11533     123.5355        10     1.281     0.539  66.87   0
       311    247.3737    537.8102 307.8163146  +6.4571407     1410.673     1986.686     1607.866     78.00718     156.2012     312.5579      1.531     3.83      847.209     55.11533     186.8148        16     1.126     0.989 -59.23   0
       312    963.2396    536.9749 307.5190152  +6.4814730         1575     2326.455      2135.43     78.00718     156.2012     312.4645      1.564     3.72     842.2567     55.11533     217.2947        16     1.134     0.919  75.34   0
       313    786.8565    535.2996 307.5923329  +6.4762705     16109.61     24255.01     24828.96     78.13169     156.3877     312.8998      1.617     3.69     846.1421     55.11533     2051.996        40     1.407     1.144  81.40   0
       314    490.4818    533.6525 307.7154855  +6.4670228     39813.55     67123.79     71842.33     78.38013     156.3877     312.7133      1.843     3.81     846.9878     55.11533     4617.968        77     1.595     1.506  61.66   0
       315    641.1270    532.1581 307.6529669  +6.4726897     959.8292     1674.809     2013.754       78.256     156.4499     312.7133      1.866     5.99     846.2418     55.11533     132.7319        13     1.365     0.845  73.45   0
       316     38.5101    530.3086 307.9033119  +6.4532067     1254.715     1803.914     2036.527     78.38013     156.8842     312.7755      1.594     4.41     849.3984     55.11533     160.9478        14     1.343     0.745  84.08   0
       317    202.8661    529.9297 307.8350657  +6.4588972     1779.593     3029.674     3452.904     78.38012     156.4499     312.6822      1.824     4.56     847.3743     55.11533     231.6901        24     1.446     1.139 -77.11   0
       318     89.2226    530.1145 307.8822572  +6.4549954     699.3722     980.8323     979.4491     78.38012     156.1389      312.589      1.506     4.25     848.4948     55.11533     130.5131         8     1.261     0.640  67.41   0
       319    712.9948    527.9691 307.6232577  +6.4768257     1215.055     2196.291     2389.867     77.75755     156.2634     312.4645      1.985     5.27     845.9036     55.11533     143.8179        19     1.550     0.966  70.71   0
       320    660.5456    528.9379 307.6450098  +6.4746696     1353.428     2006.382     2116.956     78.50404     156.3256     312.6512      1.602     3.77     846.0477     55.11533     192.9519        14     1.091     0.901 -68.48   0
       321    650.3156    528.6231 307.6492694  +6.4744570     3043.898     4747.735     4925.792       78.256     156.1389      312.589      1.664     3.61     846.1046     55.11533     380.3361        25     1.261     1.132 -87.90   0
       322     69.8028    526.0552 307.8904597  +6.4560172     764.9508     1320.987     1884.521     77.75755     156.2012     312.3712      2.371     6.58     848.7614     55.11533     104.9037        12     1.468     0.828  64.32   2
       323    387.8791    524.4178 307.7584113  +6.4673918     1754.277     2804.387     2699.534     78.00718     156.0766     312.6201      1.722     4.18     846.0604     55.11533     246.0502        21     1.406     1.017  82.88   0
       324    319.7608    522.5435 307.7867661  +6.4658773     3785.519     5929.602     6109.104     78.38013     156.4499     312.6512      1.694     3.69     845.9803     55.11533     438.4542        30     1.456     1.126  69.95   0
       325    134.8323    521.1360 307.8636186  +6.4602381     24974.73     39704.47     41614.48     78.13169     156.4499     312.6512      1.682     3.66     847.8019     55.11533     3016.203        57     1.490     1.283  86.33   0
       326    862.9803    521.3260 307.5611839  +6.4845851     1623.283     2225.294     2239.147     78.00718     156.3256     312.6201      1.526     4.09     843.8191     55.11533     195.5701        17     1.262     0.872  87.81   0
       327    499.6146    522.0364 307.7120838  +6.4721252     2053.285     3282.713      3395.61     78.00718     156.2012     312.4645      1.657     3.97     846.5023     55.11533     285.7502        19     1.280     0.934  72.64   0
       328     99.9645    519.4465 307.8781569  +6.4597616     2488.272      4087.07     3625.437     78.00718     156.3877     312.5579      1.740     3.90     848.1158     55.11533      317.063        22     1.338     0.975  68.46   0
       329    336.5177    517.5623 307.7799746  +6.4684969     1041.707     1624.138     1886.422     78.38013     156.4499     312.6512      1.698     5.31     845.6436     55.11533     147.4976        14     1.321     0.815 -78.19   0
       330    960.3589    515.8844 307.5209192  +6.4900847     5171.388     7940.041     8023.864     78.38012     156.3256     312.6512      1.658     3.59     841.7005     55.11533     676.1957        28     1.278     1.127  83.27   0
       331    533.5421    508.6511 307.6984432  +6.4787895     1294.863     2033.449      1934.92     78.38013     156.3877     312.6822      1.697     4.56     845.9046     55.11533     188.7466        17     1.316     0.882  73.97   0
       332      1.3172    505.5875 307.9195954  +6.4621594     3551.118     5088.291     5409.968     67.59216     123.6157     234.8922      1.469     4.76     849.5812     55.11533     789.6277        18     1.639     0.568 -89.70  24
       333    431.8274    502.2930 307.7409041  +6.4780020      41158.2     64659.88     68006.75     78.50404     156.1389     312.5579      1.700     3.66      845.062     55.11533     5046.385        68     1.541     1.283  80.26   0
       334    639.8506    502.0620 307.6545098  +6.4850730     11588.51     18069.63     18941.33     78.38012     156.3256     312.7444      1.656     3.69     845.3457     55.11533     1467.417        40     1.429     1.160  83.54   0
       335    280.0374    502.4653 307.8039424  +6.4728318        966.1     1616.189     1830.928       78.256     156.3256     312.7444      1.877     5.20     844.8537     55.11533     117.3466        12     1.106     0.874 -88.76   0
       336    196.9871    499.8638 307.8385236  +6.4711126     18161.03     30562.53      31192.7     77.88247     156.2012     312.4956      1.770     3.70     846.7587     55.11533     2348.233        56     1.604     1.317  64.64   0
       337   1005.9829    501.9512 307.5024358  +6.4973605     522.1537     904.9996     763.4345     77.88247     156.4499     312.4645      1.852     5.23     840.1431     55.11533     72.48279         5     0.894     0.863  43.90   0
       338    162.6620    500.9138 307.8527442  +6.4695240     1595.767     2586.107     2606.308     78.50404     156.5741     312.6822      1.784     4.32     847.0106     55.11533     189.4442        19     1.319     0.948 -89.28   0
       339    973.6946    500.4205 307.5158988  +6.4969148     1133.214      1601.88     1567.886       78.256     156.2012     312.5268      1.699     4.85     840.8848     55.11533     183.6604        11     1.268     0.719  83.38   0
       340    813.8624    500.1797 307.5822958  +6.4916739      858.469     1311.316     914.3831     78.00718     156.3877     312.5579      1.560     6.11     844.3755     55.11533     130.9995        14     1.364     1.060 -85.25   0
       341    902.4741    499.6769 307.5455064  +6.4948433     696.7181     1252.276     1713.119     78.62777     156.6362     312.7133      1.729     4.34     842.5088     55.11533     117.1884         5     0.975     0.549 -49.52   0
       342    561.6586    498.7272 307.6870994  +6.4838296     2828.267     4335.897     4507.515     78.50404     156.3877     312.6512      1.686     3.76      845.611     55.11533     344.8771        21     1.308     0.928  83.75   0
       343    935.5739    496.0955 307.5318780  +6.4974276     4768.738      7013.89     7233.913     78.50404     156.1389     312.5579      1.608     3.78     841.7979     55.11533     597.3966        25     1.330     1.042  78.46   0
       344    608.6673    494.3571 307.6677213  +6.4872094     6391.324     9734.636     9885.069     78.38013     156.3256     312.7444      1.665     3.67     845.4933     55.11533     788.6572        35     1.451     1.107  81.83   0
       345     96.6167    494.9542 307.8803759  +6.4697607     1025.455     1801.439     1628.083     77.88246     156.2634     312.4645      1.753     4.26     847.7024     55.11533     150.1789        14     1.123     1.005 -62.79   0
       346    958.1371    488.3567 307.5227656  +6.5013763     3363.377     5179.813     5298.631     78.38012     156.3256     312.7444      1.664     4.02     840.9722     55.11533     411.4247        24     1.353     0.956  75.70   0
       347    520.9040    485.6758 307.7044665  +6.4878516     7131.018     11037.73     11503.39     78.00718      156.512     312.7444      1.651     3.63     845.3281     55.11533     900.7488        32     1.441     1.092  83.44   0
       348    396.6443    487.6033 307.7560127  +6.4828857     649.0557     989.0699     1569.498     77.75755     156.0144     312.3401      2.300     4.19     843.8697     55.11533     93.75958         5     1.027     0.488   1.86   0
       349    366.7811    485.7887 307.7684774  +6.4826320      2535.23     4179.666     4765.155     78.00718     156.0766      312.589      1.855     4.20     843.5709     55.11533     282.6003        23     1.355     1.058  84.07   0
       350    736.4501    484.8041 307.6149668  +6.4954327      608.865     920.5513     880.2068     77.75755     156.2012      312.309      1.595     3.77     844.1714     55.11533     87.23712         5     1.054     0.386   5.28   0
       351    877.3798    481.6191 307.5565361  +6.5014606      3256.72     4967.135     5422.208     78.13169     156.3256     312.6201      1.701     3.80     842.4304     55.11533     426.7669        25     1.313     1.069  81.08   0
       352    529.7327    482.2961 307.7009134  +6.4895431     663.6476     1333.852     1505.618     78.38013      156.512     312.6822      2.071     6.29     845.2141     55.11533     92.73065         7     1.159     0.958  24.78   0
       353    884.5779    475.9445 307.5537367  +6.5040441     2047.453     3262.581     3381.637     78.00718     156.3877     312.4956      1.754     3.55     842.0859     55.11533      282.486        20     1.234     1.014  74.96   0
       354    923.9861    475.1361 307.5373946  +6.5056944     1316.697     2049.462     2164.223     77.88247     156.2012     312.5579      1.632     4.14     841.5863     55.11533     168.1545        15     1.134     0.941  71.00   0
       355    103.7503    474.6853 307.8780989  +6.4783692     766.1801     1325.149     1279.443     78.38013     156.3877     312.7444      1.860     4.12     847.2267     55.11533     111.9571         6     0.735     0.661 -62.64   0
       356    262.5784    473.6660 307.8121665  +6.4841350     565.5356      712.787    -139.8448     78.00718     156.3877     312.6201      1.425     4.43     844.1697     55.11533     100.9966         5     0.916     0.609 -37.70   0
       357    708.6071    471.9168 307.6269652  +6.4998216     2936.028     4518.728     4299.783     78.00718     156.0766     312.5579      1.633     3.90        843.7     55.11533     408.4934        25     1.316     1.068  70.53   0
       358    379.5802    469.9142 307.7636970  +6.4896160     3531.518     5553.892     6075.564     78.00718     156.1389     312.6201      1.686     3.64      843.025     55.11533     439.2347        27     1.412     1.069  87.57   0
       359     70.4784    470.8913 307.8920460  +6.4788149      1819.65     2809.338     3037.018     78.13169     156.6362     312.7444      1.699     4.27     847.6669     55.11533     234.4838        19     1.296     0.964  81.84   0
       360    419.9042    470.1989 307.7469388  +6.4908525     954.5003      1495.76      1376.18     77.88246     156.0144      312.309      1.596     4.08     843.2249     55.11533     143.7422        15     1.167     0.956 -46.61   0
       361    607.3467    466.5446 307.6692061  +6.4986483     9929.074     15353.71     15922.92     78.50404     156.3877     312.6512      1.698     3.66     844.3643     55.11533     1251.312        41     1.466     1.195  89.26   0
       362    770.0144    463.2192 307.6017509  +6.5054677     15899.62     24454.94     25710.75     78.00718     156.0766     312.5579      1.639     3.73      843.092     55.11533     1984.344        47     1.472     1.184  84.78   2
       363    774.3064    458.7181 307.6001194  +6.5074697     1353.246     2086.503     2326.464     78.13169     156.6362     312.7755      1.614     4.78     842.8956     55.11533     181.1665        15     1.240     1.026  80.98   3
       364    289.7606    463.4016 307.8012233  +6.4892868      2562.43     3965.025     4054.253     77.50713     156.1389     312.3712      1.673     3.86     842.7889     55.11533     315.6787        23     1.318     1.015 -83.70   0
       365    413.6935    463.0930 307.7497581  +6.4935778     676.9123     1001.462     459.6584     78.38012     156.8842     312.6512      1.436     4.96     842.8905     55.11533     113.4284         6     1.123     0.698  74.95   0
       366    372.8677    459.9319 307.7668219  +6.4935119      1485.46     2353.218     3060.041     78.38012      156.512     312.7133      1.917     4.36     842.7406     55.11533     193.4079        19     1.376     0.944  87.92   0
       367    955.2403    458.2490 307.5249789  +6.5137106     2084.196     3004.473     3011.745       78.256     156.3877     312.6201      1.562     3.67     840.0992     55.11533     261.4841        18     1.237     0.932  74.83   0
       368    798.9894    460.3648 307.5898113  +6.5076154     1215.771     1942.314     2290.459     77.88246     156.2012     312.4645      1.586     3.29     842.9171     55.11533     189.9548        11     0.990     0.733  73.39   0
       369    107.5437    455.0079 307.8771891  +6.4866210      4225.68     7027.849     7322.489     77.75755     156.2634     312.4334      1.763     3.69     846.7667     55.11533     544.3616        32     1.486     1.133  86.91   0
       370    361.8286    455.8768 307.7715439  +6.4948153     746.7537     1345.083     1711.407       78.256     156.4499     312.6822      2.084     3.56     842.6384     55.11533     102.7075         8     0.825     0.688 -51.05   0
       371    745.6069    453.8907 307.6122027  +6.5085026     2175.436     3379.157      3086.85     78.00718     156.0766     312.4645      1.654     3.86     842.6812     55.11533     278.2822        20     1.224     1.049  84.47   0
       372   1009.2806    452.8843 307.5027113  +6.5177296      4002.36      6541.74     6802.006     78.13169     156.6982     312.7444      1.740     3.98     838.2588     55.11533     491.9347        29     1.398     1.142  50.62   0
       373    265.3041    452.0180 307.8117657  +6.4931644     1329.019      2141.95     2171.471       78.256     156.2012     312.4956      1.678     3.90     843.4109     55.11533     178.9037        17     1.158     0.972  63.67   0
       374    343.5527    449.7062 307.7793431  +6.4967490     3117.619      5033.86     4873.289       78.256     156.3256     312.8065      1.725     3.68     842.5181     55.11533     363.3883        28     1.321     1.162 -86.90   0
       375    699.2626    447.6436 307.6316631  +6.5095307     1598.645     2243.984     2384.967     78.38013     156.3256     312.7444      1.565     4.08     842.7244     55.11533     210.2642        16     1.092     1.030  51.39   0
       376    973.5765    447.0140 307.5177393  +6.5189616     600.9908     1096.532     1390.561     78.13169     156.2012      312.589      1.695     4.56     839.1474     55.11533      107.283         6     1.260     0.469  36.96   0
       377    231.2350    445.4104 307.8261395  +6.4947466     895.7972     1382.267      1156.96     77.88247     156.1389     312.4645      1.628     4.57      844.291     55.11533     129.6939         8     1.023     0.579 -72.91   0
       378    540.7635    440.7263 307.6977321  +6.5070761     840.0901     1250.385     1215.725       78.256     156.4499     312.7133      1.888     5.73     842.8351     55.11533     112.5396         9     1.049     0.892  82.48   0
       379    825.5482    437.6412 307.5795428  +6.5178857     1422.594     2207.558     2009.608     78.38013     156.4499     312.6822      1.647     4.36     841.3621     55.11533     182.6701        18     1.327     0.939 -82.02   0
       380    462.9502    438.3096 307.7301347  +6.5054636     1368.852     2059.524     1908.627     78.38012     156.2012     312.8687      1.670     5.80     842.4598     55.11533     185.9691        15     1.225     0.884  59.53   0
       381    811.0858    436.7625 307.5855798  +6.5177649     1912.936     2891.741     3157.358     78.38012     156.3256     312.6822      1.637     4.41     841.6221     55.11533     258.0015        17     1.410     0.739  81.15   0
       382    708.5073    434.9084 307.6282514  +6.5150983     14778.62     22531.49     23638.95     78.38012     156.8842     312.6822      1.649     3.58     842.0627     55.11533     1872.957        44     1.450     1.170  79.04   0
       383    602.0333    426.0421 307.6727768  +6.5151927     11837.65     26104.67     30380.12     78.13169     156.3877     312.4956      2.362     6.53     841.9529     55.11533     1789.453        72     2.402     1.348  39.03   0
       384    629.5912    430.7143 307.6611726  +6.5141871     2322.908     3692.908     4168.947     78.00718     156.0766     312.5268      1.688     3.89     842.2639     55.11533     295.7654        23     1.381     0.984  88.69   0
       385    933.8518    424.7645 307.5349871  +6.5268215     3717.635     5682.689     5607.109       78.256     156.3877     312.6201      1.647     3.94     839.5803     55.11533      459.101        25     1.390     0.988  83.95   0
       386    372.9202    420.6964 307.7681241  +6.5097128     27816.22      44170.8     45805.73     78.13169     156.6362     312.7755      1.721     3.67     841.7311     55.11533     3497.833        55     1.512     1.261  80.39   0
       387    889.2574    420.2805 307.5536618  +6.5271831     1581.985     2875.456     3675.675     78.38013     156.3877     312.6822      2.201     5.23     839.6598     55.11533     206.2618        22     1.572     1.031  58.50   0
       388    409.9315    422.0348 307.7527057  +6.5104032     604.4141     973.2615     637.6381       78.256     156.4499     312.7755      1.563     3.79     841.4125     55.11533     85.21631         5     0.645     0.638  14.98   0
       389    118.8647    420.1386 307.8736667  +6.5013984     2030.302     3448.168     3703.994     78.38012     156.3877     312.7133      1.813     4.35     845.7777     55.11533     236.2346        23     1.348     1.098 -89.51   0
       390    584.0129    417.1490 307.6805615  +6.5182605     543.1477     965.3344     1031.344     77.75755     156.3256     312.4334      1.909     4.30     841.4236     55.11533      102.094         5     1.153     0.552  81.12   0
       391    902.5776    415.2321 307.5482981  +6.5297126     5176.018     7753.915     7643.256     77.88247     156.2012     312.4956      1.611     3.66     839.4501     55.11533     685.1017        27     1.307     1.034  75.23   0
       392     52.4040    415.4585 307.9014293  +6.5010918     1420.792     2257.526     2312.457     77.75755     156.2634     312.4334      1.777     3.93      846.456     55.11533      198.981        16     1.256     0.900  79.86   0
       393    230.4880    411.2237 307.8276050  +6.5088360     13365.62     21413.64     22786.61     78.38013     156.2012     312.5579      1.749     3.61     842.9257     55.11533     1631.531        51     1.544     1.278  85.91   0
       394    958.8361    412.9889 307.5250038  +6.5325178     660.6326     1051.244     1284.751     77.88247     156.2012     312.4023      1.888     5.92     838.4311     55.11533     94.07007         9     1.204     0.819  41.40   0
       395    693.6276    404.6778 307.6354491  +6.5270817     756.4783     1251.557     1687.131       78.256     156.3877     312.6822      2.141     6.28     841.0253     55.11533     89.18512        11     1.333     0.830  82.15   0
       396     66.3993    405.1329 307.8959660  +6.5058264     792.4129     1323.913     1493.566     77.63244      155.952     312.4334      1.719     4.59     846.1388     55.11533     116.3235         8     0.956     0.625  74.02   0
       397    953.7827    404.0913 307.5274016  +6.5360228     954.4213     1696.027     1849.421     78.13169     156.1389      312.589      1.772     5.39     838.2292     55.11533     134.8779        11     1.173     0.714  54.75   0
       398    725.1338    404.7186 307.6223604  +6.5281195     866.4233     1173.951     1346.041     78.62777     156.6362     312.7133      1.471     5.13     840.6781     55.11533       126.92         9     1.066     0.699  89.00   0
       399    343.5660    401.1320 307.7809773  +6.5168042     1430.385     1977.517     2021.661       78.256     156.4499     312.7755      1.546     4.27     840.9752     55.11533     211.0427        16     1.316     0.813  67.84   0
       400    176.1691    401.2735 307.8505032  +6.5111163     783.1969     1216.011       1308.9       78.256     156.3877     312.6822      1.593     5.38     843.7888     55.11533     115.8333         9     1.230     0.663 -64.81   0
       401    130.7885    399.9297 307.8693978  +6.5101434     5003.935     8167.523      8617.66     77.88246     156.1389     312.4956      1.720     3.56     844.8409     55.11533     623.0133        36     1.444     1.210  81.31   0
       402    235.6710    398.8839 307.8258692  +6.5141050     1326.609     1995.255     1828.583     78.62777     156.6362     312.7133      1.605     4.47     842.5389     55.11533     176.1284        15     1.311     0.825  62.88   0
       403    428.4196    398.5477 307.7458185  +6.5207211     706.0886     1270.736     1134.791     77.88247     156.4499     312.4956      1.859     4.18     840.2885     55.11533     127.3467         8     1.120     0.774  71.55   0
       404    816.9807    396.7016 307.5844772  +6.5345024     677.7206     1005.108      1074.87     78.38012     156.2634     312.4334      1.498     4.48     839.9985     55.11533     105.5817         6     0.869     0.655  37.29   0
       405    152.7639    395.6428 307.8604152  +6.5126532     2594.752     4444.049     4750.628     78.13169     156.3877     312.5579      1.848     4.37     844.1412     55.11533      308.243        23     1.449     0.989 -81.13   0
       406    548.5026    395.1720 307.6960522  +6.5261438     920.7052     1555.084     1271.812     78.50404     156.1389     312.6512      1.611     5.41     840.3408     55.11533     112.3281        10     1.153     0.717  81.93   0
       407    376.3512    390.6213 307.7677139  +6.5222451     1976.919     3117.872     3126.955     78.00718     156.4499     312.5579      1.727     4.17     840.1547     55.11533     235.9638        19     1.286     1.004 -78.19   0
       408    264.7558    390.8456 307.8140600  +6.5184019     831.4294     1339.951     1301.101     78.38012     156.3877     312.6201      1.552     5.86     841.6727     55.11533     122.6892        10     1.381     0.701  64.37   0
       409    964.8529    389.8292 307.5232815  +6.5422810     940.1944     1774.429     2389.326     78.13169      156.512      312.589      2.279     5.99     837.2457     55.11533     133.8244        12     1.306     0.779 -74.23   0
       410    310.4713    388.2079 307.7951602  +6.5210279     591.3614     1118.998     1180.021     77.88247      155.952     312.5579      1.646     4.34     840.7283     55.11533     92.88599         6     1.288     0.417  76.95   0
       411    584.0357    386.7125 307.6815771  +6.5308277     540.5339     713.5163     411.7919     78.38012     156.2634     312.6822      1.395     4.64     840.0078     55.11533      82.3642         5     1.000     0.611 -71.08   0
       412     26.2979    384.9971 307.9133038  +6.5127881     3113.622     5358.271      5442.74     78.13169     156.1389     312.3712      1.788     4.00     846.1673     55.11533     418.0579        30     1.404     1.234 -69.54   0
       413    430.0875    384.1144 307.7456126  +6.5267361     7043.594     11301.38     12296.23     78.13169     156.5741     312.7755      1.740     3.54     839.5295     55.11533     846.7498        40     1.495     1.198  77.40   0
       414    770.7148    381.4895 307.6042072  +6.5392357     13008.57     19220.19     20612.57     78.13169     156.6982     312.8065      1.653     3.57     839.8102     55.11533     1586.922        38     1.378     1.123  83.04   0
       415    762.8510    383.0615 307.6074210  +6.5383235     1886.402     3023.028     3395.163     78.38012     156.3256     312.6822      1.693     3.86     839.8831     55.11533     230.4615        18     1.157     1.013 -75.50   0
       416    333.9820    379.9348 307.7856738  +6.5252337     1057.635     1817.162      2142.47     78.00718     156.3877      312.589      1.773     4.89     840.0064     55.11533     141.2343        12     1.181     0.700  69.27   0
       417   1014.6284    376.6424 307.5030466  +6.5493871     3655.378     5615.514     5642.511     78.00718     156.3877     312.5579      1.648     3.74     834.3994     55.11533     467.5503        27     1.345     1.084  73.25   0
       418    945.5098    373.2701 307.5318724  +6.5484720     730.6063     1033.409      923.301       78.256     156.6362     312.6822      1.592     4.99        837.4     55.11533     94.39569         8     0.863     0.816 -28.96   0
       419    895.9952    372.0063 307.5524837  +6.5473398     504.8475     632.3876     276.7133     77.75755     156.1389     312.5579      1.402     4.84     838.4819     55.11533     93.15552         6     1.317     0.504 -84.50   0
       420    179.1238    372.5392 307.8502475  +6.5230791     655.6077     958.8789     1043.586     78.62777     156.3877     312.6512      1.579     5.31     842.9698     55.11533      101.572         8     0.948     0.841 -29.55   0
       421    450.4536    368.2445 307.7376881  +6.5339720     2155.191     3279.236     3059.823     78.38013     156.3877     312.6822      1.686     4.05     838.7329     55.11533     280.1575        23     1.407     1.033  71.23   0
       422    478.3162    367.7018 307.7261325  +6.5351311     3235.504     4797.014     4880.256     78.38013     156.7602     312.7444      1.631     3.66     838.7601     55.11533       422.15        23     1.301     1.008  78.92   0
       423    906.9479    367.8434 307.5480736  +6.5494245       727.21      1156.31     1058.344     78.38012     156.3877     312.7133      1.687     3.94     838.2814     55.11533     102.9688         6     0.936     0.474  37.17   0
       424    836.0786    364.4236 307.5776283  +6.5484679     32701.12     51535.28     54214.42     78.00718     156.2012     312.6512      1.707     3.79     838.8962     55.11533     4025.518        63     1.587     1.233  85.37   0
       425    327.9961    360.3309 307.7888221  +6.5331264     866.7828     1203.896     704.4083     77.75755     156.0144     312.4645      1.551     4.57     839.1687     55.11533     119.1509        11     1.218     0.689  79.43   0
       426     54.1451    360.1961 307.9025770  +6.5239659     844.4107      1259.01     1388.406     77.75755     156.2012     312.3401      1.623     5.44     845.2513     55.11533     119.0339         9     1.045     0.798  88.50   0
       427    607.8698    356.7032 307.6726871  +6.5440167     2585.625     4122.843     3837.188       78.256     156.5741     312.6822      1.707     3.90     838.6751     55.11533     341.2397        21     1.345     1.025  77.41   0
       428     16.0956    357.0429 307.9184881  +6.5239852     1143.337      1895.54      1381.79     78.38012     156.3256     312.8065      1.706     5.21     845.9984     55.11533     145.5108        13     1.210     0.901 -85.57   0
       429    692.5452    350.3846 307.6377253  +6.5494619     78291.04     119968.9     125246.3     77.75755     156.3877     312.4023      1.676     3.61     838.9809     55.11533     9525.971        83     1.526     1.289  81.01   0
       430    850.8195    352.1161 307.5719182  +6.5540423     1240.474     1752.873     1733.767     78.00718     156.0766     312.6512      1.578     4.04     838.4834     55.11533     184.5305        13     1.176     0.783  68.45   0
       431     71.7792    349.9238 307.8956002  +6.5288011     1336.943     2222.323     2396.271     78.00718     156.1389     312.6201      1.858     5.45     844.5987     55.11533      191.266        16     1.326     0.931  86.45   0
       432    554.9886    347.2243 307.6949733  +6.5461576     2563.343      3934.98     3610.601     78.00718     156.2012     312.6201      1.596     3.63     837.9171     55.11533      329.394        20     1.312     0.949  75.58   0
       433    934.0948    347.5085 307.5374790  +6.5587273     905.4932     1332.436     941.8223     78.38012     156.8842     312.6822      1.560     5.12     837.0982     55.11533     126.4172        10     1.076     0.773  -9.75   0
       434     92.1581    345.8087 307.8872747  +6.5311867     5823.978     9597.453     9940.106     77.75755     156.2012     312.4334      1.728     3.67      844.069     55.11533     764.8099        33     1.459     1.157  86.67   0
       435    752.9552    346.1920 307.6127714  +6.5532150     405.0333      591.233     1014.267     77.88247     156.2634     312.4023      2.409     3.75      838.798     55.11533      80.0882         5     0.799     0.506  53.42   0
       436    538.1910    343.3234 307.7020825  +6.5472049     7078.547     10964.25     11318.82     78.00718     155.8897     312.4956      1.664     3.67     837.5905     55.11533     864.9962        35     1.389     1.178  85.83   0
       437    267.2773    340.6599 307.8147081  +6.5392066     2532.398     4117.594     3926.172     78.50404     156.4499     312.6512      1.744     3.88     840.2781     55.11533     322.5438        26     1.422     1.081  70.42   0
       438    401.1816    338.3945 307.7591621  +6.5446419      25096.1     39922.11      41661.9     78.00718     156.0144     312.4956      1.711     3.56      837.202     55.11533     3057.707        55     1.513     1.255  80.44   0
       439    579.9786    337.7931 307.6849101  +6.5508893     658.1924     1150.538     1090.958     78.00718     156.2012     312.4956      1.714     5.35      837.463     55.11533     95.45233         9     1.419     0.569  59.83   0
       440    508.8493    337.0271 307.7144832  +6.5488203     1202.161     1963.411     2010.224     78.00718     156.3877     312.6201      1.693     4.93     837.0844     55.11533      164.275        16     1.300     0.858  85.36   0
       441    381.1618    336.5215 307.7675414  +6.5447428     1232.677      1878.28     2491.257       78.256     156.4499     312.6822      2.101     6.86     837.3272     55.11533      177.981        16     1.571     0.873  73.18   2
       442    378.2006    331.1584 307.7689525  +6.5468576     798.6108     1522.596     1459.052     77.75755     156.0766     312.3401      1.948     5.66     837.0951     55.11533     109.1329        10     1.432     0.630  71.61   3
       443    480.6761    333.3820 307.7263093  +6.5493800     1121.042     1698.582     1395.196     77.88247     156.1389     312.6512      1.481     3.76     836.7168     55.11533     161.4544        11     1.149     0.654 -82.77   0
       444    796.1368    331.2023 307.5953370  +6.5608486     876.9775     1463.341     1589.217     77.75755     156.1389     312.4645      1.994     5.24     838.2012     55.11533     110.8621        11     1.289     0.712 -87.84   0
       445    632.2271    330.8019 307.6634410  +6.5555268     578.3457     922.9874     875.4495     77.88246     156.1389     312.4956      1.683     5.26     837.5849     55.11533     89.64392         6     1.145     0.683  84.00   0
       446    490.2711    328.8857 307.7224751  +6.5515583     8384.772     12962.88     12923.07     78.50404     156.6362     312.7133      1.654     3.55     836.5071     55.11533      1046.39        35     1.389     1.149 -88.30   0
       447    914.7626    327.3481 307.5461867  +6.5664053     971.3633     1464.517     1043.143       78.256     156.3877     312.6822      1.521     5.34     836.4388     55.11533      140.713        11     1.363     0.591  74.04   0
       448    759.3193    327.6077 307.6107526  +6.5611010     3128.541     4586.601     5047.685     78.00718     156.0144     312.5268      1.650     3.66     838.1774     55.11533     388.1123        23     1.228     1.042  70.39   0
       449    706.8222    327.4285 307.6325668  +6.5594179     703.4929     909.1406     1030.841     77.88247     156.2012     312.5579      1.372     5.22     838.1811     55.11533     125.0187         7     1.290     0.598  62.46   0
       450    316.8670    325.8963 307.7946078  +6.5469692      1163.88     1748.639     1401.664     78.38012     156.4499     312.7133      1.574     3.56     838.3258     55.11533     171.9125        11     1.129     0.642  75.40   0
       451    252.4387    319.5775 307.8215843  +6.5474117     602.2664     832.8362     385.9103     78.00718     156.1389     312.4645      1.618     4.44     840.1019     55.11533     107.0229         6     1.215     0.698  53.19   0
       452    152.3644    319.1831 307.8631672  +6.5442069     1057.276     1515.427      1842.42     78.00718     156.2012     312.4645      1.554     4.35     841.7072     55.11533     137.7841        16     1.206     1.013  67.78   0
       453    380.1515    312.9958 307.7687551  +6.5544218     7109.026      11413.2     12018.53     77.75755     156.2012     312.3401      1.672     3.51     836.2817     55.11533     886.6947        38     1.372     1.235  78.87   0
       454    235.8213    313.6191 307.8286884  +6.5493127     2045.931     3312.097     3039.211     78.13169     156.3256     312.6201      1.661     4.47     840.3955     55.11533     231.8553        20     1.393     0.936  82.72   0
       455    733.4222    312.6651 307.6220132  +6.5664038     816.2919     1216.832     757.9305     78.00718     156.3877     312.5579      1.625     5.10     837.6996     55.11533     111.8241         8     1.150     0.639  73.85   0
       456    748.0344    308.9449 307.6160681  +6.5684288     54062.93     81886.48     84894.38       78.256     156.3877     312.6822      1.615     3.54     837.5511     55.11533     6719.279        66     1.482     1.230  82.14   0
       457    419.7625    308.2494 307.7524607  +6.5577118     2104.398      3535.22     3676.857     78.13169     156.3256     312.5579      1.731     4.25     835.2962     55.11533     256.8605        24     1.449     1.023  84.69   0
       458    982.8829    306.0776 307.5186013  +6.5774625     1614.542     2539.945     2723.613     78.50404     156.6982     312.7755      1.706     4.55     833.4332     55.11533      237.626        18     1.270     1.044  75.70   0
       459    565.7527    305.7583 307.6918987  +6.5636387     1142.135     1550.056     1196.806     78.38013     156.3877     312.5579      1.567     5.35     835.4003     55.11533     147.3166        15     1.240     1.008  81.49   0
       460    923.8315    305.1712 307.5431638  +6.5758647     2312.354     3452.364     3878.331     77.88246     156.1389     312.4645      1.622     3.54     835.0676     55.11533     300.0768        20     1.171     1.041  70.80   0
       461    456.7123    304.7043 307.7372310  +6.5604159     1178.148     1942.388     2382.449     78.38013     156.7602     312.7444      2.120     5.00     835.0424     55.11533     149.7341        15     1.245     0.914  83.40   0
       462    406.1501    303.8977 307.7582622  +6.5590513     1975.247      3412.85     3949.811     78.38012     156.3256     312.8376      1.863     4.11     835.3105     55.11533     227.9659        21     1.354     0.994  84.69   0
       463    827.3776    298.6154 307.5834539  +6.5753478     1307.833     1973.591      1904.71     78.13169     156.2012     312.6201      1.693     4.74      836.774     55.11533     163.1237        15     1.375     0.759  81.14   0
       464    456.2864    299.2814 307.7375908  +6.5626406      722.334      1361.53     1865.284     78.13169     156.6362     312.8065      1.858     4.70     834.6815     55.11533     103.3446         8     0.932     0.673  -3.13   0
       465    436.7652    295.6591 307.7458223  +6.5634808     1177.708     1945.956     2558.199       78.256     156.3877     312.6512      1.996     4.83     834.5469     55.11533     148.6321        17     1.289     0.949  77.63   0
       466    182.7489    295.4569 307.8513483  +6.5550254     2164.846     3654.757     4526.202     78.38013     156.3877     312.6822      1.870     3.73     840.4404     55.11533     279.4402        23     1.332     1.040  80.73   0
       467    746.5016    293.5325 307.6172232  +6.5747409     6262.407     9134.331     9889.739     78.38013      156.512     312.7133      1.633     3.52     837.0402     55.11533     784.2007        28     1.289     1.121  74.83   0
       468    218.4834    293.5086 307.8365702  +6.5570323     638.9275     1071.016     1018.378     78.13169     156.6982     312.8065      1.807     3.74     840.1778     55.11533     87.20612         6     1.026     0.392 -70.91   0
       469     78.7220    292.6979 307.8946534  +6.5526612     940.4632     1579.061     1948.219     78.00718     156.6362     312.7133      1.888     5.67     842.7805     55.11533     121.8436        13     1.324     0.755  60.46   0
       470    762.8929    291.4580 307.6104835  +6.5761460     2741.274     4091.866     4241.194       78.256     156.3256     312.8065      1.590     3.69     836.9362     55.11533     357.8029        22     1.334     0.929  79.08   0
       471    352.2241    286.2945 307.7812576  +6.5645077     1650.266     3405.322     3529.297     78.50404     156.1389     312.5579      2.150     6.60     835.9415     55.11533     193.2906        26     1.533     1.254  -9.17   0
       472     66.0030    286.6195 307.9001425  +6.5547421     1277.037     2041.733     1851.735     78.00718      155.952     312.4334      1.717     4.19     842.6657     55.11533     170.4606        12     0.992     0.935 -34.37   0
       473   1001.1284    282.4113 307.5118154  +6.5878430     5868.041     8817.239     8766.612     77.88247     156.0144     312.4956      1.604     3.59     832.5714     55.11533     720.0665        33     1.348     1.135  74.89   0
       474    479.1385    282.3657 307.7286682  +6.5703915     2052.684     3048.414     2923.107       78.256     156.4499     312.6512      1.577     3.55     833.8237     55.11533     264.9009        20     1.266     0.938  78.10   0
       475    241.6868    277.7599 307.8274638  +6.5643150     5582.567     8843.809     9458.326     78.38013     156.3877     312.7133      1.733     3.77     839.1091     55.11533     644.2932        30     1.349     1.152  86.06   0
       476    909.3389    276.8727 307.5501346  +6.5870644     608.2993     981.7242     1129.103     78.50404     156.3877     312.7133      1.708     4.19      834.207     55.11533     91.78589         6     0.784     0.640  31.10   0
       477    761.1121    271.3798 307.6118984  +6.5843762     784.0306     1279.001       1246.7       78.256     156.1389      312.589      1.795     4.90     836.2191     55.11533     117.6523         9     1.114     0.610  59.19   0
       478    375.7553    268.3291 307.7720889  +6.5727155     1672.034     2760.732     3167.307       78.256     156.3877     312.6822      1.886     4.44      834.928     55.11533     187.7225        19     1.319     0.962 -86.93   0
       479    962.7292    267.5456 307.5282669  +6.5926988     1069.256     1550.643     1617.896       78.256     156.3256     312.6512      1.603     5.87     832.9071     55.11533     147.1571        10     1.187     0.817  84.26   0
       480    182.3811    266.9639 307.8524646  +6.5667766     493.4292     832.4547     1303.347     77.88246     156.2012     312.4645      2.368     3.92     839.8262     55.11533     78.43713         5     0.908     0.485 -88.35   0
       481    145.6542    264.3493 307.8678095  +6.5666196     1839.917     2983.204     2853.459     78.50404     156.3877     312.7133      1.760     4.68     840.6577     55.11533     211.8954        23     1.408     1.117  88.50   0
       482    298.2859    264.5558 307.8043982  +6.5716699      1126.23     1867.812     1592.975     78.38013     156.2634     312.6512      1.737     5.11     837.1727     55.11533     155.8523        14     1.194     0.932  87.49   0
       483    555.4024    260.2233 307.6977327  +6.5820917     2106.152     3588.947     4179.306     78.00718     156.0766     312.4956      1.893     3.99     833.3784     55.11533     252.3169        23     1.353     1.053  74.22   0
       484    898.8578    259.3468 307.5550774  +6.5939503     1634.162     2661.264     2978.748     78.50404     156.3877     312.6822      1.933     5.01     833.9251     55.11533      199.598        15     1.126     0.996  42.93   0
       485    718.8592    257.6620 307.6299133  +6.5886258     5083.826     7719.282     8153.625     78.38012     156.3256     312.7133      1.657     3.81     835.7275     55.11533      610.878        31     1.359     1.125  85.72   0
       486    659.7240    257.5320 307.6544846  +6.5866992     2277.044     3268.241     3567.428     78.50404      156.512     312.6822      1.613     3.87     835.2766     55.11533     294.7194        17     1.213     0.908  79.90   0
       487    956.7391    257.2650 307.5311005  +6.5967434     748.6337     1147.997     1098.143     78.38013     156.3256     312.7133      1.720     5.23      832.712     55.11533     95.09924         9     1.012     0.795 -51.37   0
       488    374.3290    252.2753 307.7732233  +6.5792957     707.7947      1053.12     688.2611     78.62777      156.512     312.6822      1.580     5.27     834.6478     55.11533     95.67664         6     1.082     0.726 -17.79   0
       489    914.8445    249.7444 307.5487581  +6.5984491     1058.062     1407.505     1521.357     78.38012     156.3877     312.6822      1.528     4.23     833.1735     55.11533     148.9755        13     1.113     0.876  78.71   0
       490    218.3744    242.9052 307.8383262  +6.5779208     2191.394     3617.359     3710.194     78.50404     156.1389     312.5579      1.751     4.15     838.4565     55.11533     282.8612        19     1.354     0.889  72.08   0
       491    860.9878    241.8591 307.5713978  +6.5999050     1786.859     2711.174     2792.439     77.75755     156.3256     312.4023      1.576     4.22     834.4713     55.11533     225.2294        17     1.214     0.933  84.12   0
       492    751.6394    241.5659 307.6168363  +6.5963686     1614.252      2339.06     2243.737     78.13169     156.2634     312.4956      1.562     3.74     835.1711     55.11533     200.6201        15     1.191     0.816  65.15   0
       493    778.3427    231.9810 307.6060648  +6.6012196     13027.15      20308.2     22464.96     78.00718     156.3256     312.4956      1.710     3.54     834.8098     55.11533     1660.017        50     1.465     1.322  74.32   0
       494    452.3234    232.7787 307.7414802  +6.5899644     22315.79     35573.04     37278.53     78.00718     156.2012     312.6201      1.704     3.67     833.0609     55.11533     2705.178        49     1.485     1.240  81.62   0
       495    313.6998    234.2030 307.7990203  +6.5847196     739.4134     1210.191     938.4682     78.13169     156.1389     312.3401      1.685     4.63     835.8206     55.11533     97.19965         8     0.933     0.653  83.61   0
       496    457.8898    227.1087 307.7393589  +6.5924922      1425.75     2250.369     3021.514     78.38012     156.8842     312.7755      1.830     4.26     832.8149     55.11533     185.8393        15     1.137     0.946 -88.82   0
       497    140.6550    225.8548 307.8711886  +6.5823440     2255.792     3698.825     3506.399     78.62777     156.3877     312.6822      1.777     4.01     840.4645     55.11533      280.451        23     1.312     1.100  82.28   0
       498    115.3133    224.6983 307.8817550  +6.5819680     1181.618     1918.336     1901.344     78.38013     156.8222     312.7444      1.766     5.80     841.4167     55.11533     132.5092        15     1.218     0.933 -82.40   0
       499    167.4280    224.1674 307.8601238  +6.5839421     673.1879     1070.581     945.1783     77.88247     156.1389     312.4956      1.677     5.36     839.4852     55.11533     104.6859         8     1.184     0.778  73.11   0
       500    914.6392    222.2005 307.5497683  +6.6098146     1381.154     2110.138     2110.834     77.50713     156.2012     312.4023      1.546     4.22     832.2186     55.11533     191.3131        14     1.214     0.798  78.68   0
       501    576.4302    218.5845 307.6903999  +6.5999882     4716.187     6955.133     7354.725     78.00718     156.1389     312.6201      1.645     3.67     832.2966     55.11533     533.7856        24     1.289     1.034  76.74   0
       502    538.9701    218.5815 307.7059625  +6.5987333     2141.942     2990.041     2625.527     78.00718     156.2012      312.589      1.538     3.80     832.0974     55.11533     309.1218        19     1.191     1.020 -81.34   0
       503    296.8454    219.7259 307.8065111  +6.5901300     946.3838     1583.559     1383.141       78.256     156.4499     312.7133      1.639     3.82     836.0781     55.11533     123.9721        10     1.040     0.677  63.88   0
       504    380.9307    217.6647 307.7716491  +6.5938070     1544.105     2293.421     2608.668     78.38012     156.4499     312.7133      1.654     4.61     833.9695     55.11533     181.8886        18     1.322     0.927  73.88   0
       505    883.4641    215.2017 307.5629553  +6.6116625     11294.05     17108.09     17257.96     77.75755     156.1389     312.4645      1.630     3.74     832.7576     55.11533     1419.285        40     1.431     1.147  80.75   0
       506    937.3774    215.4838 307.5405469  +6.6133473     2657.677       4052.6     4195.639       78.256     156.0766      312.589      1.646     3.88     831.4133     55.11533      345.322        21     1.320     0.883 -88.67   0
       507    311.0142    215.5700 307.8007653  +6.5923222     905.4122     1667.787     2332.256     78.00718     156.1389     312.6201      2.319     5.34      835.587     55.11533     141.7946        13     1.220     1.004 -66.82   0
       508    203.1166    214.8077 307.8456146  +6.5890077     566.6191      1068.36       1088.9     78.00718     156.0766     312.5268      1.821     5.20      838.197     55.11533      87.7229         8     1.919     0.399 -70.57   0
       509    558.0916    214.7701 307.6981470  +6.6009482     772.7879     1423.531     1464.568     78.50404     156.1389     312.6201      1.895     5.31     832.0745     55.11533     122.7074        12     1.411     0.713  84.81   0
       510    970.0274    212.9972 307.5270655  +6.6154644     9877.271     14917.51     15114.04     77.88247     156.1389     312.4956      1.580     3.70     830.9996     55.11533     1260.797        34     1.413     1.062  76.35   0
       511    681.5806    213.0652 307.6469011  +6.6057904      2642.93     4090.587      4742.16     78.00718     156.3877     312.5268      1.710     3.97     833.7854     55.11533     330.5973        20     1.359     0.903  82.14   0
       512    255.7457    212.6783 307.8238231  +6.5916576      1259.46     2117.194     2053.486     78.50404     156.3877     312.6822      1.779     4.87     836.9232     55.11533     183.1378        18     1.266     1.064  63.01   0
       513      9.5649    211.5973 307.9261276  +6.5838128        24502      39989.9     42486.58     77.50713     156.2012     312.4645      1.774     3.74     843.0995     55.11533     2842.897        60     1.555     1.316  78.62  16
       514    490.1356    207.7265 307.7266164  +6.6015767     1956.766     3011.636     2622.921     78.50404     156.3877     312.6822      1.614     3.78     831.8387     55.11533     281.4447        19     1.358     0.851 -85.27   0
       515    874.3834    203.4971 307.5671212  +6.6161915     2100.803     3093.427      3490.97       78.256     156.2012     312.4956      1.655     3.79     832.2272     55.11533     308.3374        18     1.284     0.901  77.28   0
       516    821.8693    204.5698 307.5889028  +6.6139929     2049.403     2965.382     2873.699       78.256     156.3877     312.6201      1.560     3.55     832.8763     55.11533     264.6409        16     1.116     0.922  71.29   0
       517    733.6173    201.0980 307.6256848  +6.6124737     39833.84     60962.47     63634.03     78.38012     156.2012     312.4645      1.660     3.62     832.9559     55.11533     5190.844        66     1.499     1.238  79.91   0
       518    502.1242    203.6748 307.7217724  +6.6036518     2496.643     3709.802     3757.543     78.62777     156.6362     312.7755      1.585     3.47     831.7446     55.11533     364.5941        22     1.238     1.000  84.91   0
       519    336.6703    200.4198 307.7906186  +6.5994396     5747.035     11816.16     13200.15     78.00718     156.2634     312.6201      2.193     5.74     834.7153     55.11533     681.1899        51     2.059     1.261 -87.11   0
       520    967.4077    199.8867 307.5285938  +6.6207900      2871.39     4206.833     4766.142     78.00718     156.0766     312.4645      1.610     3.84     830.0751     55.11533     360.8524        21     1.277     0.962  87.12   0
       521   1005.7289    198.6472 307.5127141  +6.6225811      1893.24     2792.022     2650.169     78.38013     156.3877     312.6822      1.670     4.29       829.23     55.11533     212.0986        17     1.234     0.896  73.72   0
       522    901.5555    198.1977 307.5560101  +6.6192876     7602.492     11307.38     11694.36     77.75755      155.952     312.3401      1.594     3.56     831.2943     55.11533     970.0943        34     1.371     1.088  77.20   0
       523    445.0483    197.2935 307.7456995  +6.6043708     5072.515     8268.799     8309.831       78.256     156.2634     312.8065      1.715     3.65     832.4222     55.11533      618.915        32     1.435     1.150  87.99   0
       524    219.2564    194.0073 307.8396130  +6.5981385     824.0379     1118.424     1305.388     77.88247     156.2634     312.4334      1.670     4.85      837.637     55.11533      127.812        12     1.236     0.924 -35.86   0
       525    102.4374    188.4899 307.8883294  +6.5964830     4718.904     7387.417     7137.636     78.38013     156.3256     312.7133      1.678     3.61     840.5336     55.11533     579.0108        32     1.459     1.137  81.36   0
       526    248.1469    186.2189 307.8278742  +6.6023260     6358.311     10286.78     11266.28     77.88246     156.4499     312.4956      1.750     3.68     836.8945     55.11533      794.495        37     1.485     1.167  84.65   0
       527    922.1013    187.6120 307.5478294  +6.6243447     912.2199     1494.112     1455.453     78.13169     156.1389     312.4645      1.622     5.22     830.3831     55.11533     118.9677         9     1.059     0.725 -87.91   0
       528    272.6862    185.2156 307.8177136  +6.6035656     32700.51     52855.72     55784.46     78.00718     156.1389      312.589      1.741     3.71     836.2066     55.11533     3820.963        61     1.530     1.302  81.07   0
       529    598.9573    187.1625 307.6820994  +6.6137166     616.4843     1134.055     997.4266     78.13169     156.3877     312.5579      1.798     3.82     831.2803     55.11533      80.4292         5     0.811     0.516  61.59   0
       530    701.8979    184.7773 307.6394121  +6.6181501     955.3416     1410.185     1913.056     78.38012     156.1389     312.5268      1.617     4.58      832.119     55.11533     131.8662        14     1.174     0.878  57.20   0
       531    396.7676    180.7371 307.7663162  +6.6095851      49072.5     77758.77     81273.21     78.13169     156.4499     312.6512      1.712     3.66     833.1978     55.11533     5963.701        67     1.538     1.282  81.92   0
       532    152.7702    181.9495 307.8676411  +6.6008786     3866.216     6327.093     6177.842     78.00718      156.512      312.589      1.726     3.82     838.4828     55.11533     504.3746        28     1.404     1.100  76.59   0
       533    414.2592    181.4346 307.7590258  +6.6098846      1331.77     2038.663     1627.763       78.256     156.3877     312.6512      1.652     4.30     832.7785     55.11533      177.882        18     1.199     1.087  35.67   0
       534    736.0548    176.9874 307.6254832  +6.6225099     32450.64      50055.3     52068.62     77.75755     156.3256     312.4023      1.624     3.55     831.3436     55.11533     4084.844        61     1.478     1.241  78.72   0
       535    300.8147    178.4314 307.8062571  +6.6073125     17987.84     28666.48     30353.48     78.00718     156.1389     312.6201      1.730     3.63     835.4005     55.11533     2128.339        48     1.486     1.242  83.21   2
       536    308.2122    178.3395 307.8031870  +6.6075991     2124.809     3822.461      5246.02     77.75755     156.2634     312.3712      2.096     6.75     835.2501     55.11533     268.6815        28     1.942     1.045 -82.63   2
       537    684.4030    179.0846 307.6468722  +6.6199146     864.5448     1170.671     1019.486     77.75755     156.0144     312.4023      1.453     4.53     831.9167     55.11533     148.1552         9     1.096     0.643 -85.89   0
       538    784.4812    177.5102 307.6053459  +6.6239146     1339.092     1950.113     2747.215     78.13169     156.5741     312.7444      1.835     3.58     831.0721     55.11533     198.6884        15     1.148     0.873  85.51   0
       539     23.4305    176.8644 307.9215443  +6.5986198     680.2565     1309.226     1107.734     78.13169     156.4499     312.6201      1.843     7.55     843.0781     55.11533     138.8734        11     1.570     1.016 -84.38   0
       540    559.8702    175.5400 307.6987301  +6.6172048     545.8308     978.3709       1187.6     78.50404     156.3877     312.7133      1.991     4.76     831.0289     55.11533     76.53326         6     1.057     0.608  65.42   0
       541     52.8721    174.0455 307.9094090  +6.6007762     8802.912     14115.77     14737.12       78.256     156.4499     312.6822      1.695     3.58     841.9199     55.11533     1063.324        38     1.466     1.172  81.65   0
       542     86.7139    172.1211 307.8954155  +6.6027112     1545.175         2378     2608.229       78.256     156.6982     312.7755      1.611     3.66     840.5251     55.11533     227.3074        18     1.262     0.904 -77.22   0
       543    994.3091    171.4093 307.5183726  +6.6334459     1024.111     1429.161     1786.081     78.00718     156.0766     312.4334      1.680     5.04     826.8562     55.11533     151.6873        11     1.144     0.680  84.80   0
       544    720.2945    164.6389 307.6324465  +6.6270807     612.0947     912.7143     890.2125     78.50404     156.2634     312.8065      1.498     4.85     830.7275     55.11533      92.7785         7     1.040     0.641  21.41   0
       545    569.9697    161.3826 307.6950112  +6.6233886     842.4444      1294.14     1176.011     78.00718     156.2012     312.6201      1.580     3.71     830.5487     55.11533     144.1299         9     1.012     0.628  54.41   0
       546    995.4204    157.5987 307.5183743  +6.6391851     2212.041     3527.253     5091.008     78.00718     156.0766     312.4023      1.958     3.81     825.7997     55.11533     286.1532        19     1.193     0.997  78.24   0
       547    578.4124    155.0813 307.6917159  +6.6262732     988.6331     1629.272     1655.796     78.00718     156.0766     312.5268      1.920     5.06     830.2962     55.11533     119.1345        12     1.148     0.789  85.84   0
       548    587.0117    153.5005 307.6881964  +6.6272142     1954.335     3105.079     3266.419     78.13169     156.1389     312.4645      1.658     3.63     830.2189     55.11533     331.0464        21     1.312     1.025  84.13   0
       549    271.6144    151.4753 307.8192991  +6.6174596     29910.66     48014.79     51128.08     77.88247     156.1389     312.5268      1.753     3.66     835.9603     55.11533      3542.85        61     1.557     1.281  77.03   0
       550    331.0057    153.4828 307.7945571  +6.6186277     1109.938     1790.667     2176.392     78.00718     156.0144     312.4645      1.833     4.24     834.6724     55.11533     160.7286        12     1.070     0.920  39.54   0
       551     16.9088    149.9913 307.9251640  +6.6094945      4452.99     7238.688     7539.425     78.00718     156.0766     312.4334      1.729     3.54     843.3258     55.11533     560.4881        32     1.434     1.143 -88.22   0
       552    703.3102    148.1156 307.6400590  +6.6333340     8148.253     12415.32     12686.77     78.13169     156.6362     312.8065      1.632     3.44     830.1497     55.11533     1065.326        35     1.393     1.110  73.75   0
       553    180.5275    149.5056 307.8572073  +6.6152078     892.5413     1435.629     1619.813       78.256     156.4499     312.7133      1.786     4.14     837.3389     55.11533     133.4518        10     1.174     0.646  66.76   0
       554    995.4138    148.4861 307.5186828  +6.6429472     556.7943     732.8843     1631.422     78.00718     156.2012      312.589      1.877     3.94     825.5462     55.11533     74.31055         5     1.085     0.409  74.18   0
       555    257.9510    146.5808 307.8251409  +6.6190208     868.0614     1402.958     1272.046     77.88246     156.4499     312.4956      1.725     6.92     836.4081     55.11533     125.8624        12     1.460     0.918  64.80   0
       556    113.9725    145.3195 307.8849986  +6.6146947     4749.468     7642.053     8031.474       78.256     156.2012     312.7133      1.733     3.85     838.6043     55.11533     577.3369        32     1.411     1.196  76.68   0
       557    576.2004    143.3370 307.6930306  +6.6310479     702.1205     1154.137     1226.229     77.63244     156.1389     312.4334      1.629     4.96     829.9118     55.11533      85.4765         8     1.250     0.558  45.52   0
       558    452.9482    142.6196 307.7442619  +6.6272091     1383.203     2109.983      1887.96     77.88246     156.4499     312.4956      1.595     3.94      830.991     55.11533     193.5023        15     1.227     0.928  89.58   0
       559    641.9411    142.3447 307.6657506  +6.6336611     875.8106     1304.926     1634.077     78.50404     156.3877     312.6822      1.872     6.08     829.9969     55.11533     106.8193        11     1.239     0.840  75.66   0
       560    384.7012    141.3604 307.7726584  +6.6254370     3722.113     6126.894     6200.117     78.38013     156.2634     312.8998      1.779     4.05     833.0255     55.11533     457.9047        28     1.491     1.029  76.41   0
       561    349.1206    140.0379 307.7874853  +6.6247874     3142.011     5064.662     5455.175       78.256     156.4499     312.6822      1.730     3.74     834.3569     55.11533     391.1058        24     1.305     1.072  63.12   0
       562    103.6285    139.9416 307.8894779  +6.6165665     1656.835     2539.824     2340.634     78.00718     156.4499      312.589      1.579     4.78     838.7217     55.11533     206.2315        16     1.367     0.852  85.68   0
       563    561.3209    139.8414 307.6993304  +6.6319922     704.5222     1250.529     1552.573       78.256     156.3877     312.6822      1.887     3.84     829.8164     55.11533     93.45618         6     1.023     0.414  76.64   0
       564    739.5438    138.4576 307.6253297  +6.6385346     608.3136     827.1058     1060.034     78.50404     156.4499     312.7133      1.515     3.66     829.4807     55.11533     106.4841         6     0.970     0.398  19.78   0
       565    665.5812    137.9303 307.6560773  +6.6362757     624.7895     1020.347     884.2552     78.00718     156.2634     312.6201      1.753     4.46     829.9205     55.11533     91.47308         6     0.866     0.653  58.70   0
       566    996.0167    134.2127 307.5189112  +6.6488605     1586.215     2358.885     2468.635     78.13169     156.0766      312.589      1.502     4.52     825.1527     55.11533     212.1423        16     1.379     0.771  75.16   0
       567    722.0853    133.4258 307.6327526  +6.6400277     600.5038     973.8683     793.4017     78.50404     156.1389     312.5579      1.742     5.12     829.4217     55.11533     86.44244         7     1.169     0.635  80.98   0
       568    200.9872    129.0535 307.8493991  +6.6243403     5313.051     8663.406     8991.248     77.75755     156.3256     312.4023      1.717     3.50     837.2555     55.11533     680.0692        33     1.404     1.176  74.52   0
       569    662.8062    127.9293 307.6575670  +6.6403118     6282.353     9853.243     10700.81     77.88246     156.0144      312.589      1.682     3.66      829.465     55.11533     787.9833        36     1.440     1.155  64.69   0
       570     83.5257    128.7936 307.8982069  +6.6204917     2094.293     3394.694     3965.339     78.00718      155.952     312.5268      1.758     4.04     839.2427     55.11533     250.4849        22     1.338     1.043  86.35   0
       571    810.7179    127.9416 307.5961117  +6.6452579     1152.601     1649.565     1884.233     78.38012     156.3877     312.7444      1.534     4.67     828.6833     55.11533     148.2764        11     1.012     0.806  50.34   0
       572    615.0106    125.1437 307.6775188  +6.6398604     9242.507     14575.29     15998.49     77.75755     156.3256     312.3712      1.673     3.56      829.464     55.11533     1198.147        37     1.446     1.120  78.96   3
       573    618.5456    116.6820 307.6763351  +6.6434724      54282.7     82170.88     85515.98     78.38013     156.3877     312.7444      1.671     3.55     829.2454     55.11533     6333.438        68     1.503     1.241  79.41   2
       574    249.6855    125.9835 307.8292711  +6.6272465     681.8654     1238.311     906.9397     78.00718     156.1389      312.589      1.840     4.83     836.6762     55.11533     96.86511         9     1.010     0.655  36.21   0
       575     14.3317    124.4146 307.9271011  +6.6199670     1014.679     1849.712     1821.865     77.88247     156.2634      312.589      1.842     5.39     843.2077     55.11533     143.9283        13     1.261     0.834 -50.41   0
       576    552.8718    124.3877 307.7033615  +6.6380892     678.1604     1161.951     1786.208     77.88247     156.0144     312.4956      2.120     4.43      829.166     55.11533      101.088         6     0.803     0.696  45.64   0
       577    342.2708    120.6936 307.7909844  +6.6325437     3618.668     6528.032     6938.612     78.38013     156.4499     312.6822      1.912     4.18     834.4991     55.11533     462.0211        34     1.567     1.248 -65.56   0
       578    523.9113    120.4202 307.7155276  +6.6387559     1620.206      2514.99      3019.94       78.256     156.1389     312.5268      1.833     3.90     829.2487     55.11533      192.925        18     1.155     1.039  56.46   0
       579    988.3589    119.9868 307.5225703  +6.6544784     835.9069     1562.806     2112.827     77.88246     156.2012     312.4023      2.229     4.48     825.0737     55.11533     118.5504         9     0.983     0.663  40.96   0
       580    297.7421    110.3708 307.8098332  +6.6353086     3421.262     5607.877     5988.229     78.00718     156.4499      312.589      1.751     3.66     835.4016     55.11533     427.7244        28     1.365     1.121  65.39   0
       581    697.4452    105.3699 307.6439344  +6.6507861     930.2787     1293.387     718.7468     78.00718     156.4499     312.5579      1.516     4.67      828.358     55.11533     119.7059        10     0.963     0.778  65.50   0
       582    669.0513    104.0190 307.6557772  +6.6503929     1272.244     1973.175     1881.946     77.88247     156.4499     312.4645      1.527     4.57     828.3214     55.11533     200.3214        16     1.459     0.709  82.77   0
       583      2.6642     92.6017 307.9330262  +6.6327074     4794.247      12697.1     21233.61     77.75755     142.0565     255.6211      4.276    10.85       843.29     55.11533     852.0028       133     4.672     1.818 -87.81  24
       584    682.8909    100.7440 307.6501373  +6.6522086     3269.549     4992.072     5085.501       78.256     156.2634     312.8065      1.619     3.74     828.1519     55.11533     424.0941        25     1.311     1.070  74.68   0
       585    424.6496     91.6066 307.7577404  +6.6473203     4183.542     6480.113     6300.213     77.88247     156.2012      312.309      1.654     3.58     830.4485     55.11533     533.5773        26     1.367     1.048  84.14   0
       586    897.2658     87.0950 307.5615240  +6.6650159     4178.583     6054.352     6346.477     78.38012      156.512     312.7133      1.553     3.54     826.3553     55.11533     538.1839        25     1.294     1.014  76.35   0
       587    879.2303     87.9864 307.5689879  +6.6640451     2186.841     3106.587     2973.793     78.00718     156.2012     312.6201      1.535     3.50     826.6364     55.11533     306.1284        16     1.191     0.815  74.95   0
       588    577.0072     87.1423 307.6945889  +6.6542760     667.1651     859.6625     1205.743     77.75755     156.2634     312.4023      1.559     5.18      828.116     55.11533     115.5726         8     1.292     0.587  72.94   0
       589    589.3835     85.3399 307.6895074  +6.6554351     1768.891     2801.998     2810.647     77.88247     156.3256     312.4334      1.696     3.91     828.1708     55.11533     258.3115        19     1.259     0.950  77.04   0
       590    235.2408     84.9000 307.8366612  +6.6437221     822.5765     1494.472     1840.169     78.38012     156.2634     312.8998      1.843     4.83     836.8347     55.11533     127.3071         9     1.189     0.803  32.55   0
       591    388.1739     83.6974 307.7731623  +6.6493605     2023.248      2865.35     2711.805     78.50404     156.1389      312.589      1.569     3.91     832.1637     55.11533     265.6473        17     1.166     0.955  58.41   0
       592    136.0321     80.1662 307.8780391  +6.6423366     3081.144     5225.375     5966.744     77.88247     156.1389     312.4334      1.831     4.00     836.5072     55.11533      372.462        28     1.495     1.039  75.73   0
       593    284.4060     78.7444 307.8164426  +6.6479174     1383.143     2453.401     2964.117     77.88247     156.2634     312.3712      1.931     5.45     835.7338     55.11533     178.2499        18     1.474     0.930  64.55   0
       594     17.8165     78.1254 307.9272217  +6.6391949     12025.22      19626.1     21248.69     77.88246     156.1389     312.5579      1.727     3.68     841.0383     55.11533     1486.969        45     1.491     1.265  76.66   0
       595    545.2531     78.1178 307.7080865  +6.6569370     756.7765     1263.708     1471.999     78.38012     156.3877     312.7444      1.921     5.41      827.638     55.11533     95.78632        10     1.107     0.746 -84.23   0
       596    938.8627     77.0141 307.5445787  +6.6705679     611.6472     758.7383     620.9044     77.88247     156.2012     312.4956      1.487     3.99     825.3397     55.11533     95.89288         6     0.953     0.477 -58.56   0
       597    751.9294     76.5204 307.6222671  +6.6645213     661.1412      1385.66     1657.843     78.62777     156.6362     312.6512      2.509     4.85     827.4309     55.11533     111.1137         6     0.948     0.703 -65.69   0
       598    764.6829     73.2482 307.6170781  +6.6662991     3203.772     4865.321     5056.605     78.38013     156.3877     312.7133      1.656     3.84     827.2563     55.11533     416.8857        23     1.334     1.035  59.51   0
       599    886.8196     73.9597 307.5663057  +6.6700900     660.5032     941.8365     546.9434     78.00718     156.2012     312.4023      1.452     5.09     826.3065     55.11533     91.83508         8     1.053     0.697  71.02   0
       600    409.6942     73.6905 307.7645588  +6.6542149     1141.133     1566.624     1094.594     78.38013     156.8842     312.6822      1.544     5.78     830.6739     55.11533     154.0947        12     1.182     0.919 -74.93   0
       601    527.1683     71.5540 307.7158219  +6.6590403     1114.389     1492.709     1901.353     78.13169     156.3877      312.589      1.586     4.95     827.8144     55.11533     153.6637        13     1.327     0.768  60.88   0
       602    819.5919     72.8435 307.5942768  +6.6683032     6352.301     9367.325     9781.088     77.88247     156.2012     312.4334      1.600     3.76     826.9728     55.11533     874.3039        29     1.350     1.046  75.03   0
       603     58.2096     69.9674 307.9107166  +6.6439249     3091.966     5101.027     5375.733     77.88246     156.1389     312.5268      1.722     4.08     838.4656     55.11533     365.9464        26     1.454     1.061  70.48   0
       604     42.6102     70.6458 307.9171745  +6.6431189     1005.486     1441.038     987.7904     77.88247     156.2634     312.3712      1.531     5.08     839.2409     55.11533     130.2323        14     1.209     0.861  78.29   0
       605    419.5822     69.5894 307.7605889  +6.6562402     1023.571     1601.202       2061.8     78.13169     156.0766     312.5579      2.002     4.61     830.0781     55.11533     140.1533        11     1.162     0.718  68.61   0
       606    581.9277     66.6495 307.6932350  +6.6629018     1299.089     2220.142     1587.209     78.38012     156.4499     312.7133      1.725     4.84     827.5347     55.11533     172.7172        13     1.217     0.730  87.25   0
       607      1.5464     65.4169 307.9344119  +6.6438928     1629.237     2179.792     2445.574     70.13304     127.4106     238.5061      1.461     5.23     840.6268     55.11533     298.8317        13     1.260     0.744  84.06  24
       608    759.3810     60.7031 307.6197030  +6.6713012     1945.938     2967.511     2871.638       78.256     156.2634     312.4645      1.660     4.45     826.8746     55.11533     258.5417        18     1.355     0.962  85.22   0
       609     73.1233     61.4018 307.9048106  +6.6479638      896.015     1236.742     1220.441     77.75755     155.8273     312.5268      1.559     4.78      837.371     55.11533     120.1627         9     0.929     0.701 -80.21   0
       610    400.0997     60.6030 307.7689869  +6.6592959     1130.216     1491.902     1464.981     78.13169     156.1389     312.3712      1.473     3.21     831.0699     55.11533     167.8115        11     0.980     0.730 -75.84   0
       611     97.3066     58.8694 307.8948490  +6.6498244      801.498     1527.784     1294.755       78.256      156.512     312.6822      2.052     6.94     836.3535     55.11533     115.3122        13     1.530     0.883 -57.76   0
       612     85.9317     54.2509 307.8997313  +6.6513478     9220.381     14725.84     15523.94       78.256     156.2634     312.6201      1.710     3.59     836.6165     55.11533     1094.654        38     1.453     1.180  73.91   0
       613    415.1217     54.0292 307.7629673  +6.6625146     2497.115     3896.257     3725.141       78.256     156.4499     312.6822      1.666     3.95     829.9509     55.11533     335.1679        21     1.291     1.004  77.88   0
       614    252.5481     48.3108 307.8307075  +6.6594105     1472.105     2435.836     3024.088     78.38013     156.2012     312.7755      1.846     3.94     835.8661     55.11533     188.6394        17     1.260     0.927  81.84   0
       615    628.7245     46.4232 307.6744723  +6.6728212     18946.84     28278.11     29766.32     78.00718     156.2634     312.6201      1.639     3.54     826.6241     55.11533      2476.42        43     1.392     1.166  76.69   0
       616    528.4261     42.4401 307.7162808  +6.6711026     5145.345     8121.152     8354.183     78.00718     156.2012     312.4956      1.729     3.73     827.1657     55.11533     622.5172        31     1.423     1.107  72.27   0
       617    254.6923     38.4771 307.8301491  +6.6635426     9033.295     14547.05     15871.47     78.13169     156.5741     312.6822      1.754     3.70     835.7081     55.11533     1064.984        46     1.577     1.220  81.81   0
       618    615.0972     36.8990 307.6804554  +6.6762967     3097.721     5543.908     6850.199     78.38012     156.8842     312.5268      2.115     6.27     826.2994     55.11533     395.4039        35     2.119     1.016  74.78   0
       619    434.0376     38.0505 307.7556472  +6.6697468     22543.04     35650.39     37094.02     78.13169     156.2634      312.589      1.669     3.55     828.9134     55.11533     2886.251        52     1.479     1.249  72.94   0
       620    314.8957     38.6566 307.8051293  +6.6654932     862.1641     1394.644     1977.732       78.256     156.3877     312.8998      1.867     5.12     834.9796     55.11533     122.2382        11     1.239     0.767  74.58   0
       621    911.7345     38.0738 307.5571586  +6.6857390     2076.571     3060.785     2601.858     78.50404     156.3877     312.6822      1.532     3.53     825.5826     55.11533     282.0255        17     1.180     0.900  74.77   0
       622    246.7227     42.5947 307.8333211  +6.6615744     1963.988     3089.395     3955.165     78.00718     155.8897     312.5268      1.855     3.93     835.8149     55.11533     237.7735        20     1.256     1.041  83.41   0
       623     19.9908     37.8796 307.9276821  +6.6558836     2259.534     3770.735     4244.488     78.00718     156.0144     312.5268      1.812     4.26     837.5878     55.11533     271.9706        22     1.432     0.959  72.32   0
       624    765.0919     41.5657 307.6179739  +6.6793935     562.4285     776.4431     651.8194     78.50404     156.2634     312.7444      1.424     4.35     826.2242     55.11533     90.67297         6     1.088     0.495 -57.00   0
       625    242.6300     34.9375 307.8352804  +6.6645980     2910.869     4770.219     5256.084     78.13169     156.3877     312.6201      1.752     4.21     835.6749     55.11533     370.0483        28     1.412     1.117  87.40   0
       626    295.8170     33.6578 307.8132252  +6.6669155     1043.557      1783.75     2018.151     77.88247     156.3256     312.4334      1.818     4.70     835.4565     55.11533     128.9623        12     1.221     0.702  83.74   0
       627    932.4523     28.4151 307.5488743  +6.6904190     1004.088     1557.787     1683.402     77.75755     156.3877     312.4023      1.675     4.96     825.0897     55.11533     135.9902        14     1.279     0.839  71.15   0
       628    683.8594     27.7647 307.6521915  +6.6823719     1791.835     2735.402     3087.688     78.38012     156.3877     312.6512      1.601     3.83     825.9354     55.11533     243.5859        20     1.291     1.023 -86.75   0
       629    249.7468     22.8752 307.8327313  +6.6698175     757.5703     1426.319     1761.052     78.38012     156.3877     312.6822      1.882     4.96      835.469     55.11533     108.2179         8     1.201     0.579  82.66   0
       630    194.9252     23.4568 307.8554893  +6.6677324     696.5724     982.3477     619.0221       78.256     156.3256     312.6512      1.583     5.05     835.4263     55.11533       88.513         7     1.162     0.622  40.59   0
       631    704.6025   1017.6721 307.6102809  +6.2743557     985.5517     1797.005     2428.492     77.88247     156.0144     307.2253      2.161     6.84     859.2873     55.11533      131.772        13     1.372     0.957  74.31  17
       632    949.8762   1016.8383 307.5084734  +6.2828978     6053.888     10568.77     10648.03       78.256     156.4499     311.8105      1.837     3.81     855.4327     55.11533     680.4315        43     1.496     1.363  82.42  16
       633    234.6428   1016.9557 307.8054197  +6.2588891     1278.756     1926.266     2027.621       78.256     156.3877     311.3114      1.629     4.76     860.3708     55.11533     157.1653        14     1.177     0.918  75.50  16
       634    432.9420   1015.6329 307.7231373  +6.2660950     934.6165     1523.843     1222.554       78.256     156.4499     312.6201      1.694     5.91     860.4788     55.11533      127.473        12     1.221     0.805 -85.72   0
       635    709.6379   1014.8779 307.6082842  +6.2756779     2707.894      4161.26     3897.442       78.256     156.4499     312.6822      1.653     3.57     859.2357     55.11533     327.2087        22     1.236     1.075  87.13   0
       636    725.1635   1014.0748 307.6018651  +6.2765290     1072.243     1486.183     1336.051       78.256     156.4499     312.7133      1.477     4.01      859.277     55.11533     140.8143        12     1.121     0.726  82.88   0
       637    356.5374   1012.4409 307.7549658  +6.2648484     1817.263     2887.924     2926.744     78.38013     156.3256     312.7755      1.729     4.66     860.6298     55.11533     222.1416        20     1.447     0.929 -80.41   0
       638    966.5628   1009.6275 307.5017868  +6.2864321     486.4588     790.4374     673.2457     77.88247     156.1389     312.4956      1.810     4.15     854.2197     55.11533      82.1582         5     0.993     0.495  88.09   0
       639    743.1537   1001.9924 307.5948017  +6.2821194     7666.782     12247.12     12945.11     77.88247     156.2012     312.3401      1.681     3.48     858.7037     55.11533     997.5879        39     1.489     1.174  80.48   0
       640    538.6949   1002.4300 307.6796757  +6.2750926     4254.108     7113.375     8051.973     78.50404     156.1389     312.6201      1.882     4.06     860.2239     55.11533     482.7827        32     1.495     1.144  86.10   2
       641    535.8400    994.6676 307.6811224  +6.2782018     8239.297     13091.09     14219.66       78.256     156.3256     312.7444      1.728     3.60     860.1285     55.11533     1017.448        35     1.422     1.153  84.55   2
       642    508.4979   1003.5804 307.6921743  +6.2736053     995.4783     1402.387     1198.606       78.256     156.2634     312.4334      1.486     3.77     860.4186     55.11533     184.3624         9     1.214     0.494  51.30   0
       643    288.9531   1001.0127 307.7834102  +6.2672967     14449.92     23598.48     25918.02     77.75755     156.2012     312.4334      1.801     3.84     860.0233     55.11533     1749.871        56     1.726     1.362 -49.28   0
       644    413.3299   1001.8094 307.7317456  +6.2711443     989.7442     1464.595     1318.876     77.88247     156.1389     312.5268      1.584     5.67     860.1725     55.11533     132.9177        10     1.165     0.776 -81.37   0
       645    804.5655   1001.0956 307.5693340  +6.2845434     1025.232     1695.991     1807.953     78.50404     156.2634     312.7755      1.671     4.97     856.8955     55.11533     188.4475        12     1.314     0.779  87.85   0
       646    114.9992   1001.0847 307.8556268  +6.2614173     537.9037     545.4843     427.5543     77.63244     155.8897     312.3712      1.125     2.52     857.1347     55.11533     119.8234         5     0.777     0.478 -61.65   0
       647    260.0184    998.5574 307.7955058  +6.2673381     870.4521     1192.427     1010.994     77.88246     156.2634     312.4645      1.539     3.78     860.0314     55.11533     149.1728        11     1.021     0.937  21.13   0
       648    904.5323    995.3628 307.5280202  +6.2902507      8393.07      14019.9     14219.81       78.256     156.3877     312.8065      1.797     3.64     855.6726     55.11533     980.2633        43     1.520     1.277  72.91   0
       649    878.1127    991.5920 307.5391162  +6.2909251      11861.7     20209.77     22108.15     78.00718     156.0766     312.4645      1.842     3.60     855.6811     55.11533     1444.735        52     1.545     1.408  48.28   0
