#   1 NUMBER                 Running object number                                     
#   2 X_IMAGE                Object position along x                                    [pixel]
#   3 Y_IMAGE                Object position along y                                    [pixel]
#   4 ALPHA_J2000            Right ascension of barycenter (J2000)                      [deg]
#   5 DELTA_J2000            Declination of barycenter (J2000)                          [deg]
#   6 FLUX_APER              Flux vector within fixed circular aperture(s)              [count]
#   9 FLUXERR_APER           RMS error vector for aperture flux(es)                     [count]
#  12 FLUX_RADIUS            Fraction-of-light radii                                    [pixel]
#  13 FWHM_IMAGE             FWHM assuming a gaussian core                              [pixel]
#  14 BACKGROUND             Background at centroid position                            [count]
#  15 THRESHOLD              Detection threshold above background                       [count]
#  16 FLUX_MAX               Peak flux above background                                 [count]
#  17 ISOAREA_IMAGE          Isophotal area above Analysis threshold                    [pixel**2]
#  18 A_IMAGE                Profile RMS along major axis                               [pixel]
#  19 B_IMAGE                Profile RMS along minor axis                               [pixel]
#  20 THETA_IMAGE            Position angle (CCW/x)                                     [deg]
#  21 FLAGS                  Extraction flags                                          
         1    190.6895     21.5991 307.8650906  +6.6681085     11541.84     16628.53     17316.94     77.41028     155.4436     311.5393      1.539     2.98      830.938      54.9576     1663.884        40     1.415     1.066  69.63   0
         2    936.3820     19.2491 307.5553400  +6.6940481     4184.318     5981.312     6466.541     77.65958     156.0022     311.6013      1.520     3.07     825.8188      54.9576     600.3336        25     1.278     0.976  78.12   0
         3    473.1940     18.1968 307.7478305  +6.6789954     1911.599     2511.095     2246.379     77.53503       155.63     311.6634      1.397     2.95     829.1774      54.9576     301.3937        15     1.072     0.853  78.08   0
         4   1001.1781     15.4052 307.5285449  +6.6977955     2070.758     3279.163     3178.438     77.78394     155.6921     311.6013      1.645     3.95     821.5121      54.9576      305.031        22     1.444     0.936  73.60   0
         5    720.5693     12.1566 307.6452496  +6.6897695     7858.819     10984.66     11683.93     77.78394     155.8782     311.6634      1.460     2.94     825.8416      54.9576     1156.554        31     1.353     1.019  80.38   0
         6    640.8142     11.3223 307.6784161  +6.6874465     3989.867     5513.138     5387.639     77.78394       155.63     311.6013      1.437     3.11     826.2289      54.9576     615.1927        23     1.339     0.861  73.99   0
         7    342.7764     10.7353 307.8022682  +6.6777015     903.4509     1172.711     1599.383     77.78394     155.9402     311.6944      1.589     4.58     833.8008      54.9576     169.1978         9     1.166     0.539  75.26   0
         8    440.9305      7.5467 307.7615938  +6.6823104     6784.294     9322.475     9524.764     78.03205     155.8162     307.8568      1.464     3.04     829.8145      54.9576     1013.381        30     1.363     0.976  74.95  16
         9    396.4876      9.3702 307.7799980  +6.6800672     897.0729     1366.224     792.2341     78.27938     155.6921     311.6944      1.618     4.37     831.4512      54.9576     118.8754         7     0.937     0.688 -43.58   0
        10     41.7917      7.1563 307.9274398  +6.6690616     9178.012      13222.3     13926.36     77.65958     155.7542     305.1765      1.513     2.99     827.9053      54.9576     1391.835        36     1.376     1.044  70.35  16
        11    687.7910      6.0403 307.6590744  +6.6911985     929.2815     1238.098     1108.697     77.53503     155.7542     296.0129      1.350     4.46     826.0133      54.9576      155.957         8     1.319     0.429  52.61  16
        12    337.4805      2.7332 307.8047381  +6.6808272     13923.93     18975.22     20071.44     78.27938     142.7375     256.1755      1.504     3.44     833.8008      54.9576     1943.686        38     1.341     1.133 -88.14  24
        13    516.6544      4.5533 307.7302317  +6.6860840     925.2012     1121.072     1044.908     78.15582     155.9402     280.2471      1.268     4.04     827.6169      54.9576     166.7642         7     0.993     0.471  61.73  16
        14    432.6269      3.0934 307.7651937  +6.6838704     907.1679     1297.701     1760.458     78.27938     146.2822     261.1822      1.479     4.72     829.9754      54.9576      140.696         9     1.131     0.559  75.12  24
        15    404.0225      1.8538 307.7771203  +6.6834228     1571.216     1907.637     1656.907     73.70058     131.5313     242.7708      1.281     2.81     831.0141      54.9576     374.7442        13     1.081     0.859 -80.61  24
        16    111.0027      2.8728 307.8988296  +6.6731591     2808.121     4036.918      4426.92     77.65958     143.9512     257.9052      1.514     3.23     829.7319      54.9576     432.1143        19     1.181     0.909  68.72  24
        17    102.4265      1.9909 307.9024225  +6.6732346     1481.625     1818.036     1904.649     74.87154     133.1381     244.9901      1.275     3.12     829.5524      54.9576     248.7925        10     0.895     0.782  82.28  24
        18    806.0504      1.6998 307.6100822  +6.6969427     760.6456     1012.383     1128.093      72.3773     129.3081     240.6114      1.245     2.69     825.7679      54.9576     167.7635         8     0.836     0.615  47.17  24
        19     82.0228    999.8076 307.8772420  +6.2606339     469.4553     794.9648     923.6527     77.65958     155.7542     311.6013      1.702     5.54     853.3758      54.9576     77.27783         6     1.443     0.600 -64.52   0
        20    761.4811   1023.3264 307.5943713  +6.2736892     1008.406     1345.301     1284.436     72.24364     129.1586     240.2496      1.324     3.38      858.168      54.9576     161.0383        10     0.959     0.718  -0.20  24
        21    923.4392    996.6465 307.5280224  +6.2901077     7893.568     13669.25     14536.75     78.03205     155.9402     311.6324      1.872     3.92     855.6298      54.9576     881.4036        47     1.677     1.315  66.17   0
        22    896.9976    992.7607 307.5391304  +6.2908303     11078.64     19185.09     21161.45     77.28532     155.6921     311.5083      1.865     3.67     855.8165      54.9576     1393.628        53     1.605     1.375  74.34   0
        23   1018.8458    992.1587 307.4885606  +6.2951399     4200.737     7735.963     7761.677     78.03205     155.9402     297.0884      1.954     4.20     852.0504      54.9576       443.39        35     1.535     1.267  72.44  16
        24    609.7741    993.2807 307.6583624  +6.2810234     1397.697     1942.738     2099.216     78.03205     155.7542     311.8184      1.471     3.82     858.5559      54.9576      216.777        15     1.146     0.939 -28.48   0
        25    541.0778    991.6548 307.6869376  +6.2793965     4363.447     6642.271     7364.722     78.27938     155.9402     311.7874      1.616     3.07     859.9522      54.9576      598.281        30     1.340     1.139  79.68   0
        26    650.8914    991.2145 307.6413608  +6.2832513     1331.515     2042.711     2108.219      77.9081     155.7542     311.6013      1.584     3.98     858.3223      54.9576     192.4859        13     1.222     0.727 -88.99   0
        27     76.1189    990.5409 307.8800052  +6.2642609     849.2856     1385.461     1659.957     78.27938     156.0022     311.7874      1.735     5.98     853.1633      54.9576     105.6683        10     1.294     0.777  79.45   0
        28    494.3519    988.1104 307.7064557  +6.2792957     2262.354     3405.591     3215.599     78.15582     155.8162     311.9424      1.591     3.00     859.7762      54.9576     328.8286        20     1.180     0.969 -89.12   0
        29    928.7635    980.2917 307.5263584  +6.2970372      40759.4     68081.95     73577.61     78.27938     155.8782     311.8184      1.829     3.72     854.9531      54.9576     5015.646        81     1.720     1.394  73.11   0
        30    333.9009    982.1197 307.7732705  +6.2763925      577.781     936.2543     362.9211     78.03205     156.3116     311.8494      1.682     5.04     858.3898      54.9576     79.98285         6     1.050     0.683 -76.87   0
        31      1.9879    979.9892 307.9111356  +6.2661238     2890.154     4045.578     3962.487     74.74234     133.1381     244.9112      1.435     3.31     851.9667      54.9576     450.0326        21     1.339     0.916 -85.38  24
        32    236.2665    978.4432 307.8139278  +6.2746346     1831.489     2672.064     2798.345     78.15582     155.8782     311.8184      1.535     3.42     857.7665      54.9576     270.0687        16     1.172     0.847  64.31   0
        33    774.8949    972.0184 307.5905198  +6.2953191     6453.602     10416.73     11362.93     78.03205     155.7542     311.6634      1.737     3.54     856.6984      54.9576     898.5142        39     1.756     1.148  88.39   0
        34    635.3763    976.7658 307.6482867  +6.2886975     924.1351     1411.932     1058.781     77.65958     155.7542     311.5703      1.489     3.03      858.091      54.9576     155.6656        10     1.007     0.713   8.16   0
        35    826.7811    974.1200 307.5689069  +6.2961835     2233.748     3424.554      3509.81     77.78394       155.63     311.6944      1.641     3.69     855.8387      54.9576      288.502        22     1.338     0.971  67.03   0
        36    244.2168    971.0554 307.8108759  +6.2779513     1500.365     2406.302     2253.681     77.65958     155.8782     311.5393      1.734     3.93     857.4471      54.9576     192.9095        16     1.254     0.806  57.35   0
        37    561.9662    971.0037 307.6789582  +6.2886209     978.2607     1291.059     789.1826     77.41027     155.8162     311.5703      1.388     4.61     858.7729      54.9576     155.7211         9     1.014     0.776  39.88   0
        38    208.7960    970.6467 307.8255948  +6.2769310     811.4605     1358.319     1047.533     77.53503     155.6921     311.4773      1.756     4.06      856.419      54.9576     111.4727         9     0.926     0.819  59.86   0
        39    963.0991    966.9339 307.5125489  +6.3036964     6106.706     10255.88     10592.01     78.15582     156.0641     311.7874      1.792     3.65     853.3088      54.9576     717.3833        38     1.487     1.251  64.95   0
        40     69.2664    968.8387 307.8835815  +6.2729896     2934.404     4205.099      4282.55     78.03205     155.8782     311.8804      1.522     3.23     852.7623      54.9576     418.5253        21     1.224     0.951 -89.14   0
        41    219.1430    962.6752 307.8215675  +6.2805693     488.0947     699.3753     669.6394     78.15582     155.8782     311.6944      1.315     4.08     856.4127      54.9576     81.90454         6     0.752     0.635  72.38   0
        42    936.9604    958.7937 307.5236737  +6.3061858     1986.095      3429.07     3598.419     77.41027       155.63     311.5393      1.850     4.71     853.9395      54.9576     255.1982        23     1.451     1.102  79.25   0
        43    657.6345    954.5943 307.6397886  +6.2985948     4683.768     6935.373     7258.172     77.41028     155.7542     311.5703      1.611     3.08     857.5269      54.9576     618.2528        29     1.423     1.002  78.67   0
        44    269.7513    954.7935 307.8008221  +6.2855216     4433.729     6817.453     7189.782     77.65958     155.7542     311.4152      1.619     3.15     857.1119      54.9576     610.0429        32     1.384     1.127  69.76   0
        45    796.4568    954.6566 307.5821487  +6.3032066     1304.465     1710.102     1845.316     78.27938     155.9402     311.8494      1.464     3.02     856.0603      54.9576     199.8367        12     0.912     0.846  81.01   0
        46     38.4849    952.3386 307.8969167  +6.2787661     2251.101     3176.031     4100.558     78.27938     156.0641     311.8184      1.631     3.24     852.1166      54.9576     292.7565        21     1.187     1.088 -83.00   0
        47    479.8498    953.1046 307.7136518  +6.2932616     1248.893     1846.624     1915.151     78.03205     155.8162     311.9424      1.430     4.28     858.2357      54.9576     193.6678        12     1.234     0.648  57.99   0
        48    889.2950    950.8264 307.5437307  +6.3078857     969.2484     1490.053      1650.49     78.27938     155.6921     311.6634      1.573     3.86     854.3077      54.9576     179.6042         9     1.135     0.582  32.11   0
        49    960.7546    947.8456 307.5141602  +6.3114987     642.1407     905.9171     742.3724     78.15582     155.9402     311.7874      1.712     5.37     852.7593      54.9576     98.92444         7     1.213     0.672  84.32   0
        50    582.2855    947.2060 307.6713203  +6.2991253     1737.076     2759.746     2561.596     77.65958       155.63     311.5083      1.669     3.73     857.7156      54.9576     256.1417        17     1.230     0.931  70.00   0
        51    306.1329    948.1826 307.7859400  +6.2894713     965.8405     1541.521     1844.186     77.65958     155.8782     311.6944      1.649     4.03     857.3011      54.9576      133.925        11     0.980     0.816  33.98   0
        52   1013.2402    946.1154 307.4924257  +6.3139619     692.4056     1161.296     1422.868     78.15582     155.8782     311.7564      2.229     4.91     850.9692      54.9576     108.1163         7     1.124     0.607 -65.42   0
        53    621.5566    943.4841 307.6551401  +6.3019753     1448.036     2078.269     2033.545     78.15582     155.8782     311.7874      1.592     3.33     857.3943      54.9576     196.2577        17     1.156     0.919  39.10   0
        54     71.5230    944.1724 307.8834762  +6.2832481     684.2556     1196.615     1020.374     78.03205     155.8782     311.7564      1.620     4.08     852.4606      54.9576     108.6309         7     1.046     0.455  77.29   0
        55    301.5792    941.2628 307.7880633  +6.2921753     1575.455     2332.418     2748.384     77.78394     155.9402     311.6634      1.564     3.66      857.077      54.9576     250.5573        17     1.185     0.972 -89.55   0
        56    569.3137    939.3022 307.6769711  +6.3019542       759.52     920.1626     1530.955     78.15582     156.3734     311.8494      1.601     5.28     857.5186      54.9576     106.4259         8     1.006     0.782 -71.02   0
        57    768.4096    937.3615 307.5943727  +6.3094103     932.8198     1332.996     1057.899     77.53503     155.7542     311.5083      1.604     4.40     856.1782      54.9576     128.5963         9     0.952     0.747 -78.35   0
        58    905.8789    933.8580 307.5374123  +6.3154440     6818.127     10901.24      10974.3     78.15582     155.8782     311.7564      1.691     3.32     853.5187      54.9576     868.8975        36     1.439     1.209  78.29   0
        59    143.6248    935.2189 307.8538443  +6.2893676     653.5411     902.3348     705.9009     77.78394     155.7542     311.7254      1.493     4.64     853.3345      54.9576      100.774         6     0.902     0.684  83.65   0
        60    441.5855    931.1240 307.7302766  +6.3010543     2266.545     3204.882     3010.658     77.65958     155.6921     311.6324      1.481     4.21     857.2007      54.9576     332.9109        18     1.293     0.882 -89.72   0
        61    343.2892    929.4153 307.7711448  +6.2984651     10059.79     14710.52     15293.86      77.9081     155.7542     311.6324      1.571     2.87     856.6928      54.9576     1472.636        38     1.400     1.097  82.21   0
        62    610.6299    930.8404 307.6601008  +6.3068297     464.1339     567.5239     191.7755     77.65958     155.6921     311.6634      1.013     3.33     857.1628      54.9576     89.58661         5     0.742     0.447  71.96   0
        63    263.4782    928.4116 307.8043141  +6.2962022     7642.462     11203.64     11998.29     77.78394     155.5679     311.6634      1.590     2.93     855.7459      54.9576     1080.699        35     1.396     1.127  74.79   0
        64    181.4317    927.5394 307.8384068  +6.2938078     540.5806     687.7456     618.1091      77.9081     156.0022     311.7254      1.678     4.11     853.7751      54.9576     92.31653         5     0.989     0.489 -84.73   0
        65    775.8514    922.4185 307.5917831  +6.3158278     651.5417     949.7513     582.0143     77.65958     156.0022     311.5393      1.481     3.42      855.869      54.9576     113.5953         5     1.183     0.286  55.18   0
        66    591.2617    922.6303 307.6684177  +6.3095712     1246.237     1908.433      1949.09      77.9081     155.9402     311.7254      1.501     3.83     857.0383      54.9576     185.7382        12     1.074     0.804  65.38   0
        67    921.6529    919.1890 307.5313533  +6.3220259     1030.741     1684.346       1808.5     77.53503     155.8782     311.5393      1.824     4.45     852.9199      54.9576     148.0809        12     1.184     0.917  50.78   0
        68    877.9049    917.6325 307.5495700  +6.3212096     796.8218     1300.468     727.3093     78.27938     155.8162     311.8804      1.716     6.63     853.4159      54.9576     105.3757        11     1.475     0.835  77.49   0
        69    154.1808    918.7680 307.8500159  +6.2965135     587.5833      946.063     697.6293     77.65958     155.7542     311.6634      1.456     3.97     853.3253      54.9576     98.40973         6     0.768     0.587 -51.72   0
        70    420.3876    917.1350 307.7395476  +6.3061191     656.4051     867.8416     1474.929     77.65958     155.7542     311.6944      1.454     3.35     856.6898      54.9576     114.4344         5     0.757     0.429  68.28   0
        71    925.2885    914.9733 307.5299846  +6.3238876     424.9189     807.7549     1643.696     78.27938     155.6921     311.6634      3.319     3.48     852.7643      54.9576     103.5772         5     1.000     0.528 -50.45   1
        72    850.9721    912.7806 307.5609150  +6.3223141     597.1665     917.0998     522.7552     77.78394     155.7542     311.7254      1.543     4.19     853.9735      54.9576     97.04785         6     1.148     0.436  27.86   0
        73    757.6429    911.8636 307.5996968  +6.3195772      1671.63     2274.808     2237.821     78.15582     155.8782     311.8184      1.457     3.34     855.8721      54.9576     251.2113        18     1.175     0.949  65.41   0
        74    581.9156    912.1439 307.6726499  +6.3135878     739.0875      956.188     885.1736     78.15582     155.9402     311.9114      1.464     3.63     856.8578      54.9576     102.5251         7     0.850     0.656 -55.92   0
        75    989.4461    907.9196 307.5035811  +6.3289381     1119.342     2099.664     3076.343     78.15582     155.9402     311.7874      2.984     6.12     850.7596      54.9576      154.133        18     1.705     0.886  86.05   0
        76    622.2737    908.3310 307.6560211  +6.3165117     956.2075     1369.884     1306.232     78.27938     156.0641     311.7564      1.441     3.38     856.7466      54.9576     175.5253        10     0.981     0.748  70.59   0
        77    542.8823    907.6911 307.6890058  +6.3141199     1221.125     1763.733     1347.218      77.9081     156.1879     311.8494      1.472     4.12     856.8047      54.9576     171.0892        13     1.134     0.885  60.20   0
        78      8.6513    909.1766 307.9107580  +6.2955805     997.6797     1487.404     1847.733     77.65958     155.9402     311.6944      1.575     4.40     850.6237      54.9576     139.8781         9     0.910     0.743 -17.39   0
        79    676.4674    905.2830 307.6336218  +6.3195819     2676.155     4030.369     4152.708     78.27938     156.1879     311.8184      1.530     3.18     856.5706      54.9576      399.472        20     1.296     0.848  79.09   0
        80     72.9798    901.6005 307.8843066  +6.3008716     3103.609     4740.184     4746.082     77.78394       155.63     311.5083      1.631     3.26     851.5055      54.9576     403.2181        25     1.293     1.053  77.26   0
        81    837.2755    901.8404 307.5669681  +6.3263737     715.5497     1080.297     1126.216     78.03205     155.9402     311.8184      1.513     4.63      854.286      54.9576     122.6427         9     1.269     0.608  56.23   0
        82     90.3312    900.9775 307.8771238  +6.3017121     1857.491     2664.045     2968.013     77.78394     155.8782     311.7564      1.525     3.31     851.7922      54.9576     275.1992        17     1.190     0.898 -81.60   0
        83    216.6407    900.2578 307.8247075  +6.3062526     2295.775     3528.279     3886.951     78.15582     155.9402     311.8494      1.666     3.30     854.2714      54.9576     326.9249        20     1.203     0.991 -89.62   0
        84    954.5861    900.3580 307.5183083  +6.3308981     795.4584     1171.341     1046.917     77.53503     155.7542     311.5393      1.683     5.33     851.5148      54.9576     107.1171         9     1.034     0.775  50.67   0
        85    973.1608    897.5726 307.5106888  +6.3326671     616.6255     827.5087     1143.839     77.78394     155.7542     311.6634      1.393     3.30     850.9648      54.9576     100.2375         5     0.734     0.461 -18.24   0
        86    671.0370    894.5220 307.6362372  +6.3238429     7508.448     10939.06     11342.84     78.03205     156.0022     311.7874      1.547     2.98     856.4654      54.9576     1147.188        34     1.384     1.064  71.93   0
        87    355.5671    896.3229 307.7671598  +6.3125383     1090.122      1891.56     2989.005     78.03205     155.9402     311.7564      2.075     3.73     855.8436      54.9576      159.253        11     1.131     0.758  78.62   1
        88    250.5019    896.9049 307.8107619  +6.3087735     908.9832     1241.171     980.5743     78.15582      156.497     311.6324      1.545     3.74     854.9738      54.9576     111.5181        10     0.947     0.743   2.86   0
        89    808.5769    895.0231 307.5791122  +6.3282303      632.757      879.743     760.1315     77.65958     155.7542     311.7254      1.307     3.63     855.0042      54.9576     130.7322         7     1.043     0.528  62.70   0
        90     31.1043    892.7145 307.9019916  +6.3031317     1226.423     1639.273      1010.83     78.15582     156.3116     311.8804      1.446     3.00     850.4037      54.9576     204.4025        12     1.051     0.707 -87.29   0
        91    908.8642    890.7551 307.5376140  +6.3333382     2667.613     4202.249     4242.566     78.15582     155.8782     311.7874      1.678     3.50     852.3964      54.9576     346.6951        24     1.373     1.030  60.55   0
        92     44.2070    891.3041 307.8965993  +6.3041546     1144.613     1644.827     1364.582      77.9081     155.5679     311.6013      1.468     3.59     850.5977      54.9576     180.8607        12     1.083     0.785 -72.32   0
        93    783.9215    891.3521 307.5894724  +6.3289227     586.5522     761.0583     487.5799     78.15582     156.0022     311.7254      1.282     4.61     855.3395      54.9576     97.79169         8     1.101     0.549  57.61   0
        94    354.0535    887.6993 307.7680781  +6.3160476     17456.52     25109.59      26433.6     78.03205     155.9402     312.0353      1.503     2.89     855.6293      54.9576     2617.273        43     1.381     1.138  76.51   0
        95     88.8334    888.6570 307.8781609  +6.3067479      1445.03     2144.214     2384.792     78.03205     155.9402     311.7874      1.595     3.34     851.4749      54.9576     184.7964        14     0.994     0.952  80.48   0
        96    224.9151    887.3344 307.8217072  +6.3118655     1311.419      1992.59     1960.176     78.27938     156.1879     311.8494      1.514     3.98     854.4024      54.9576     229.2224        15     1.224     0.902 -88.96   0
        97    404.6249    886.5845 307.7471186  +6.3182031      749.033     955.8318      1279.78      77.9081     155.8162     311.7254      1.559     4.77     855.7048      54.9576     117.6738         9     1.000     0.872  80.77   0
        98    117.3951    878.3987 307.8666485  +6.3119428     1831.765     2684.517     2964.723     77.53503     155.5679     311.5703      1.634     3.26     851.9686      54.9576     287.5807        16     1.156     0.880  79.99   0
        99    684.7762    875.7827 307.6311605  +6.3320384     654.6053     1548.477     2228.498      77.9081     155.8162     311.6944      2.823     7.66     856.1008      54.9576     112.0684        14     2.401     0.683 -69.36   0
       100    431.9121    878.4525 307.7360622  +6.3224746     1249.366      1720.63     1953.595     78.15582     155.8162     311.9114      1.411     3.67     855.5144      54.9576       176.97        12     1.115     0.708  82.94   0
       101    512.2911    875.1926 307.7027981  +6.3265124     709.0193     1015.078     1096.859     77.78394       155.63     311.6013      1.660     4.71     855.9393      54.9576     126.2914         9     1.236     0.575  53.25   0
       102    899.1713    872.3707 307.5422534  +6.3406049      1996.96     2866.446     2971.049     77.65958     155.6921     311.5393      1.529     3.20     852.2363      54.9576     315.3824        19     1.237     0.910  63.66   0
       103    869.8963    872.0344 307.5544204  +6.3397673     2010.022     2950.692     2421.944     78.27938     155.8162     311.9424      1.537     3.48     853.0973      54.9576     277.3219        19     1.158     1.014  64.78   0
       104    833.2203    871.4089 307.5696701  +6.3388017     3101.687     4676.346     4716.602     77.78394     155.6921     311.5703      1.580     3.34      854.032      54.9576      423.724        25     1.342     1.000  73.13   0
       105    100.8400    871.8581 307.8737423  +6.3140864     2515.921     3663.865     3852.097     78.15582     156.0022     311.8494      1.504     2.82      851.371      54.9576     370.4226        19     1.087     0.988 -81.15   0
       106    464.3206    870.3223 307.7228792  +6.3269167     670.8826     1207.086     1432.483     78.40276     156.1879     311.9424      1.773     5.68     855.4352      54.9576     92.52307         8     1.573     0.577  40.42   0
       107    349.1027    870.0195 307.7707281  +6.3231803     890.1487     996.8459      1279.76     78.03205     155.7542     311.5393      1.383     4.24     855.1533      54.9576     135.6985        10     1.032     0.755  50.08   0
       108    569.1483    862.8989 307.6796030  +6.3334907     356921.8     510698.5     539026.6     78.15582     155.9402     312.0043      1.507     3.14     855.9972      54.9576     55576.59       181     1.628     1.355  78.96   4
       109    356.5737    863.8906 307.7678322  +6.3259611     13580.12     19527.71     20745.05     78.27938     155.6921     311.6324      1.522     2.95     855.0013      54.9576     1911.125        43     1.391     1.160  75.47   0
       110    657.0112    865.7156 307.6430265  +6.3352664     1193.273     1490.959     1396.603     77.78394     155.6921     311.6324      1.356     2.86     856.0656      54.9576     226.2261        11     1.028     0.670  50.35   0
       111    907.5261    858.9238 307.5392339  +6.3464350     5336.967     8170.321     9526.984     78.40276     156.1879     311.8184      1.709     3.21      851.742      54.9576     647.9427        34     1.433     1.213  43.94   2
       112    675.0621    859.9355 307.6357251  +6.3382561     3642.824     5092.586      5246.26     78.15582     155.9402     311.8184      1.444     2.87     855.9119      54.9576     586.5944        22     1.216     0.937  75.39   0
       113    746.4008    856.5935 307.6062157  +6.3420195      963.545     1140.728     1161.315     77.53503       155.63     311.6013      1.345     4.15     855.1987      54.9576     163.9527         8     0.952     0.661 -84.85   0
       114    649.8325    854.2025 307.6463931  +6.3397795     3557.644     5403.003     5419.999     77.41027     155.7542     311.5393      1.538     3.42     855.7657      54.9576      568.876        28     1.390     1.064  80.17   0
       115    838.3442    853.1103 307.5681548  +6.3465271      1700.78     2282.932     2430.115     78.03205     155.8162     311.9114      1.482     3.52     853.6034      54.9576     218.2434        16     1.069     0.949  74.19   0
       116    192.5961    854.1680 307.8362424  +6.3244722     518.9598     501.9023     336.2949     77.53503     155.8162     311.5703      1.255     3.44     853.4577      54.9576     74.21295         5     0.798     0.428 -69.08   0
       117    640.0481    852.7558 307.6505043  +6.3400496     981.2677     1354.585     1151.848     78.15582     155.8782     311.7254      1.493     3.17     855.7313      54.9576     154.9112        10     0.918     0.753  80.41   3
       118    642.7996    848.5096 307.6495042  +6.3418946     2324.164      3333.28     3872.431     77.41027     155.4436     311.4773      1.579     3.05     855.6276      54.9576     332.3826        21     1.222     0.958 -87.33   2
       119    413.4346    865.4704 307.7441703  +6.3272149     8474.673     11702.77     12344.61     78.03205     155.8782     311.8184      1.492     2.78     855.0294      54.9576     1319.073        34     1.384     1.020  81.68   0
       120    965.0327    851.7404 307.5155954  +6.3513178     937.3561     1248.061     1605.899      77.9081     156.0022     311.7564      1.470     4.07     850.2435      54.9576     159.6683         9     1.015     0.598  55.79   0
       121    926.3128    846.8616 307.5318363  +6.3520412     3152.724     4690.822     5365.324     78.27938      156.126     311.8494      1.590     3.48     851.1153      54.9576     447.4906        23     1.332     0.971  83.54   0
       122    336.3775    847.2623 307.7767769  +6.3321484     1087.978     1470.006     1625.972     77.78394     155.9402     311.6944      1.395     3.49     854.5086      54.9576     177.9847        10     1.021     0.699 -87.82   0
       123    384.5055    842.6913 307.7569474  +6.3356492     2894.593     4145.186      4573.62     78.15582     156.4352     311.7874      1.472     2.74     854.3735      54.9576     414.0425        20     1.156     0.949  64.73   0
       124    806.8256    836.6772 307.5817923  +6.3522594     418.2627     614.1639     932.5189     77.78394     155.8782     311.7564      1.417     3.65     854.0581      54.9576     81.28961         5     1.199     0.321 -79.88   0
       125    865.3078    831.7796 307.5576723  +6.3562330      1202.41     1867.667      2295.54     78.03205     155.7542     311.6324      1.694     5.08     852.5117      54.9576     178.1861        13     1.340     0.775  81.29   0
       126    520.7035    832.3552 307.7007431  +6.3444788      3228.27     4425.001     4335.743     78.15582     155.8162     311.9424      1.457     2.89     854.7406      54.9576     494.9982        18     1.068     0.934  47.92   0
       127    586.1052    830.2828 307.6736564  +6.3475230     756.1001     1043.079     815.7992      77.9081     156.2498     311.9114      1.414     5.02     855.0334      54.9576     119.9379        10     1.183     0.712  50.03   0
       128    567.5737    828.6277 307.6814066  +6.3475863     6461.948     8977.209     9748.815     77.65958     155.7542     311.6324      1.470     2.81     855.0042      54.9576      918.488        28     1.274     0.985  72.48   0
       129    574.7177    828.1379 307.6784567  +6.3480276     1272.227     1834.282     1962.666     78.27938     155.9402     311.7564      1.471     2.74      854.975      54.9576     209.1549         9     0.893     0.623  65.48   0
       130    485.3387    827.4980 307.7155904  +6.3452999     1839.619     2699.077     2537.917      77.9081     155.9402     311.8804      1.528     3.20     854.0302      54.9576     318.2919        16     1.190     0.832  89.92   0
       131    279.1382    828.6177 307.8011702  +6.3379252     732.6194     723.9694     546.2404     77.78394     155.8782     311.6324      1.180     3.45     853.9494      54.9576     119.1063         6     0.747     0.611  44.98   0
       132    903.4334    826.8266 307.5420067  +6.3595496     1513.771     2248.351     2205.434     77.65958     155.6921     311.5703      1.576     4.07       851.53      54.9576     223.3693        16     1.189     0.977  60.62   0
       133    126.9899    826.6828 307.8644077  +6.3336146     1447.019     2263.402     1809.236     77.78394       155.63     311.6324      1.527     3.43     850.6828      54.9576     232.0732        14     1.188     0.723  80.53   0
       134    538.2595    822.5613 307.6937822  +6.3491097     21284.04     29907.72     30755.97     78.15582     156.0022     311.8494      1.513     2.82     854.7186      54.9576     3260.709        47     1.432     1.107  76.70   0
       135    703.0552    824.9688 307.6252734  +6.3536273     637.0988     967.3673     844.7261     78.03205     156.0022     311.7564      1.518     5.02     854.7134      54.9576     91.53943         8     1.055     0.675  30.70   0
       136    951.9155    820.8101 307.5220759  +6.3636500     3537.959     5541.135         5938     77.78394       155.63     311.6324      1.647     3.54     850.3905      54.9576     496.3581        26     1.456     1.023  61.73   0
       137    379.1833    823.9778 307.7597863  +6.3431963     854.9507     914.6865     755.8712     77.78394     155.6921     311.6944      1.284     3.87     853.8215      54.9576     122.4122         8     0.854     0.624  50.65   0
       138    184.8648    822.1901 307.8405293  +6.3374137     671.3215     838.6805     653.7396     77.65958     155.7542     311.6634      1.335     2.96     852.2057      54.9576     154.0906         5     1.052     0.301  80.76   0
       139     71.7682    817.0904 307.8876589  +6.3357182     505.2657     796.1245     1114.734     78.27938     155.7542     311.8184      1.797     4.68      849.375      54.9576     117.0369         5     0.919     0.683 -77.51   0
       140     48.5594    812.9667 307.8974341  +6.3366400     1656.913     2209.544     1577.543      77.9081     155.8782     311.6324      1.395     3.40      849.145      54.9576     229.5085        14     1.104     0.838  46.61   0
       141    330.8369    811.2081 307.7802899  +6.3468468     3576.078     5058.765     4789.458     77.41027     155.6921     311.5083      1.432     2.77     853.5228      54.9576      596.397        23     1.213     0.931  64.78   0
       142     30.6891    809.4044 307.9049740  +6.3375096     2295.056     3345.327     3395.504     77.65958       155.63     311.5083      1.589     3.36     849.0082      54.9576     357.4796        21     1.299     0.959  76.72   0
       143    796.4133    807.1064 307.5871058  +6.3641198     57600.46     83410.43     87809.57      77.9081     155.6921     311.6324      1.530     2.90     853.6601      54.9576     8373.369        75     1.518     1.221  75.41   0
       144    734.8448    808.9774 307.6126089  +6.3612913     651.5923     1208.645     1646.892     77.65958     155.9402     311.6324      1.755     3.75     853.8225      54.9576     109.4857         5     0.818     0.492  36.14   0
       145    439.6982    805.9874 307.7352639  +6.3526514     938.8989      1295.47     1221.873      77.9081     155.6921     311.5703      1.536     5.40     853.1694      54.9576     135.0119        10     1.299     0.716  64.39   0
       146    253.1709    783.6413 307.8134658  +6.3556212     763702.9      1739413      1944719     77.78394     155.8162     311.6634      2.292     4.91      852.391      54.9576     63854.76       626     2.789     2.108  83.78   4
       147    921.7197    802.3425 307.5352320  +6.3702675     8549.616     12843.28     13459.82     78.15582     155.9402     311.7874      1.619     3.14     850.9207      54.9576     1257.781        39     1.512     1.122  78.08   2
       148    918.6229    793.7292 307.5368060  +6.3737202     6768.368     10103.28      11130.2     77.78394     155.8162     311.7564      1.621     3.00     850.8733      54.9576     953.0217        34     1.433     1.064  78.41   2
       149    724.6631    801.6854 307.6170811  +6.3639615      22760.4     33342.04     36011.61     78.27938     156.0641     311.7564      1.555     2.83     853.7528      54.9576     3390.403        54     1.517     1.174  80.20   3
       150    718.3746    798.1943 307.6198093  +6.3651927     93729.28     134555.1     142188.5     77.65958     155.7542     311.6324      1.522     2.78     853.7216      54.9576     14515.22        86     1.543     1.215  78.47   3
       151    540.7661    802.5051 307.6934145  +6.3574735     637.5829     1009.818     710.2106     78.27938     155.8162     311.8804      1.609     5.24     854.1718      54.9576     97.17859         7     0.982     0.791 -65.31   0
       152    363.2365    799.0759 307.7672449  +6.3529419     22255.22     31904.53     33965.83     78.03205     156.0022     311.8184      1.500     2.88     853.1463      54.9576     3480.706        54     1.480     1.151  73.91   0
       153    425.0747    796.9107 307.7416409  +6.3559085     23896.52     33704.46     35229.38     78.15582     156.2498     311.8804      1.480     2.81     852.8719      54.9576     3801.106        50     1.433     1.108  76.20   0
       154    412.5124    798.9711 307.7467879  +6.3546369     1622.326     2244.365     2150.185     78.27938     155.6921     311.6634      1.392     3.37      852.952      54.9576     222.9054        13     1.135     0.710  52.52   0
       155    652.3297    798.5171 307.6472231  +6.3628520     885.0767      1271.46     1513.412     78.40276     156.1879     311.8184      1.418     3.49      854.295      54.9576     185.0993         8     1.127     0.573  60.74   0
       156    962.2205    795.6274 307.5186385  +6.3743900      2060.16     3191.027     2874.151     77.65958     155.6921     311.7254      1.676     3.34     850.0466      54.9576     291.4857        20     1.281     0.955  64.58   0
       157    891.0392    794.4863 307.5482349  +6.3724876     771.0568     930.9733     775.7432     78.15582     155.9402     311.7874      1.274     4.06     851.3286      54.9576     113.2441         8     0.880     0.683 -49.93   0
       158    659.1249    792.7939 307.6445933  +6.3654419     6917.777     10014.05     10288.84     77.78394     155.4436     311.6324      1.509     2.96     854.0137      54.9576      1014.07        31     1.403     0.991  68.90   0
       159    447.8142    790.8444 307.7324026  +6.3591747     1790.089     2648.263      2433.69     77.53503     155.7542     311.5393      1.439     3.28     852.6784      54.9576     312.8396        16     1.167     0.900  82.48   0
       160    399.6690    791.9358 307.7523572  +6.3571108     590.3882     861.7937     522.6383     78.15582     156.0022     311.8184      1.443     4.29     852.7841      54.9576     99.88721         7     0.791     0.662  67.20   0
       161    173.2211    790.2950 307.8464382  +6.3501896     841.7054     1020.742     364.6461     78.03205     155.7542     311.6324      1.364     4.84     850.5645      54.9576     110.6919         9     0.928     0.723  75.01   0
       162    163.2743    783.8763 307.8507845  +6.3525053     1012.107     1416.189     1313.965     78.40276     156.1879     311.8494      1.482     5.07     849.9875      54.9576     174.0471        10     1.286     0.720  83.21   0
       163    887.1570    784.6836 307.5501749  +6.3764052     782.2949     1193.788     1534.211     78.15582     155.9402     311.7254      1.574     5.10     851.2567      54.9576     112.8104         8     0.999     0.737 -32.77   0
       164    694.3564    782.9332 307.6302941  +6.3706904     2628.693     3906.743     4142.249     78.15582     155.8782     311.8184      1.565     3.04     853.3674      54.9576     403.1556        20     1.235     0.903  67.75   0
       165    612.1537    784.6690 307.6643702  +6.3672255     820.6295     1170.601     1028.512     78.15582     155.8782     311.7874      1.480     2.22     853.4833      54.9576     145.9612         6     0.710     0.570  71.23   0
       166    138.5550    783.3842 307.8610649  +6.3518778     1220.823       1658.3     2011.432     77.65958     155.8162     311.5703      1.449     3.39     849.4813      54.9576     211.1336        13     1.037     0.892 -49.59   0
       167    428.0546    779.6100 307.7409849  +6.3631506     57002.32     81969.31     86118.42     77.53503     155.8782     311.5083      1.509     2.83     852.3236      54.9576     9050.867        76     1.490     1.214  75.60   0
       168    970.8684    781.0408 307.5155349  +6.3807002     587.3643     761.7089     852.6299     78.03205     155.8782     311.8804      1.377     4.36     849.7884      54.9576     102.8892         6     0.817     0.662  76.90   0
       169    545.7717    778.6568 307.6921364  +6.3674864     7524.055     10585.02     10853.02     77.78394     156.0022     311.6944      1.470     2.78     853.0987      54.9576     1123.555        31     1.308     1.043  78.75   0
       170     80.1510    781.2082 307.8853882  +6.3508129     460.2644     573.8134     1019.776     77.65958     155.7542     311.4462      1.447     3.87     848.6517      54.9576     77.04944         5     0.950     0.453  46.51   0
       171    791.0121    775.2480 307.5904152  +6.3770919     11987.59     17540.05     18674.18     77.53503     155.8162     311.4773      1.522     2.87     852.4167      54.9576     2003.004        42     1.417     1.114  76.86   0
       172    462.5902    777.2173 307.7267249  +6.3652954     4848.627     6735.924     7652.277      77.9081     155.6921     311.6634      1.492     2.79     852.2268      54.9576     715.7632        24     1.244     0.935  73.36   0
       173    228.7817    775.4422 307.8238687  +6.3581872     688.9634     1999.393     4562.632     77.65958     155.7542     311.5703      7.027     9.76     851.5724      54.9576     132.8022        17     2.342     1.134 -63.86   0
       174    459.1858    770.5948 307.7283610  +6.3679154     2656.051     3530.188      3799.11     77.78394       155.63     311.6324      1.392     2.99     852.0333      54.9576     415.4114        15     1.087     0.773  63.82   0
       175     20.2823    771.1830 307.9105842  +6.3529379      1263.72     1594.384     1540.175     77.78394       155.63     311.7254      1.397     3.79     848.4098      54.9576     212.0572        13     1.160     0.859  67.55   0
       176    812.8188    769.4056 307.5815555  +6.3802319     1221.177      1795.03     1984.811     77.78394     155.5679     311.6013      1.563     2.89     851.9244      54.9576     190.2452        10     0.929     0.690  87.98   0
       177    148.7513    767.2066 307.8573763  +6.3588989     12246.23     17748.69     18834.75     77.65958     155.7542     311.4152      1.525     2.87     849.1649      54.9576     1897.848        42     1.421     1.103  77.02   0
       178    980.4740    768.5936 307.5119621  +6.3861591     525.0977     1006.886     1021.207     77.78394     155.5057     311.6324      1.622     4.13     849.5882      54.9576     99.10046         6     1.002     0.485  34.37   0
       179    156.8112    767.2324 307.8540288  +6.3591591     3129.156     4789.171     5389.975     77.65958     155.6921     311.6324      1.639     3.00      849.283      54.9576     518.3953        26     1.261     1.152  77.77   0
       180    214.3992    767.9404 307.8300932  +6.3608012     566.9694     1060.157     1454.921     77.41027     155.6921     311.4773      2.059     4.99     850.7692      54.9576     82.77466         6     1.106     0.636  34.40   0
       181    140.8882    764.5929 307.8607293  +6.3597137     3198.805       4968.6     5714.941     77.65958       155.63     311.5393      1.699     3.19     848.9877      54.9576     464.8807        26     1.339     1.105  58.02   1
       182    936.5814    763.8155 307.5303488  +6.3866686     6656.755     9794.804     10102.12      77.9081     155.6921     311.6944      1.570     3.15     850.2217      54.9576     921.2674        31     1.393     1.012  65.77   0
       183    985.9323    763.7128 307.5098585  +6.3883560     1462.446     2133.259     2590.264     78.27938     156.1879     311.8184      1.625     3.60     849.4824      54.9576     229.5507        14     1.148     0.783  38.88   0
       184    691.9715    761.3680 307.6320072  +6.3795137     1782.164      2593.48     2815.341     77.65958     155.6921     311.5703      1.504     4.08     852.3625      54.9576     307.7529        18     1.368     0.881  62.12   0
       185    426.9243    760.2792 307.7421038  +6.3710931     1286.241     1928.022     1914.467     78.40276     156.1879     311.8804      1.566     3.63     851.6785      54.9576     210.6043        14     1.253     0.761  57.44   0
       186    578.8848    760.6458 307.6789908  +6.3760301     2460.787     3312.914     3253.139     78.15582     155.8782     311.7874      1.396     2.95     852.3145      54.9576     396.8131        17     1.133     0.861  75.72   0
       187    141.0670    757.9225 307.8608798  +6.3624734      2029.51     2959.674     2952.208     78.27938     156.0022     311.7564      1.530     2.89     848.7814      54.9576     325.0832        18     1.058     0.969 -78.36   0
       188    930.7128    755.6929 307.5330574  +6.3898263     3075.149     4488.458     4899.443     78.15582     156.3734     311.8804      1.568     3.03     850.2169      54.9576     460.5286        22     1.268     0.959  59.27   0
       189    991.0141    755.1176 307.5080354  +6.3920738     1863.021     2619.789     2703.856     77.78394     155.6921     311.6013      1.451     3.50     849.3973      54.9576     270.4557        19     1.310     0.863  74.10   0
       190    960.2178    755.2335 307.5208203  +6.3909996     3173.456     4862.431     4946.157     77.78394     155.7542     311.6324      1.624     3.30     849.8146      54.9576     474.6884        24     1.332     1.039  54.83   0
       191    683.0781    754.8340 307.6359193  +6.3819139     1592.984     2369.256     2815.035     78.03205     155.9402     311.7564      1.593     3.26     852.0428      54.9576     241.0466        13     1.057     0.800  72.00   0
       192    830.4922    753.3862 307.5747526  +6.3874353      1107.41     1653.835     1984.073      77.9081     155.6921     311.5703      1.718     4.62     851.2042      54.9576     160.9709        12     1.180     0.791  66.43   0
       193    444.1612    755.4044 307.7351101  +6.3736831     551.5037     773.9058     901.3417     77.28532     155.6921     311.5393      1.638     3.44     851.5172      54.9576     77.13171         5     0.765     0.448  18.95   0
       194    905.6512    750.6019 307.5436348  +6.3910924     856.7865     1300.282     1595.113     77.53503     155.5679     311.3842      1.719     4.81     850.4876      54.9576     110.8987         9     1.144     0.573  44.36   0
       195    255.4995    749.9940 307.8136314  +6.3695898     1971.078     3094.324     3819.716      77.9081     155.5679     311.5393      1.760     2.91     850.7915      54.9576     314.9662        18     1.169     0.821  71.68   0
       196    692.2618    746.6321 307.6323805  +6.3856069     699.4776     1179.601     1493.748      77.9081     156.0022     311.7254      1.830     4.21     851.7137      54.9576      132.213         8     1.062     0.577  53.50   0
       197    948.3670    745.1782 307.5260777  +6.3947558     982.3557     1297.725     1044.796     77.65958     155.7542     311.6013      1.483     3.90     849.8876      54.9576     145.5423        11     1.073     0.852  50.14   0
       198    922.2584    744.1653 307.5369536  +6.3943035     1268.375     1814.953     1448.172     78.03205     155.9402     311.7564      1.541     3.89     850.1862      54.9576     184.3685        14     1.108     0.906  56.04   0
       199    275.8457    745.4061 307.8053374  +6.3721667      637.379     1039.951     303.4403     77.65958     155.6921     311.4462      1.525     3.20     851.2366      54.9576     92.24615         5     0.736     0.451 -19.53   0
       200    171.3608    745.1349 307.8487320  +6.3687702     831.8048     1297.527     1545.255     78.15582     155.8782     311.8804      1.777     3.17     848.7482      54.9576     123.6721         7     0.816     0.618 -64.79   0
       201    975.2577    743.0807 307.5149808  +6.3965181     2458.521      3730.36     3885.976     78.15582     155.9402     311.7874      1.611     3.64     849.5651      54.9576     379.4596        20     1.241     0.991  81.44   0
       202    694.8408    742.2614 307.6314561  +6.3874975     1062.705     1826.578     2298.591     78.15582     155.9402     311.8184      1.745     4.87     851.5125      54.9576     158.6047        14     1.186     0.913  44.21   0
       203   1016.7527    736.4731 307.4979698  +6.4006287     1642.773     2359.288     1613.716     78.15582     156.0022      311.291      1.506     3.95     849.0893      54.9576     260.2672        13     1.157     0.768  61.99  16
       204    485.9615    737.4347 307.7183563  +6.3825018     534.0711     665.7239     468.6425      77.9081     155.8162     311.6013      1.451     4.42     850.9429      54.9576     102.6093         5     1.047     0.530  74.94   0
       205    415.4682    737.9147 307.7476124  +6.3799419      703.095     828.6884     813.3218     78.27938     156.1879     311.8184      1.146     3.69     850.9841      54.9576     107.8403         6     0.791     0.495 -84.47   0
       206    818.0961    734.8304 307.5805214  +6.3946822     1324.162     2043.832     2232.958     78.27938     155.6921     311.8494      1.638     3.98      850.617      54.9576      209.424        13     1.232     0.719  82.11   0
       207    643.4018    736.2186 307.6530192  +6.3882726     654.7057     857.5198     1046.912     77.78394     155.5057     311.5083      1.495     3.47      851.141      54.9576     104.6659         5     0.814     0.428  69.77   0
       208    904.3735    732.3477 307.5447760  +6.3985859     1555.374     2516.712     3000.455     77.78394     156.0641     311.6944      1.645     4.57     850.2451      54.9576     268.1466        18     1.450     0.918  58.79   0
       209    878.9902    727.8235 307.5554683  +6.3996070      966.599     1633.989     1247.902     77.78394     155.7542     311.6634      1.704     4.30      850.507      54.9576     121.1116        11     0.992     0.822 -48.75   0
       210    861.3818    723.7672 307.5629163  +6.4006941     1630.177         2247     1903.473     77.78394     155.7542     311.6634      1.535     3.94     850.6262      54.9576     245.3391        17     1.266     0.894  74.32   0
       211     60.5383    722.4894 307.8955118  +6.3743936     2636.589     3713.657     3910.242     78.15582     156.0641     311.8494      1.506     2.77     847.3181      54.9576     418.3131        17     1.064     0.927  60.00   0
       212    124.4826    721.5489 307.8689920  +6.3769318     968.2547     1920.208      2063.62     78.15582     155.9402     311.8494      2.051     5.48      847.543      54.9576      140.083        15     1.559     0.751  74.42   0
       213    577.9610    717.5932 307.6808190  +6.3937728     610.1065     913.6495     879.2589     77.41027       155.63     311.5083      1.558     2.45     850.4802      54.9576     131.9721         6     0.775     0.728  50.24   0
       214    715.6580    714.2982 307.6237485  +6.3997375     553.8275     870.3931     869.9374      77.9081     155.8782     311.9424      1.517     3.40     850.9111      54.9576     97.33887         6     0.851     0.511  45.35   0
       215    673.0859    711.0118 307.6415376  +6.3996714     6664.586     9537.379     10021.66     77.78394     155.6921     311.6324      1.459     2.86     850.3061      54.9576     1147.599        31     1.339     0.989  73.91   0
       216    620.0867    710.2866 307.6635708  +6.3981986     1503.205     2228.445     2769.815      77.9081      156.126     311.8804      1.615     2.97     850.4358      54.9576     280.0181        12     1.042     0.752 -81.35   0
       217    530.4146    710.4417 307.7008033  +6.3951339     923.5629     1352.447      1244.35     77.53503     155.7542     311.5393      1.644     4.89     849.8683      54.9576     107.0726        10     0.974     0.782   5.27   0
       218    541.4352    710.6613 307.6962194  +6.3954122     785.9514     1189.808     1582.876     78.15582     155.9402     311.7564      1.754     3.85     849.9183      54.9576     118.6213         6     0.898     0.473   0.57   0
       219   1010.1312    706.2345 307.5017299  +6.4128919      2496.59     3962.833     4118.074     78.03205     156.0022     311.8804      1.751     4.05     848.4827      54.9576     345.5931        26     1.404     1.177  68.70   0
       220    136.0308    706.8357 307.8646926  +6.3833939     4014.223     5826.436     5876.622     77.78394     155.6921     311.5703      1.499     3.06     847.1109      54.9576     553.2925        23     1.253     0.974  70.66   0
       221    646.8657    706.7882 307.6525676  +6.4005384     2381.005     3382.173     3266.415     77.65958     155.7542     311.6634      1.436     2.92     850.2675      54.9576     385.4778        15     1.165     0.729  73.96   0
       222    322.4064    707.2598 307.7872870  +6.3894768     664.9601     973.7603     1272.441     77.53503     155.8162     311.5703      2.058     5.68     849.8367      54.9576     96.17676         9     1.243     0.730  33.58   0
       223    919.9839    702.9178 307.5392775  +6.4112564     3845.927     5515.285     5118.595     77.78394       155.63     311.6634      1.506     3.08     849.5957      54.9576     630.0318        27     1.330     1.018  75.50   0
       224    789.9872    703.2101 307.5932529  +6.4067979     21378.63     30617.31     32108.16      77.9081     155.6921     311.7254      1.472     2.94     850.3776      54.9576     3523.494        49     1.438     1.124  71.67   0
       225    258.2464    706.4539 307.8139564  +6.3876565     686.3622     1014.289     1542.337     78.15582     155.9402     311.8184      1.505     2.82     848.6182      54.9576     111.3585         5     0.713     0.460  20.40   0
       226    489.0628    703.2815 307.7182155  +6.3967052     1484.918     1960.858     1819.827     78.27938     156.0022     311.7874      1.359     2.64     849.5512      54.9576     282.1396        12     0.941     0.774  40.28   0
       227    517.4553    702.8275 307.7064404  +6.3978434     911.2464     1544.839      2729.27     77.78394     156.0022     311.6324      2.078     3.89     849.5677      54.9576     135.6599         9     1.127     0.630  22.32   0
       228    334.9178    702.6483 307.7822467  +6.3918002     659.1492     894.6271     325.6994     78.15582     155.9402     311.8184      1.372     3.36     849.6987      54.9576     110.3762         7     0.869     0.579  79.85   0
       229    263.4570    696.8423 307.8121163  +6.3917993     6505.974     9087.196     9981.376     78.03205     155.8782     311.8184      1.488     2.79     848.2878      54.9576     954.5116        30     1.345     0.976  80.73   0
       230    670.4704    696.0331 307.6431259  +6.4057677     7625.596     10924.92     11790.79     78.03205     155.9402     311.8184      1.497     2.77     849.9015      54.9576     1144.175        35     1.365     1.060  81.94   0
       231    652.9012    697.0149 307.6503890  +6.4047750     1107.084     1625.235     2033.892     78.15582     155.6921     311.5393      1.658     4.36     849.9617      54.9576     168.9012        11     1.137     0.733  42.37   0
       232    365.7613    695.7069 307.7696722  +6.3957002     606.6545     780.8702     214.2343     78.27938     155.8782     311.8494      1.406     3.52     849.4307      54.9576     111.2631         5     0.856     0.443  46.36   0
       233    930.3101    688.4059 307.5354745  +6.4175919     1260.543     1978.583      2024.87     77.65958       155.63     311.5393      1.773     3.28     849.2136      54.9576     229.9006        15     1.176     0.826  72.75   0
       234     30.7529    688.9691 307.9090103  +6.3872295     583.9117     991.2661     1370.012     77.78394     155.9402     311.6944      1.670     3.76     846.0782      54.9576     101.1832         5     1.116     0.363  77.25   0
       235    742.2315    684.4976 307.6137117  +6.4129282     3950.128     5769.535     6158.565     78.27938     155.7542     311.8804      1.552     3.53     850.3182      54.9576      576.899        23     1.346     0.911  74.70   0
       236    697.3741    684.6113 307.6323363  +6.4113823     1152.769      1783.52     1767.209     77.78394     155.7542     311.6944      1.688     3.58     849.8834      54.9576     167.7255        10     1.043     0.733  68.26   0
       237   1008.5609    680.9922 307.5032254  +6.4232608     9075.683     13575.04     14247.41     77.53503     155.6921     311.4773      1.569     3.02     847.9319      54.9576     1274.455        36     1.430     1.075  66.81   0
       238    946.9061    681.2523 307.5288216  +6.4210985     2515.772     3850.365      2677.15     78.03205     155.8162     312.0353      1.552     3.28     848.8495      54.9576     359.5748        23     1.384     0.906  60.92   0
       239      7.8676    683.0427 307.9187131  +6.3889059     677.0948      972.129     658.4901     78.15582     155.8782     309.7659      1.240     3.16     845.7255      54.9576     119.0677         6     0.875     0.477  58.82   0
       240     27.4576    680.6220 307.9106603  +6.3905644     1913.326     2892.252      3405.27     77.78394     155.8782     311.6013      1.781     5.52      845.765      54.9576     292.7932        17     1.526     0.859  32.50   0
       241     85.8541    675.8875 307.8865713  +6.3944831      27315.5      38892.3     40473.92     78.15582     155.8162     311.9424      1.493     2.94     845.9772      54.9576     4211.152        51     1.425     1.129  82.12   0
       242    547.2137    676.8307 307.6949554  +6.4095720     2209.699     3207.128     3128.154     77.78394     155.6921     311.7254      1.399     2.76      848.517      54.9576     356.4438        16     1.105     0.796  67.74   0
       243    444.5269    678.2444 307.7375508  +6.4055495     618.6394     973.1105     1003.795     78.03205     156.0022     311.8184      1.486     3.35     848.5479      54.9576     109.9658         5     0.749     0.433 -66.05   0
       244    284.5083    676.4693 307.8040603  +6.4009163     561.6802     705.3476     507.1703     78.15582     156.0641     311.7874      1.389     4.92     847.7418      54.9576     86.43091         6     1.219     0.563  49.99   0
       245    937.0352    673.1533 307.5331917  +6.4241131     1194.187     1611.756     2045.748     77.78394     155.8782     311.6634      1.452     3.37     848.8644      54.9576     215.8194        12     0.967     0.874 -72.91   0
       246    515.5823    673.9285 307.7081886  +6.4097112      1447.36      1865.14     2013.511     77.65958     155.8782     311.7254      1.396     3.18     848.3616      54.9576     252.9537        13     1.009     0.875  23.38   0
       247    555.9863    670.2764 307.6915324  +6.4125715     1129.397     1763.698     1780.667     77.78394     155.6921     311.6013      1.645     4.33     848.4528      54.9576     193.2245        12     1.223     0.678  60.01   0
       248    732.0159    668.0403 307.6185054  +6.4193811     3750.707     5173.752     5468.542     77.65958     155.7542     311.5703      1.429     2.86     849.8429      54.9576     598.0193        24     1.257     0.941  52.27   0
       249    753.9103    666.3630 307.6094692  +6.4208050     4320.216     5868.622     6253.789     78.15582     155.8782     311.8184      1.411     2.77     849.8438      54.9576     716.4958        22     1.212     0.846  67.64   0
       250    585.3533    664.1636 307.6795421  +6.4160778     3711.601     4982.014     5326.667      77.9081     156.0022     311.6944      1.376     2.66     848.7616      54.9576     553.1281        19     1.095     0.881  82.29   0
       251    421.4661    664.5820 307.7475864  +6.4104169      1547.61     1850.613     2038.617     77.78394     155.8782     311.6944      1.253     2.71     848.1848      54.9576     234.5691        12     0.910     0.768  75.24   0
       252    245.8982    663.7496 307.8205217  +6.4048713     1869.244     2757.885     2409.384     78.15582     155.9402     311.9424      1.476     2.97     846.2916      54.9576     308.6268        16     1.224     0.751  56.73   0
       253    992.2326    661.3156 307.5106641  +6.4308401     8390.978     12329.25     12984.06     78.15582     155.7542     311.7254      1.570     3.02      847.639      54.9576     1217.219        34     1.410     1.079  75.44   0
       254    329.5185    663.0440 307.7858211  +6.4079688     1456.838     2080.238     2176.974     78.15582     155.9402     311.7564      1.546     3.31     847.6757      54.9576     202.7889        14     1.133     0.798  83.33   0
       255    545.8550    662.0746 307.6960150  +6.4156183     802.6454     1057.004     1065.026     78.03205     155.8782     311.7564      1.441     4.49     848.2502      54.9576     109.8188         8     0.890     0.645  45.92   0
       256    712.0065    659.9081 307.6270876  +6.4220698     952.6829      1383.01     1464.939     77.78394       155.63     311.6013      1.400     3.50     849.4163      54.9576     159.9109         7     0.901     0.500  46.81   0
       257    437.5016    655.6437 307.7412277  +6.4146443      3106.06     4615.287     4778.684     78.15582     155.8782     312.0043      1.636     2.98     847.9762      54.9576     418.2781        22     1.308     0.927  73.26   0
       258    150.6269    654.7797 307.8603860  +6.4053742     25820.98     36960.45     38874.23     77.65958     155.6921     311.6944      1.508     2.88     845.6257      54.9576     3859.819        50     1.421     1.145  83.24   0
       259    103.5710    657.7097 307.8798274  +6.4025829     1085.427     1538.617     1887.112     78.27938     155.6921     311.6944      1.702     3.59     845.8024      54.9576     165.3049        10     0.892     0.830 -29.79   0
       260    818.7966    655.3070 307.5828927  +6.4275361     1254.933     1780.044     1697.364     77.78394       155.63     311.5083      1.498     3.12     849.4739      54.9576     192.5476        12     1.092     0.676  45.71   0
       261    370.3006    650.6555 307.7693022  +6.4144510      650.358     929.4731      467.296      77.9081     155.9402     312.0663      1.466     4.77     847.4597      54.9576     92.85669         7     0.990     0.702  84.01   0
       262    987.1197    644.3339 307.5133550  +6.4376805     7028.914     10996.59     12011.39     78.27938      156.126     311.7564      1.681     3.42     847.1919      54.9576     1004.753        41     1.594     1.123  54.19   0
       263    580.6348    639.6353 307.6823247  +6.4260461     51868.67     73032.12      76741.4      77.9081     155.6921     311.5393      1.503     2.75      848.332      54.9576     7675.301        70     1.486     1.169  77.61   0
       264     31.6695    643.5320 307.9101627  +6.4060175     1318.946     1779.656     1277.616     78.15582     156.0641     311.7564      1.393     3.31     845.4906      54.9576     185.2659        13     1.101     0.792  61.71   0
       265    945.1053    641.1598 307.5309100  +6.4375904     641.2451     761.2858     152.1519     78.27938     155.8782     311.8804      1.121     2.74     847.8168      54.9576     122.6796         5     0.755     0.505 -57.75   0
       266    223.9184    640.8510 307.8304202  +6.4135864     713.5646     1102.868      1432.97     78.15582     155.9402     311.7874      1.570     3.88     845.3077      54.9576     118.2151         6     0.766     0.562  63.80   0
       267    539.7484    639.4128 307.6993117  +6.4247695     745.1325     942.8885      774.261     77.53503     155.8782     311.5393      1.241     2.49     848.0291      54.9576      156.983         6     0.828     0.468  47.54   0
       268    437.3146    637.3661 307.7419196  +6.4221836     529.8796     956.3286     857.9844     78.15582     155.8162     311.7564      1.748     4.54     847.5583      54.9576     75.38757         5     1.319     0.444  43.39   0
       269    188.1081    636.1876 307.8454480  +6.4143088     2928.798      4195.91     4326.581      77.9081     155.6921     311.5703      1.499     2.88     845.2051      54.9576     461.1407        24     1.184     1.031  76.21   0
       270    510.8609    636.2828 307.7114134  +6.4250945     740.3796     776.9899     694.8602     78.27938     155.9402     311.8184      1.207     3.18     847.7673      54.9576     136.4949         7     0.859     0.570  32.60   0
       271     80.9608    630.5352 307.8901327  +6.4130409     1618.322     2198.856     2332.178     78.15582     155.8782     311.8804      1.497     3.12     845.5417      54.9576      247.246        15     1.096     0.843  70.79   0
       272     21.2598    625.0901 307.9151077  +6.4132803     1891.085     2954.454     3545.836     78.03205     155.9402     311.8494      1.632     4.47     845.4752      54.9576     304.0518        19     1.482     0.906  73.81   0
       273    477.9141    623.4313 307.7255274  +6.4292966     68626.02      95958.4     100440.1     78.15582     155.7542     311.7254      1.486     2.78     847.2437      54.9576     10992.74        76     1.477     1.200  78.54   0
       274    663.6835    620.1718 307.6484879  +6.4368592     961.9073     1072.049     899.7045     78.15582     155.7542     311.6634      1.319     4.83     848.1173      54.9576     143.7149         9     0.953     0.694  30.21   0
       275    152.3895    618.5335 307.8608756  +6.4203966     1669.867     2338.045     2123.309     77.65958     155.8162     311.6324      1.478     3.06     844.9392      54.9576     282.5652        16     1.105     0.873  77.94   0
       276    431.4933    616.0432 307.7450537  +6.4307913     826.0465      1081.91     1097.143     78.15582     155.9402     311.9114      1.325     3.41     847.0963      54.9576     157.3422         8     1.062     0.481 -81.69   0
       277    947.8521    616.1884 307.5306042  +6.4479913       595.47     947.1254     1236.781     77.53503     155.8782     311.5083      1.578     5.07     847.0399      54.9576     98.54901         7     1.006     0.722 -32.28   0
       278    624.0062    615.1914 307.6651329  +6.4375884     931.9546     1405.208     1294.537     77.53503     155.7542     311.6324      1.537     3.13     847.9852      54.9576     159.4849        10     0.893     0.793  52.85   0
       279    505.3771    614.3750 307.7144265  +6.4339551     621.6859     860.7079     1361.772     77.65958     155.8162     311.7564      2.047     4.12     847.3608      54.9576     104.0716         6     1.079     0.449 -58.36   0
       280    332.0365    614.2752 307.7864160  +6.4281864     533.9897     955.5626     1411.341     78.03205     156.0022     311.8184      1.900     3.80     845.5152      54.9576     88.88165         5     0.814     0.508 -53.39   0
       281    323.4120    612.6224 307.7900532  +6.4285794     2246.807     3217.984     3083.108     77.78394     155.7542     311.6944      1.552     3.22     845.4647      54.9576      336.484        16     1.166     0.805  67.69   0
       282     24.6091    614.2950 307.9140811  +6.4178495     727.5567     907.6943     941.6122     77.78394     155.5679     311.5703      1.357     3.70     845.4807      54.9576     106.0826         6     0.849     0.512  48.28   0
       283    475.3249    611.2200 307.7270129  +6.4342510     931.5177     1285.126     2144.506     77.78394     155.7542     311.7254      1.680     4.15     846.9849      54.9576     153.3233         9     1.167     0.589 -83.05   0
       284     30.8979    612.6723 307.9115244  +6.4187309     574.0044     981.9596     1142.584      77.9081     156.0641     311.7874      1.603     3.44     845.4733      54.9576     98.74231         5     0.814     0.421  17.37   0
       285    749.9808    606.9480 307.6130916  +6.4452026     5642.446     7892.242     7882.759     77.65958     156.0022     311.6013      1.446     2.90     848.2795      54.9576      943.027        26     1.299     0.962  82.52   0
       286    803.4962    602.1555 307.5910266  +6.4489684     14820.71     20665.42     21512.52     78.15582     155.8782     311.9424      1.464     2.77     847.9888      54.9576     2228.311        43     1.414     1.068  77.34   0
       287   1021.1733    602.7478 307.5006018  +6.4559837     799.1594     1269.008     932.3297     77.78394     152.9362      271.239      1.685     3.18     845.4277      54.9576     125.2745         8     0.907     0.605   7.47  16
       288    545.8287    600.9109 307.6980792  +6.4408679     1141.365      2263.71     2758.459     78.27938     155.6921     311.6944      2.459     6.36     847.4751      54.9576     210.2234        16     1.980     0.689 -87.43   0
       289    627.4165    600.1823 307.6642201  +6.4438987     3090.536     4274.848     4162.961      77.9081       155.63     311.7254      1.428     2.83     847.5482      54.9576     451.7879        19     1.126     0.900  77.01   0
       290     48.5523    601.1202 307.9045829  +6.4240938     634.9811     1134.655      1617.97     78.15582     156.0022     311.7564      2.032     5.42     845.3742      54.9576     91.03003         6     1.036     0.800  42.69   0
       291    944.5414    596.0463 307.5326527  +6.4561965     1081.505     1603.577     2373.628     78.15582     155.9402     311.9114      1.534     2.64     846.5407      54.9576     178.2462         8     0.781     0.656  25.35   0
       292    240.0203    594.0555 307.8253093  +6.4334454     1347.238     1975.038     2444.123     77.65958     155.9402     311.6013      1.527     4.14     844.4432      54.9576     208.6763        14     1.246     0.822  88.67   0
       293    385.8019    593.7476 307.7647784  +6.4384640     1097.837     1391.748     1510.848     77.53503     155.6921     311.3842      1.329     4.45     845.4299      54.9576     170.8918        13     1.293     0.732  40.31   0
       294    203.0460    594.3185 307.8406551  +6.4320951      667.285     965.4551     1041.032     78.15582     155.9402     311.8184      1.705     4.26     844.3721      54.9576     87.00751         7     1.237     0.419  56.79   0
       295    879.6420    585.4366 307.5599617  +6.4584120     3074.795     4317.005     4471.555      77.9081     155.9402     311.6634      1.461     2.75     846.6587      54.9576     445.4698        25     1.379     0.939  77.95   0
       296    174.8833    585.4968 307.8526478  +6.4347908     860.3943     1428.366     1747.427     78.15582     156.3116     311.8494      1.968     4.81     844.2472      54.9576     144.2294         9     1.264     0.596  75.40   0
       297    838.3670    582.9283 307.5771880  +6.4580702     2568.571      3605.67     3705.431     78.03205     155.9402     311.7874      1.465     3.00     846.8369      54.9576     384.6984        19     1.233     0.841  74.64   0
       298    818.8808    574.0906 307.5855769  +6.4610683     168026.5     236679.6     250096.7      77.9081     156.1879     311.8184      1.474     2.86      846.561      54.9576     28278.98       133     1.626     1.255  78.98   0
       299    809.2194    578.6511 307.5894367  +6.4588630     2859.334     4415.133      5483.26     77.65958     156.0022     311.6013      1.695     3.37     846.8322      54.9576     431.5985        28     1.402     1.114 -82.54   0
       300    266.2837    577.7895 307.8149502  +6.4410421     8212.128     11486.86     11284.54     77.78394     155.6921     311.6324      1.441     2.83     844.1121      54.9576     1248.597        32     1.343     0.990  72.27   0
       301    751.7869    579.1393 307.6132732  +6.4567434     795.1033     1186.676     1747.237     77.65958     155.7542     311.4773      2.652     4.56     847.1375      54.9576     131.3394         8     1.022     0.658  55.33   0
       302    200.4646    572.4025 307.8424654  +6.4410558     63548.75     90540.56     96493.03     77.53503     155.7542     311.5703      1.542     2.84       843.97      54.9576     9393.209        83     1.539     1.250  86.82   0
       303    124.4851    568.6325 307.8741456  +6.4400589     6693.009     9513.338     9897.884     78.15582     155.7542     311.7254      1.529     2.86     844.1735      54.9576     932.2711        32     1.319     1.104  85.00   0
       304    989.8613    565.7715 307.5148423  +6.4702058     1385.679     1850.774     1380.181     77.78394     155.9402     311.7254      1.425     3.13     845.3988      54.9576     233.7991        14     1.051     0.877  61.19   0
       305   1010.5262    564.9899 307.5062856  +6.4712171      817.715     1112.114     312.2443     77.65958     155.5679     311.6634      1.378     3.40     845.2355      54.9576     122.9418         6     0.785     0.499 -89.39   0
       306    855.4325    561.4760 307.5708183  +6.4674962     4876.495     6793.954     7294.976     78.03205     155.9402     311.7254      1.488     2.76     846.0052      54.9576     751.9442        27     1.287     0.992  80.03   0
       307    238.9251    563.6716 307.8267873  +6.4459518     917.5042     1321.669     1751.271     78.40276      156.126     311.7874      1.533     3.42     843.7281      54.9576     163.8024        10     1.007     0.765  77.99   0
       308    373.9141    559.5062 307.7708669  +6.4522012     18501.09     26042.73     27401.72     78.15582     156.3734     311.8804      1.498     2.81     843.6702      54.9576      2838.63        45     1.418     1.084  81.10   0
       309    464.1584    559.3890 307.7333918  +6.4552744     712.8685     758.0081     1109.044     77.53503     155.7542     311.5393      1.142     2.44     845.0146      54.9576     127.0678         5     0.703     0.460  17.63   0
       310    175.7865    558.4454 307.8531842  +6.4459885      2042.81     2729.625     3525.847     77.53503     155.7542     311.5703      1.441     2.93     843.7896      54.9576     276.5817        15     0.996     0.884  52.14   0
       311    540.2438    554.3772 307.7019610  +6.4598916     6943.803     10049.24     10214.57     77.65958     155.8162     311.6013      1.507     2.63     845.2916      54.9576     1141.063        34     1.408     1.049  83.39   0
       312    809.3205    554.7487 307.5901952  +6.4687343     6303.756     8854.509     9544.201     78.15582     156.0022     311.7874      1.464     2.85     845.7015      54.9576     956.2114        28     1.330     0.987  80.25   0
       313    113.1511    555.5575 307.8792933  +6.4450755     1151.847     1550.866     1518.676     78.15582     155.8782     311.7254      1.495     5.23     843.9111      54.9576     147.6367        12     1.136     0.736 -76.48   0
       314    250.9686    555.9555 307.8220456  +6.4495416     956.9633     1263.137     1378.757     77.78394     156.0022     311.6634      1.409     3.28     843.4941      54.9576     137.3919         9     0.825     0.727  72.52   0
       315    180.9549    555.5512 307.8511354  +6.4473569     693.1558     1031.224     1641.216     78.15582     155.8162     311.7874      1.538     4.37     843.7391      54.9576       90.737         7     0.940     0.614  57.71   0
       316    398.4207    550.9601 307.7609765  +6.4565509     1638.729     2381.689     2794.981     77.78394     155.7542     311.5393      1.557     3.55     843.4987      54.9576     237.0992        13     0.961     0.959 -33.05   0
       317    187.2375    547.5709 307.8487952  +6.4508625     7169.935     10113.34     10579.17     77.78394     155.6921     311.6634      1.517     2.85     843.5782      54.9576      1064.64        30     1.355     0.963  82.69   0
       318    584.9415    547.3364 307.6836336  +6.4642944     2401.708     3792.252     3275.757     78.27938     155.8782     311.8184      1.683     3.52     845.5861      54.9576     349.2239        22     1.222     1.098 -21.09   0
       319     58.9390    546.2561 307.9021205  +6.4470921     5295.535     7738.953     8475.842     78.27938     155.9402     311.8184      1.567     3.22      844.673      54.9576     803.2889        33     1.440     1.074  68.82   0
       320    825.9343    547.0200 307.5835537  +6.4724796     1491.714     2124.737     2486.704     77.78394     155.9402     311.6634      1.461     3.06     845.4059      54.9576     241.6537        12     0.970     0.798  32.18   0
       321    282.4697    543.9993 307.8093657  +6.4555349     90785.07     131170.9     138301.2     77.65958     155.5057     311.6013      1.536     2.93     842.9562      54.9576     12637.08        92     1.562     1.219  79.65   0
       322    868.7178    547.4010 307.5657716  +6.4737502     634.3194     840.6583     1403.135     77.41028     155.5057     311.5083      1.211     3.43     845.5709      54.9576      104.791         5     0.750     0.455 -17.89   0
       323    571.8060    541.4263 307.6892875  +6.4662947     872.7178     1290.457     1851.492     77.65958     155.7542     311.6013      1.732     5.00     845.1635      54.9576     112.6062        10     1.031     0.685  85.96   0
       324    266.1816    539.1831 307.8162923  +6.4569764      1496.51      2559.08     3039.431      77.9081     155.6921     311.7254      1.915     4.09     842.8591      54.9576     239.5656        15     1.375     0.695  70.23   0
       325    981.9936    537.6524 307.5190500  +6.4815524     1622.634     2355.636     2561.209     77.65958     155.7542     311.4773      1.541     3.36     844.7259      54.9576     300.8537        14     1.194     0.737  69.24   0
       326    805.6464    536.4487 307.5923340  +6.4761665     17327.14     24029.86     25593.33     78.15582     155.8162     311.8184      1.476     2.73     845.0629      54.9576     2493.954        43     1.401     1.048  75.32   0
       327    509.2614    534.8469 307.7154844  +6.4669169     42351.56      65868.3     70237.58     78.03205     155.8162     311.8494      1.671     3.10     844.5615      54.9576     5992.948        75     1.556     1.385  68.09   0
       328    659.6521    532.8448 307.6530908  +6.4727761     996.4288     1420.293     1511.444     78.15582     155.8782     311.7874      1.560     3.60     844.8551      54.9576     154.9083        12     1.069     0.810 -86.31   0
       329    221.6565    531.2731 307.8350501  +6.4587467     2026.539     2998.355      3202.93     78.03205     155.8782     311.7564      1.546     3.34     842.7609      54.9576     315.0923        17     1.304     0.841 -85.93   0
       330     57.4197    531.5918 307.9032462  +6.4530946     1363.766     2025.644     2040.224      77.9081     155.6921     311.5703      1.684     3.65     844.5542      54.9576     221.8694        15     1.118     0.963  82.07   0
       331    669.2027    529.7941 307.6492264  +6.4743549     3030.838     4489.945     4764.112     77.53503       155.63     311.6634      1.550     2.91     844.6665      54.9576     510.4592        21     1.290     0.959  67.02   0
       332    107.5068    530.7256 307.8824747  +6.4551367     574.3242     715.6711     690.9624     78.15582     156.0641     311.7564      1.395     3.41     843.3836      54.9576     107.6185         5     0.752     0.448  68.38   0
       333    679.2902    529.8329 307.6450355  +6.4746762     1467.099     2062.798     2127.217     78.27938     155.8162     311.7874      1.388     2.89     844.7128      54.9576     245.8627        12     0.988     0.774  35.18   0
       334    731.3889    528.5272 307.6234410  +6.4769565     1251.007     1881.006     1846.027     77.65958     155.5679     311.6634      1.661     3.20     845.3973      54.9576     215.9402        13     1.014     0.873  41.95   0
       335     88.3902    527.4072 307.8905256  +6.4558638     708.9344     1115.864     815.1833     77.65958     155.7542     311.6634      1.749     5.72     843.6517      54.9576     104.4518        10     1.323     0.697  79.60   2
       336    406.8476    525.4839 307.7583333  +6.4673508     1799.749         2378     2596.484     78.15582     155.9402     311.8184      1.407     3.16     842.9528      54.9576     285.7031        16     1.159     0.836  68.03   0
       337    338.3635    523.7466 307.7868342  +6.4657713     4152.606     5761.899     6284.989     78.03205     155.9402     311.8184      1.457     2.76     842.5186      54.9576     637.9979        20     1.213     0.873  70.84   0
       338    153.5502    522.3915 307.8636340  +6.4601250     26968.82     39089.84     41268.29     77.65958     155.7542     311.4773      1.568     2.98      842.681      54.9576     3622.729        57     1.458     1.199  78.72   0
       339    881.4483    522.4499 307.5613192  +6.4844758     1617.353     2198.234     2102.306     78.15582     155.8162     311.7564      1.432     3.40     844.8475      54.9576     253.0152        14     1.137     0.755  67.72   0
       340    518.4008    523.0076 307.7120863  +6.4721106     2087.263     3224.863     2879.107     77.53503       155.63     311.6013      1.577     3.18     844.1866      54.9576     325.4186        20     1.197     0.948  83.03   0
       341    118.6600    520.6238 307.8781834  +6.4596820     2885.326     4171.715     4178.349     77.78394     155.8782     311.6634      1.556     2.95     843.0605      54.9576     425.0964        23     1.326     0.937  89.27   0
       342    979.1534    516.9995 307.5209202  +6.4899842     5281.254     7626.389     7667.023     77.53503       155.63     311.3531      1.468     2.89     843.6552      54.9576     836.9638        29     1.315     1.007  67.08   0
       343    355.7357    518.7599 307.7797870  +6.4684127     1070.015     1527.059     1781.713     78.15582     155.8782     311.8494      1.275     3.16     842.5948      54.9576     167.2639         9     0.927     0.691  41.13   0
       344    552.3255    509.5402 307.6984487  +6.4788063     1676.362     2344.137     2513.286     78.40276     155.9402     311.7564      1.526     3.14     843.8912      54.9576     240.9092        16     1.113     0.894  55.54   0
       345     17.8316    506.7460 307.9205252  +6.4620193     26349.34     38455.09     41297.82     78.03205     156.0022     311.7254      1.563     2.98     845.3328      54.9576     3884.397        60     1.487     1.210  81.49   0
       346    450.5789    503.5292 307.7409088  +6.4778800     45577.56     64302.76     67407.06     77.78394     155.8162     311.7564      1.521     2.82     843.0948      54.9576     6375.204        68     1.498     1.170  76.68   0
       347      1.5198    501.0734 307.9274909  +6.4638120     105070.9     132824.3     138283.9     70.61998      127.046      237.661      1.218     3.24     845.7164      54.9576     25767.89        62     1.535     0.844  89.77  24
       348    658.6307    503.2133 307.6545088  +6.4849749     13095.09     18368.47     19426.81     77.65958     155.6921     311.7254      1.478     2.84      843.784      54.9576     1989.366        39     1.386     1.030  72.97   0
       349    427.0217    506.4121 307.7505958  +6.4759004     461.1569     694.6298      817.885     77.78394     155.6921     311.6944      1.447     4.16     842.8298      54.9576     74.37091         5     0.776     0.635  86.29   0
       350    215.7530    501.1636 307.8385161  +6.4709783     19770.82     30500.42      32623.2      77.9081     156.0022     311.7254      1.642     3.18     841.4489      54.9576     2919.415        53     1.527     1.222  67.78   0
       351    298.5167    503.9156 307.8040505  +6.4726210     956.6354     1356.861      1923.36      77.9081      156.126     311.8494      1.682     3.83     841.5568      54.9576     139.4171         9     1.107     0.636  51.12   0
       352    181.4613    502.1236 307.8527254  +6.4694300     1752.492     2215.843     2184.052     78.40276     155.9402     311.7874      1.356     3.57     841.6276      54.9576     238.5886        14     1.119     0.822  80.17   0
       353    992.5615    501.6995 307.5158626  +6.4967475     1128.369     1583.905     1533.911     78.15582     155.8162     312.0043      1.488     4.51     842.6351      54.9576     175.5076        11     1.080     0.747  76.13   0
       354    832.6232    501.0298 307.5823154  +6.4916895     917.8911     1170.464      721.946     77.65958     155.8162     311.6324      1.239     3.35     844.4825      54.9576     187.9768         9     1.001     0.693  72.98   0
       355    580.3132    499.9696 307.6871457  +6.4836941      2871.56      4132.24     4127.192     78.27938     155.6921     311.6944      1.505     3.20     843.7061      54.9576     458.6476        20     1.193     0.942  76.70   0
       356    921.1624    500.9552 307.5455433  +6.4946745     704.0889     973.7681     890.2978      77.9081     155.9402     311.6944      1.316     2.97     843.8219      54.9576     141.9728         6     0.891     0.451  54.94   0
       357    954.2029    497.0529 307.5319503  +6.4973872     4964.403     7094.258     7348.413     77.53503     155.7542     311.3842      1.456     2.84     843.1082      54.9576     795.8137        29     1.316     1.005  75.34   0
       358    627.4576    495.6049 307.6677114  +6.4870734     6939.314     9717.496     9747.935     77.53503     155.8162     311.5083      1.470     2.76     843.6133      54.9576     1068.042        31     1.312     0.993  77.77   0
       359    114.7813    495.8609 307.8806292  +6.4697742     1153.335     1743.396     1931.985     77.78394     155.8782     311.6324      1.583     4.38     842.5467      54.9576     209.1127        12     1.348     0.608  55.24   0
       360    539.6190    486.7667 307.7044908  +6.4877825     7705.235      11201.9     11653.41     77.65958     155.7542     311.6013      1.525     2.83     843.1344      54.9576     1120.955        35     1.365     1.056  81.79   0
       361    385.4933    487.0296 307.7684953  +6.4825098     2697.059     3823.999     4544.777     78.27938     155.6921     311.6944      1.493     3.03     842.3181      54.9576     395.0969        20     1.276     0.915  70.85   0
       362    755.3973    486.8875 307.6148648  +6.4949491     626.6914     709.0065     654.7533     77.53503     155.5679     311.5393      1.159     4.43     844.2948      54.9576     104.9896         7     1.067     0.533  61.84   0
       363    976.8995    489.4226 307.5227783  +6.5012939     3563.632     5135.942     5373.629     78.27938     155.6921     311.5703      1.543     3.35     842.2549      54.9576     539.0804        22     1.322     0.886  72.49   0
       364   1007.6369    484.9717 307.5101601  +6.5041559     537.6461     716.7999     541.7048     77.65958     155.6921     311.6013      1.400     4.42      841.313      54.9576     88.24921         6     0.832     0.669 -61.78   0
       365    896.0862    482.5044 307.5565760  +6.5014553     3378.768     4780.274     5353.175     78.15582     156.3116     311.8494      1.475     2.66     843.6123      54.9576       550.09        22     1.331     0.841  75.72   0
       366    415.3794    488.2155 307.7560429  +6.4830222     667.1089     870.0012      1246.86     77.78394     155.6921     311.6944      1.532     3.44     842.3969      54.9576     129.7564         7     1.020     0.688  50.78   0
       367    244.3817    481.5927 307.8272853  +6.4800191     673.5812     901.1497     638.7764     77.78394       155.63     311.6324      1.371     3.43     840.5674      54.9576     120.5616         5     0.981     0.347  68.26   0
       368    903.5237    477.1595 307.5536656  +6.5039100     2235.856     3193.056     3602.653     78.03205     155.9402     311.8184      1.457     2.62     843.3047      54.9576     370.7394        18     1.130     0.902  86.11   0
       369    942.9371    476.3578 307.5373218  +6.5055554     1271.542     1800.843     1536.879     78.15582     155.8782     311.8494      1.427     3.04     842.5818      54.9576     199.6119        11     1.007     0.709  53.15   0
       370    122.4359    476.0203 307.8781192  +6.4782221     857.3898     1104.551     1167.905     77.65958     155.7542     311.5703      1.334     4.48     841.8605      54.9576     116.3058         8     1.022     0.592  68.52   0
       371    727.4404    473.0939 307.6269389  +6.4997095     3317.377     4705.557     4711.679     78.27938     155.8782     311.8804      1.460     2.85     843.6412      54.9576     475.0969        24     1.348     0.930  85.64   0
       372    753.9700    473.5596 307.6159042  +6.5004036     565.5465     666.6299     377.5144     77.65958     155.6921     311.6634      1.231     3.90     843.8642      54.9576     102.6885         5     1.051     0.414  64.33   0
       373    438.6950    471.5070 307.7469209  +6.4907015     1072.667     1236.176     1493.323     78.15582      156.497     311.7254      1.350     4.31     841.8115      54.9576     150.7827        12     1.157     0.801 -67.72   0
       374    398.3617    471.2316 307.7636820  +6.4894631     3852.121     5398.119     5442.745     77.78394     155.6921     311.6013      1.469     2.84     841.5482      54.9576     557.0099        22     1.197     0.909  75.44   0
       375     89.1545    471.8752 307.8920812  +6.4788141     1892.102     2977.485     3318.667     78.03205     156.0022     311.8184      1.727     3.86     842.6546      54.9576      251.244        19     1.297     0.939  74.79   0
       376    626.0981    467.8136 307.6692085  +6.4985011     10599.71     15136.34     16113.36     78.03205     155.6921     311.5393      1.483     2.82     842.4208      54.9576     1718.671        38     1.380     1.067  79.29   0
       377    788.7991    464.3527 307.6017462  +6.5053680     17379.27     24424.19     25946.66     77.53503     155.5679     311.3531      1.473     2.74     843.4833      54.9576     2736.647        48     1.461     1.077  74.92   2
       378    792.9779    459.4520 307.6001747  +6.5075308     1490.639     1984.677     2667.567     77.65958     155.9402     311.6013      1.534     3.59     843.2915      54.9576     221.8313        14     1.108     0.908 -87.65   3
       379    308.5459    464.5691 307.8012095  +6.4892008     2979.402     3958.063     3130.566     78.03205     156.0022     311.7254      1.402     3.00     840.1976      54.9576      428.548        19     1.199     0.855  64.52   0
       380    432.3640    464.3405 307.7497913  +6.4934478     763.0409     977.5967     678.6263     78.15582     155.9402     311.7564      1.388     3.76     841.2086      54.9576     132.2305         7     0.922     0.577  36.97   0
       381    817.8809    461.4085 307.5897654  +6.5075546     1349.892     1896.554     1760.332     77.78394     155.5679     311.6324      1.481     3.24     843.3386      54.9576     213.5279        13     1.072     0.791  68.26   0
       382    391.6405    460.9809 307.7668183  +6.4934695     1648.188     2340.067     2922.914     77.78394     155.7542     311.5083      1.475     3.46     840.8301      54.9576     227.8401        13     1.067     0.806  51.99   0
       383    973.9870    459.2292 307.5249976  +6.5136620     1945.839     2775.375     3268.422     77.65958     155.6921     311.6944      1.499     2.75     841.5417      54.9576     339.7849        17     1.055     0.932  81.11   0
       384    722.2303    458.4894 307.6295925  +6.5055647      707.941     795.4562     888.2694     78.27938     155.7542     311.7254      1.251     4.57     842.9431      54.9576     105.8293         6     0.967     0.614  77.50   0
       385    126.1128    456.2990 307.8772571  +6.4864870     4632.126     6862.117     7820.939     78.15582     156.3734     311.8494      1.597     3.24     841.2656      54.9576     685.8851        28     1.352     1.027  73.62   0
       386    380.0031    457.6207 307.7717647  +6.4944665     816.4166     1330.375     1703.194     77.78394       155.63     311.5703      1.816     4.00     840.5997      54.9576     123.2424        10     0.996     0.874 -22.88   0
       387    764.3998    455.1995 307.6121873  +6.5083318     2549.377     3717.146     3521.698     77.53503     155.5057     311.4773      1.464     2.96     843.1052      54.9576     399.1295        22     1.316     0.949  80.62   0
       388    284.0587    453.2259 307.8117616  +6.4930617     1454.096     2002.755     2291.154     77.78394     155.9402     311.6324      1.463     2.98     839.2999      54.9576     235.8805        16     1.036     0.960  32.28   0
       389    362.2742    451.0522 307.7793491  +6.4965835     3366.786     4925.592      4703.33     78.15582     156.0022     311.8184      1.514     3.03     840.0773      54.9576       494.24        24     1.322     0.929  61.48   0
       390    718.1358    448.5948 307.6316249  +6.5095127     1738.567     2521.501     3203.677     77.53503     155.6921     311.5703      1.587     3.37     842.5101      54.9576     274.3764        15     1.185     0.832  59.79   0
       391    991.7745    447.4850 307.5180019  +6.5191033     811.4519     984.0545      1054.09     78.27938     155.6921     311.6634      1.257     3.53     841.0325      54.9576     130.5984         9     0.961     0.688  33.21   0
       392    250.4351    446.7437 307.8259449  +6.4946089     855.6658     1307.242     1414.432     78.03205     155.9402     311.8184      1.553     4.19     839.2896      54.9576     137.2134        10     1.202     0.736  81.11   0
       393    559.5585    441.1646 307.6977402  +6.5072761     966.4821     1453.313     1616.096      77.9081     155.9402     311.6324      1.583     3.44     841.0989      54.9576      146.571        10     1.078     0.638  65.00   0
       394    481.7114    439.7337 307.7301222  +6.5052598     1334.854     1827.823     2080.953     78.15582      156.126     311.7564      1.448     3.71     840.1566      54.9576     211.4092        15     1.209     0.864 -84.29   0
       395    829.8087    437.7758 307.5856025  +6.5177093     2012.129     2573.729      2335.21     77.78394     155.7542     311.6324      1.382     2.70     842.4185      54.9576     338.3102        16     1.151     0.841  83.29   0
       396    844.3961    438.6660 307.5795135  +6.5178287     1491.972     2043.898     2406.854     77.53503     155.6921     311.5393      1.498     2.61      842.424      54.9576     228.2197        12     0.875     0.816 -81.20   0
       397    727.2480    436.0300 307.6282612  +6.5150044     16012.46     22189.03        23423     77.78394     156.0022     311.6944      1.436     2.79     842.1308      54.9576      2559.96        40     1.392     1.017  77.80   0
       398    648.4314    432.0178 307.6611332  +6.5140258     2554.217     3596.988     4219.913     77.78394     155.7542     311.6634      1.478     2.61     840.9736      54.9576     443.1685        18     1.068     0.884  65.69   0
       399    623.4803    428.5595 307.6716129  +6.5146189      5911.81     8511.754     8463.199     78.15582     155.9402     311.7254      1.532     3.31     840.7239      54.9576     833.2196        22     1.248     0.923  72.40   3
       400    619.7737    426.4943 307.6732219  +6.5153475     15674.67      22478.6     23460.28     78.27938     155.6921     311.6324      1.549     2.83     840.5777      54.9576     2292.837        42     1.561     1.060  70.36   3
       401    629.3945    437.3338 307.6688620  +6.5111944     758.4564     1126.331     983.5268     77.65958       155.63     311.6013      1.411     5.25      841.097      54.9576     116.1064         9     1.093     0.713  67.65   0
       402    952.5976    425.8636 307.5349980  +6.5267236     4112.329     5761.428     5904.157     77.53503     155.7542     311.5703      1.463     2.84     841.2083      54.9576     602.3387        23     1.255     0.915  74.85   0
       403    391.6769    421.9341 307.7681164  +6.5095903     30586.24     43888.32     45995.01     78.27938     156.0022     311.7564      1.528     3.01     838.0643      54.9576     4420.716        57     1.485     1.144  79.94   0
       404    907.3993    420.4798 307.5539524  +6.5274389     1361.544     2767.106     3566.395     77.41028     155.3192     311.5393      2.576     7.58     841.4197      54.9576     279.1034        25     2.443     0.777  45.76   0
       405    429.0117    423.2331 307.7525657  +6.5103058     641.8893     981.1981     545.6558     77.65958     155.6921     311.6324      1.417     3.07     838.3428      54.9576      116.795         6     0.890     0.442 -36.76   0
       406    137.7759    421.4485 307.8735882  +6.5012660     2388.978     3205.134     3375.153     77.78394     155.9402     311.6944      1.424     2.90     840.3887      54.9576     404.3594        16     1.135     0.834  62.60   0
       407    921.3386    416.3573 307.5483003  +6.5296058     5339.837     7471.867     7336.752     78.15582     155.9402     311.8804      1.443     2.61     841.2302      54.9576     859.2974        28     1.285     0.968  75.12   0
       408    603.2201    417.5199 307.6803988  +6.5184986      693.431     953.6363     791.4042      77.9081       155.63     311.7874      1.347     3.78     840.1443      54.9576     134.5284         6     1.083     0.475 -47.69   0
       409     71.0988    416.8636 307.9014359  +6.5009164     1483.187     2167.559     1959.579     78.03205     156.0022     311.8184      1.538     3.07     840.8144      54.9576     230.0665        13     1.065     0.761  76.51   0
       410    249.1603    412.5093 307.8276274  +6.5086988     14594.15     21137.04     22428.71     78.15582     155.8782     311.8184      1.573     2.98     838.0793      54.9576     2211.653        44     1.451     1.124  80.41   0
       411    977.6077    414.1808 307.5249999  +6.5323805      532.736     696.9973     209.5158     77.78394       155.63     311.6324      1.327     4.18     840.7059      54.9576     111.2955         5     0.885     0.573  42.60   0
       412    744.2795    406.1195 307.6221894  +6.5279217     730.4481     856.6216     1178.612     78.40276     156.1879     311.9424      1.351     3.79     841.2104      54.9576     129.0872         6     1.027     0.401 -77.74   0
       413     84.4911    406.6042 307.8962198  +6.5056022     775.8836     1159.562     1329.669     77.78394       155.63     311.5393      1.597     3.69     840.2871      54.9576     129.7903         7     0.842     0.701 -76.63   0
       414    972.5582    404.4753 307.5274220  +6.5362190     1041.958     1210.005      798.978     78.03205     155.9402     311.8184      1.241     4.01     840.5098      54.9576     181.0652        10     1.255     0.535  49.68   0
       415    712.0703    405.1935 307.6355993  +6.5272276     747.0173      1065.76     1303.401     77.65958     155.5679     311.6634      1.635     4.22     840.8137      54.9576     131.6896         7     1.094     0.519  41.99   0
       416    362.0959    402.1686 307.7810678  +6.5167580     1516.051     2019.877     2272.327     78.27938     155.7542     311.8804      1.399     3.13      836.832      54.9576     218.4702        12     1.039     0.707  84.65   0
       417    195.0264    402.1346 307.8504610  +6.5111633     757.1141     1156.613     857.8149     77.78394     155.8782     311.6944      1.539     3.78     838.8927      54.9576     162.3287         8     1.239     0.606  84.73   0
       418    149.4453    401.0224 307.8694302  +6.5100906     5457.998     7719.324     8137.776     77.78394     155.9402     311.6324      1.493     3.00     839.7643      54.9576     744.8407        25     1.241     0.987  75.64   0
       419    254.1707    399.7726 307.8259753  +6.5141250     1283.675     2035.798     2032.319     77.65958     155.7542     311.6013      1.674     3.92     837.5582      54.9576     184.9924        15     1.248     0.825  62.28   0
       420    447.0460    399.6442 307.7458680  +6.5206484     805.6479      1048.99     1505.224     78.15582     155.9402     311.7254      1.508     3.50     837.1047      54.9576     147.0604         7     0.959     0.566  56.45   0
       421    171.6290    396.7888 307.8603591  +6.5125839     2540.876      4093.04     4169.731     77.65958     155.7542     311.6324      1.726     3.68     839.3304      54.9576     314.2773        23     1.322     1.027  79.45   0
       422    835.5757    397.1928 307.5845660  +6.5346560     872.1432     1223.739     1530.203     77.65958     155.8162     311.6324      1.424     3.16      841.071      54.9576     156.0954         6     0.760     0.598  47.04   0
       423    567.2639    396.1075 307.6960526  +6.5261350     1048.212     1408.888     1039.649     78.15582      156.126     311.8494      1.286     2.91     839.1332      54.9576     197.6904         8     0.883     0.592 -88.15   0
       424    394.9674    391.5395 307.7677719  +6.5222484     2221.009     3092.637     2839.854      77.9081     156.0022     311.7254      1.463     3.54     836.2885      54.9576     337.2786        18     1.242     0.893  46.61   0
       425    283.1617    391.9308 307.8141979  +6.5183356     864.7708     1260.719     837.8951     78.03205     155.9402     311.9114      1.347     3.79     836.7503      54.9576     140.4695         8     0.873     0.599  54.82   0
       426     13.7886    391.8495 307.9260828  +6.5093141     760.0838     1097.824     593.0325     77.53503     155.8782     311.4773      1.430     3.81     841.4236      54.9576     117.6248         7     0.901     0.659  81.06   0
       427    983.6077    390.5697 307.5232972  +6.5423282     999.3922      1430.87     1571.941     77.65958     155.7542     311.5703      1.585     3.36     840.1384      54.9576     165.8391        11     1.037     0.777  65.62   0
       428    328.8659    389.1957 307.7953066  +6.5209987      692.684     1132.401     1746.466     77.53503     155.6921     311.5393      1.651     4.78     836.2599      54.9576     99.37134         7     0.948     0.684  39.72   0
       429    602.2221    388.1360 307.6817995  +6.5305958     537.9859       719.91     515.5473     77.78394     155.9402     311.6634      1.375     3.11     838.9113      54.9576     113.8045         5     0.715     0.690 -88.32   0
       430    448.8170    385.2323 307.7456169  +6.5266573     7700.788     11228.46     11787.78     77.78394     155.7542     311.6634      1.546     2.89     836.1537      54.9576     1167.687        33     1.378     1.051  74.90   0
       431     45.2568    385.7950 307.9132173  +6.5128726     3247.712     5222.112     5854.607     77.53503     155.8162     311.5083      1.748     3.66     840.5872      54.9576     537.8351        28     1.579     1.102 -45.27   0
       432    789.4354    382.5798 307.6042214  +6.5391482     13794.95     19022.61     19480.48     77.65958     155.7542     311.6013      1.460     2.67     840.7083      54.9576     2150.576        38     1.348     1.041  74.86   0
       433    209.2174    385.0631 307.8451421  +6.5186875     487.1252     524.9988      158.853     77.78394     155.8782     311.6324      1.381     4.38     838.0103      54.9576     71.30035         5     1.421     0.384  83.71   0
       434    781.4920    384.1078 307.6074697  +6.5382520     2042.777     2927.333     3731.576     78.15582     156.4352     311.8184      1.508     3.56     840.7067      54.9576     327.8761        18     1.285     0.813  52.61   0
       435    353.0474    380.9990 307.7855384  +6.5251938     1114.495     1658.568      1718.98     77.53503     155.5679     311.3531      1.391     3.14      835.662      54.9576     176.4963        10     1.003     0.647  77.53   0
       436      3.0328    372.1317 307.9312158  +6.5170918     1048.352     2271.081     3326.323     78.03205     145.8853     260.6265      3.207     7.99     841.4399      54.9576     126.3593        21     1.760     1.013 -56.83  24
       437    197.8202    373.3228 307.8502716  +6.5231512     865.5554     1162.441     1081.193     77.78394     155.6921     311.7564      1.511     3.70     837.9131      54.9576     141.7977         8     0.887     0.677   7.22   0
       438    914.2271    372.4294 307.5527241  +6.5475038     494.1998     777.8954     859.9235     77.65958     155.7542     311.6013      1.604     3.48     839.9891      54.9576      91.0246         5     0.811     0.431  20.81   0
       439    469.2654    369.3468 307.7376572  +6.5339006     2388.498     3424.145     3457.137     78.15582     155.8782     311.7564      1.489     2.86     835.2077      54.9576     420.5222        22     1.335     0.894  79.20   0
       440    854.8025    365.5287 307.5776397  +6.5483699     34966.69     50753.45     53710.17     77.65958     155.5679     311.6324      1.564     3.10     840.2614      54.9576     5203.842        64     1.566     1.146  82.48   0
       441    496.9129    368.8112 307.7261912  +6.5350480     3249.614     4604.023     4413.819     77.78394     155.6921     311.6324      1.443     3.10     835.9376      54.9576     521.7079        20     1.217     0.873  62.21   0
       442    925.7594    368.5110 307.5480648  +6.5495061     791.2293     994.3422     734.7333     78.15582     155.8782     311.8184      1.360     4.04     839.7975      54.9576     125.9952         8     1.101     0.521  70.60   0
       443    652.7615    368.3911 307.6614692  +6.5404379      641.898     706.5473     758.8596     77.41027     155.7542     311.5083      0.880     3.73     839.0937      54.9576     187.4039         5     0.872     0.457 -47.94   0
       444   1000.1708    365.7119 307.5172481  +6.5531425     534.8715     601.1356     396.7742     78.27938     155.6921     311.6634      1.210     4.18     839.5486      54.9576     104.3893         6     0.797     0.627  80.28   0
       445    626.4412    357.9598 307.6727522  +6.5438639     2798.436     4042.761     4104.208      77.9081     155.9402     311.6634      1.564     2.89     838.1406      54.9576     435.7421        22     1.383     0.959  66.08   0
       446    346.7057    360.9915 307.7888458  +6.5332406     856.0553     1204.388     1031.854     77.78394     155.5679     311.5703      1.406     2.64     834.6322      54.9576      130.834         7     0.731     0.628 -88.22   0
       447     34.9428    358.3041 307.9184290  +6.5238741      1205.01     1738.829     1674.676     78.03205     155.9402     312.0043      1.521     3.55     840.2913      54.9576     179.4652        13     1.023     0.863  47.51   0
       448    711.2395    351.5166 307.6377441  +6.5493595     86113.46     118905.4     124903.1     78.15582     155.8782     311.7564      1.481     2.76     839.4348      54.9576     13970.01        88     1.520     1.172  77.38   0
       449    869.4724    353.0361 307.5719641  +6.5540169     1399.793     1868.054     2007.759     78.03205     155.9402     311.7874      1.370     2.72     839.8956      54.9576     253.2139        13     1.024     0.756  53.55   0
       450     90.5438    351.0180 307.8955811  +6.5287526     1419.807     2242.901     2536.118     77.65958     155.8782     311.5393      1.602     3.58     838.3876      54.9576     204.9489        13     1.174     0.726  71.23   0
       451    573.6476    348.2370 307.6950082  +6.5461111      2818.43     3924.194     4227.664     78.03205     155.9402     311.6944      1.470     2.86     837.1614      54.9576     457.0854        20     1.209     0.839  74.13   0
       452    110.9095    347.0513 307.8872560  +6.5310751     6426.288     9465.889     9589.756     78.15582     155.7542     311.9114      1.509     3.01     838.1359      54.9576     957.5195        35     1.380     1.110  80.88   0
       453    952.9614    348.3025 307.5374411  +6.5587561     823.6284      997.983     617.5394     78.15582     155.8162     311.9733      1.307     3.14     839.0695      54.9576     127.2106         7     0.751     0.632  25.02   0
       454    557.0008    344.4535 307.7020501  +6.5471158     7642.834     11071.89     11643.64     77.53503       155.63     311.3531      1.516     3.04      836.899      54.9576     1198.553        33     1.373     1.041  84.93   0
       455    772.0963    346.2401 307.6126415  +6.5535714      552.543     780.3972     1000.538     78.15582     155.8162     311.9424      1.409     3.05     839.5355      54.9576     117.7265         5     0.814     0.461  53.68   0
       456    286.0327    342.0861 307.8146838  +6.5390090     2840.874     4027.707     4526.782     78.15582     155.7542     311.7874      1.489     3.12     834.8699      54.9576     452.2432        22     1.320     0.899  66.77   0
       457    419.8735    339.5807 307.7591741  +6.5445334      27673.6     39589.98     41165.91     77.78394     155.8782     311.7254      1.531     2.98     833.8185      54.9576     4083.852        54     1.467     1.128  75.43   0
       458    598.3784    338.6491 307.6850573  +6.5508970     750.8934     1124.488      715.937     77.78394     156.0022     311.6634      1.419     4.64     836.8688      54.9576     116.3846         8     1.209     0.505  68.66   0
       459    527.4938    338.0079 307.7145234  +6.5487887     1363.259     1844.068     1978.066     77.78394       155.63     311.5703      1.484     3.13     835.7789      54.9576      232.874        12     1.037     0.819  80.63   0
       460    399.6688    337.8298 307.7676256  +6.5445788     1191.803     1944.541     2573.902      77.9081     155.9402     311.7254      2.252     3.67     833.7983      54.9576     204.0641        13     1.265     0.757  49.67   0
       461    686.3058    337.7258 307.6485639  +6.5542193     658.6754     871.8984     1044.722      77.9081      156.126     311.7874      1.540     4.36     838.5814      54.9576     100.7658         7     0.849     0.638  63.98   0
       462    499.0861    334.7466 307.7264331  +6.5491836     1229.891     1627.654     1796.294     78.15582     155.8782     311.9114      1.360     3.13     834.5137      54.9576     202.6942        11     0.931     0.828  -5.08   0
       463    814.5684    331.8744 307.5954799  +6.5609205     901.6301     1261.005     1428.194     78.03205     155.9402     311.7874      1.566     3.40     839.0938      54.9576     180.7193         8     1.203     0.473  82.44   0
       464    508.9798    329.9466 307.7224847  +6.5514966     9153.838     13067.22     13368.54     77.65958     155.9402     311.6013      1.475     2.98     834.7575      54.9576      1444.54        36     1.338     1.079  77.27   0
       465    396.6475    332.2130 307.7690695  +6.5467962     822.7051     1337.048     2063.462     77.53503     155.8162     311.5393      1.737     4.10     833.6968      54.9576     130.0586         7     1.013     0.473  85.91   0
       466    778.2695    328.8383 307.6106603  +6.5609616     3449.358     4982.067     5886.305     78.03205     155.9402     311.8804      1.630     3.35     838.9068      54.9576     546.0737        24     1.500     0.931  54.54   0
       467    650.5872    331.2719 307.6636177  +6.5556892     712.6906     1079.691     1109.033     77.65958     155.5679     311.6013      1.610     4.05     837.5685      54.9576     130.8477         7     1.002     0.468  79.97   0
       468    933.8242    328.5492 307.5460517  +6.5662729     884.8772     1157.324     776.3706     77.78394     155.9402     311.6944      1.436     4.74     838.3964      54.9576     130.4263         9     1.030     0.619  54.93   0
       469    725.7603    328.0836 307.6324980  +6.5595187      780.499     1090.272     1128.009     78.15582     155.8782     311.7254      1.418     2.70     838.6091      54.9576     153.1821         7     0.827     0.583  62.77   0
       470    335.6021    326.5376 307.7946174  +6.5470915     1094.079     1769.758     1689.203     77.53503     155.7542     311.5083      1.665     4.10     833.8593      54.9576      144.489        13     1.055     0.857  45.14   0
       471    171.1452    320.3654 307.8631363  +6.5441166      1235.74     1784.906     2050.903     78.03205     155.9402     311.7874      1.582     2.98     837.1422      54.9576     197.5338        12     1.001     0.758  57.57   0
       472    270.8367    319.8055 307.8217461  +6.5476967     687.5231     871.3389     1132.627     77.28532     155.6921     311.6013      1.261     2.78     834.7122      54.9576     117.4752         6     0.740     0.557  43.13   0
       473    398.8366    314.1772 307.7687668  +6.5543153     7710.527     10950.65     11977.98     77.78394     155.6921     311.5703      1.512     3.02     833.3816      54.9576     1163.951        32     1.373     1.012  69.54   0
       474    254.8983    314.4932 307.8285454  +6.5493546     2253.254     3341.602     3583.341     78.15582      156.497     311.7254      1.558     3.15     834.9566      54.9576     355.9653        19     1.197     0.977  61.36   0
       475    752.4393    313.8377 307.6218930  +6.5662915     1261.147      1699.67     1771.516      77.9081     155.8782     311.6634      1.353     3.04      838.283      54.9576     190.8188        11     0.968     0.737 -87.86   0
       476    766.7369    310.0495 307.6160806  +6.5683331     57655.38     80447.33     84707.47     78.15582     155.8782     311.8494      1.466     2.80     838.1596      54.9576     9358.502        79     1.512     1.170  75.60   0
       477    438.3726    309.4957 307.7525015  +6.5575734     2625.853     3434.622     3485.775     78.27938     155.6921     311.6944      1.464     3.14     833.2881      54.9576     369.1321        15     1.037     0.856  69.00   0
       478   1001.5892    307.2421 307.5186138  +6.5773285     1794.119     2605.311     2588.431     77.53503     155.7542     311.5393      1.490     3.00     836.5237      54.9576     328.8502        16     1.067     0.892  13.30   0
       479    584.5790    306.8358 307.6918575  +6.5635686      1217.69     1519.985      1334.52     77.65958     155.7542     311.5393      1.292     3.21     835.3657      54.9576     221.3242        11     0.981     0.778  78.45   0
       480    942.5826    306.0744 307.5431652  +6.5758434     2465.551      3432.31     3063.763     77.65958     155.6921     311.6944      1.413     2.90     837.3998      54.9576     338.8191        17     1.080     0.895  60.91   0
       481    424.8776    305.2041 307.7582515  +6.5588927     2087.763     3048.699     2461.269     77.78394     155.4436     311.6013      1.490     3.22     833.2139      54.9576     319.6917        17     1.172     0.864  67.74   0
       482    475.4887    305.9257 307.7372038  +6.5602911     1050.334      1514.06     1880.979     78.15582     156.2498     311.8494      1.363     3.37     833.2462      54.9576     149.9604         9     0.840     0.778 -75.77   2
       483    474.9812    300.6040 307.7375935  +6.5624710     797.9932     1222.403     1320.382     77.78394     155.5057     311.6013      1.608     4.55     833.1548      54.9576     142.0208         8     1.226     0.542  75.87   3
       484    304.8786    303.8522 307.8081430  +6.5554254     712.1189     1221.724     1389.819     78.15582     155.9402     311.7874      2.121     7.47     833.7286      54.9576     102.9368        12     1.466     1.066 -59.05   0
       485    846.1883    299.8642 307.5834168  +6.5751911     1216.953     1784.244     1862.566     77.65958     155.7542     311.6013      1.494     4.53     837.8103      54.9576     190.6011        13     1.389     0.647  83.06   0
       486    201.4419    296.4664 307.8513574  +6.5550007     2502.766     3554.596     3781.742     78.15582     155.8782     311.8494      1.500     3.31     835.8324      54.9576     342.0574        20     1.271     0.905  69.87   0
       487    765.2274    294.6449 307.6172240  +6.5746422     6460.199     9019.247     9864.766     77.65958     156.0022     311.6944      1.461     2.75     837.5941      54.9576     1058.781        28     1.312     0.941  70.45   0
       488    455.6126    296.3672 307.7457815  +6.5635711     1176.417     1655.473     2101.912     77.65958     155.6921     311.6944      1.367     2.96     833.0611      54.9576     191.6447         8     0.917     0.583  72.22   0
       489    781.5900    292.5590 307.6104967  +6.5760499     2947.642     4032.942     4280.157     77.53503     155.7542     311.5083      1.428     3.10      837.524      54.9576     449.9624        19     1.203     0.824  73.14   0
       490    355.6827    293.8859 307.7873751  +6.5612446     769.3539     1231.024     1295.112      77.9081      156.126     311.8804      1.637     3.14     833.0615      54.9576     116.0963         7     0.729     0.669 -78.39   0
       491    236.4819    293.9552 307.8368871  +6.5572145     597.6693     730.8286     744.0496     78.15582     155.9402     311.7564      1.184     4.19     834.9199      54.9576     121.1747         7     1.048     0.479  81.16   0
       492     97.6186    293.5876 307.8945801  +6.5526987     1231.346     1818.286     2002.121      77.9081       155.63     311.6944      1.607     3.64     837.7773      54.9576     191.2834        13     1.051     0.960  58.46   0
       493    370.9731    287.0216 307.7812546  +6.5645913     1751.447     3288.022     3462.254     77.65958     155.7542     311.7254      1.949     5.25     832.9473      54.9576     234.9938        22     1.566     1.006  -2.35   0
       494     84.5867    287.3311 307.9002042  +6.5548431     1377.623     2076.297     1885.666     77.65958     155.8162     311.6634      1.619     3.65     837.7864      54.9576     230.4297        10     1.081     0.630  50.42   0
       495   1019.8669    283.4106 307.5118176  +6.5877761     6291.772     8673.304     9088.551     77.65958     155.7542     286.7249      1.455     2.89     834.8119      54.9576      940.368        28     1.287     1.023  74.25  16
       496    497.8235    283.3567 307.7286845  +6.5703565     2228.108     2822.318     3556.618     77.65958     155.8162     311.6013      1.384     3.38     833.0162      54.9576     304.7612        14     1.079     0.801  72.05   0
       497    260.3722    278.9987 307.8274673  +6.5641912     6158.096     9109.515      9734.29     77.65958     155.6921     311.5703      1.536     3.04     834.1083      54.9576     857.2157        32     1.376     1.049  62.71   0
       498    928.7573    277.7653 307.5498557  +6.5870694     435.5146     537.0728     458.5109      77.9081     155.9402     311.6324      1.025     3.91     836.6031      54.9576     83.98883         6     0.760     0.576  42.85   0
       499    824.8807    277.1860 307.5930279  +6.5838421     696.7312     816.2989     744.8717     77.78394     155.6921     311.6013      1.299     2.73     836.8713      54.9576     104.2209         7     0.902     0.699  41.41   0
       500    780.0955    272.3524 307.6117946  +6.5843420     776.2221     914.9009     1427.629     78.03205     155.8162     311.9424      1.189     2.57     836.6639      54.9576     146.0589         7     0.822     0.575  79.25   0
       501    237.4065    271.3141 307.8372659  +6.5665923     670.3013     1243.973     1046.119     77.65958       155.63     311.5393      1.796     4.53     834.5029      54.9576     90.21338         7     1.206     0.484 -85.77   0
       502    394.5842    269.5690 307.7720338  +6.5725880     1794.036     2746.061      2868.96     77.78394     155.6921     311.7254      1.638     3.29     832.6293      54.9576     254.5899        16     1.114     0.893  69.08   0
       503    317.0082    265.6681 307.8043901  +6.5715958     1194.426     1500.928     1241.151     77.65958     155.6921     311.6944      1.355     3.16      833.177      54.9576     193.9138        12     1.075     0.721  56.68   0
       504    200.8197    266.6380 307.8526212  +6.5672935     603.8359     1047.302     1211.435     77.78394     155.7542     311.4773      1.641     3.48     835.1606      54.9576     91.29926         5     0.785     0.446  16.20   0
       505    164.2468    265.2774 307.8678589  +6.5666260     2066.602     2779.663     3097.404     78.03205     156.0022     311.7874      1.405     2.81     835.8212      54.9576     320.9214        16     1.114     0.830  55.51   0
       506    917.6870    260.3249 307.5550383  +6.5939002     1828.832     2676.101     2897.507     78.15582     156.2498     311.8494      1.545     3.57     835.9636      54.9576     275.9362        17     1.308     0.840  50.02   0
       507    573.8991    261.0704 307.6978307  +6.5821045     2250.006     3113.895     3127.385     78.03205     156.0641     311.7874      1.425     2.91      833.475      54.9576     393.5352        17     1.098     0.837  67.86   0
       508    737.6021    258.6880 307.6299054  +6.5885634     5380.327     7462.047     7992.217     77.53503     155.5679     311.5393      1.457     2.74     836.1246      54.9576     811.8858        28     1.308     0.959  83.34   0
       509    678.4022    258.7993 307.6544946  +6.5865384     2183.454     3272.598     3428.652     77.53503     155.5057     311.4773      1.580     3.53     835.2242      54.9576     325.3662        19     1.230     0.911  75.95   0
       510    975.7092    258.2437 307.5310036  +6.5966942     778.6766     836.8384     869.8236     78.15582     155.8782     311.8804      1.335     4.31      834.792      54.9576     123.2972         7     0.873     0.607  61.07   0
       511    981.2604    268.4948 307.5283546  +6.5926473     1123.983     1547.231     1890.675     78.03205     155.9402     311.8804      1.408     2.70     835.0722      54.9576     192.8357         9     0.959     0.588  60.23   0
       512    933.5250    250.5946 307.5487843  +6.5984455     1209.144     1657.738     1659.923     77.78394     155.4436     311.6944      1.493     3.73     835.4677      54.9576      229.527        14     1.231     0.800  68.07   0
       513    237.1096    244.0342 307.8383084  +6.5778439       2303.8     3271.231     3817.026     78.27938     155.8162     311.7874      1.520     3.10     834.1002      54.9576     351.2289        16     1.119     0.830  68.29   0
       514    879.8909    242.6030 307.5713333  +6.5999555     1696.877     2493.657     2751.969     77.53503       155.63     311.5083      1.497     3.61     835.4179      54.9576     297.3243        16     1.094     1.049  75.47   0
       515    770.2727    242.1735 307.6168867  +6.5964727     1685.623     2334.446     2300.899     77.78394     155.8162     311.6944      1.402     3.14     835.4193      54.9576     278.0994        12     1.090     0.700  72.57   0
       516    258.7935    238.2570 307.8294955  +6.5809572     607.0057     943.9843     866.9277     77.65958     155.8162     311.5083      1.384     3.23     833.6499      54.9576     100.8383         5     0.908     0.353  44.41   0
       517    797.0883    233.0409 307.6060527  +6.6011387      14408.6     20412.48     22217.03     78.15582     155.8782     311.8184      1.492     2.79      835.046      54.9576     2488.172        50     1.449     1.272  73.73   0
       518    471.0148    233.9067 307.7414831  +6.5898725     24490.33     35200.27      36955.1      77.9081     155.6921     311.6324      1.503     2.95     831.1401      54.9576     3727.028        49     1.434     1.115  75.47   0
       519    332.0521    235.7396 307.7991483  +6.5844558     689.0168     1029.985     481.1679     78.15582     155.8782     311.7874      1.594     5.25       832.97      54.9576     109.1273         9     1.294     0.601  83.58   0
       520    736.2617    229.3166 307.6314470  +6.6006440     865.8339      1154.73     1145.604     78.27938     155.9402     311.8184      1.618     5.64     834.8732      54.9576     120.8078        11     1.147     0.781  64.67   0
       521    476.8937    228.4305 307.7392250  +6.5923302     1579.702     2195.725     1916.532     78.27938     155.6921     311.7564      1.398     3.29     830.8908      54.9576     244.7268        13     1.133     0.727  83.77   0
       522    159.2286    227.0731 307.8712317  +6.5822287     2561.982      3642.86     3876.403     78.03205     155.9402     311.7564      1.531     3.37     834.6939      54.9576     365.3121        17     1.300     0.779  67.94   0
       523    186.4299    226.1041 307.8599649  +6.5835430     698.6564     1061.993     1427.852     78.27938     155.6921     311.8184      1.658     3.39      834.364      54.9576     126.9335         7     1.024     0.451  40.50   0
       524    133.9830    225.9735 307.8817557  +6.5818337     1076.309     1629.474     2255.885     77.78394     155.6921     311.6944      1.600     2.69     835.5254      54.9576     181.4445         9     0.793     0.736 -87.09   0
       525    933.4331    223.4105 307.5497321  +6.6096650     1598.734     2025.661     1881.268     77.65958     155.6921     311.6324      1.448     3.25     834.4144      54.9576     240.1071        14     1.098     0.774  64.63   0
       526    595.0815    219.5385 307.6904257  +6.5999591     5066.518     6922.686     6862.681     78.27938     155.9402     311.7874      1.421     2.89     832.5931      54.9576     802.8835        22     1.214     0.867  61.62   0
       527    557.7678    219.6613 307.7059228  +6.5986593     2262.095     3427.203     3599.111      77.9081     156.0022     311.7254      1.569     3.12     831.6938      54.9576     353.6341        19     1.263     0.853  64.75   0
       528    315.3470    220.5343 307.8065996  +6.5901722     1085.682     1618.846     1150.672     78.15582     155.8782     311.7564      1.531     4.11     832.9549      54.9576     157.3399        11     1.003     0.851  26.24   0
       529    399.6195    218.7478 307.7716518  +6.5937370     1667.027     2460.206      3087.16     77.65958     156.0022     311.6013      1.527     3.29     831.6975      54.9576     229.9679        15     1.102     0.881  67.26   0
       530    956.0459    216.7233 307.5405615  +6.6131798     2770.663     3936.632      3982.01     78.03205     156.0022     311.8184      1.461     3.04      833.685      54.9576     457.2106        20     1.276     0.799  75.22   0
       531    902.0806    216.2214 307.5629980  +6.6115871     11975.52     16688.05     17115.27      77.9081       155.63     311.7564      1.439     2.75     834.2255      54.9576     2038.352        38     1.384     1.025  74.59   0
       532    988.7472    214.0729 307.5270645  +6.6153642     10050.12     14150.27     14737.13     78.03205     155.9402     311.8184      1.457     2.92     832.9537      54.9576     1583.305        37     1.449     1.017  78.91   0
       533    329.7455    216.7161 307.8007469  +6.5922317     1085.974     1774.956     1400.623     78.15582     155.9402     311.9424      1.877     4.30     832.8492      54.9576     141.0777        13     1.193     0.851  65.88   0
       534    577.2349    216.0082 307.6979583  +6.6008191     856.0252     1279.557     1079.628     77.65958     155.7542     311.5703      1.539     4.24     832.0075      54.9576     120.3073         8     0.975     0.645  81.88   0
       535    221.2110    216.1982 307.8458507  +6.5888010       791.98     1148.028     1386.564     77.78394       155.63     311.6013      1.408     3.90     833.9205      54.9576     115.4709         9     0.945     0.707  70.89   0
       536     28.2357    212.8630 307.9261250  +6.5836881     27316.44     39327.47     41848.17     78.03205     155.9402     311.7564      1.536     3.00     837.9112      54.9576      3807.31        57     1.488     1.178  83.26   0
       537    700.2043    214.1116 307.6469364  +6.6057159     3138.137     4294.431     4486.849     77.65958       155.63     311.4773      1.444     3.04     834.0934      54.9576     517.5584        22     1.319     0.865  67.03   0
       538    274.3172    213.5185 307.8238802  +6.5916910     1144.775     1599.568     1075.378     78.03205     156.1879     311.8804      1.511     3.33     833.2507      54.9576     163.0051        10     0.966     0.677  89.59   0
       539    508.8014    208.7767 307.7266304  +6.6015128     2171.072     2903.887     2977.696     77.78394       155.63     311.5703      1.434     3.22     830.7269      54.9576     324.8199        16     1.195     0.769  71.29   0
       540    840.7255    205.5315 307.5888456  +6.6139526     2131.562     2805.615     3045.832     78.27938     156.0641     311.7874      1.369     2.61     833.8634      54.9576     344.2651        18     1.049     0.952  87.19   0
       541    520.6841    204.8489 307.7218260  +6.6035324     2630.406     3826.439     3709.061     78.15582     155.9402     311.8184      1.542     2.90     830.7275      54.9576     416.0498        22     1.311     0.957  74.18   0
       542    893.0307    204.4411 307.5671521  +6.6161485     2048.312     2918.542     3305.278     77.65958     155.7542     311.6013      1.483     3.11      833.676      54.9576     385.8358        15     1.148     0.842  77.04   0
       543    752.3079    202.1730 307.6256908  +6.6123860     43422.11     60353.24     63057.55     78.27938     155.6921     311.6324      1.466     2.80     833.7999      54.9576      6904.75        68     1.485     1.142  77.02   0
       544    355.3754    201.5053 307.7906118  +6.5993710     6210.705     12067.36     13226.89     78.27938     155.6921     311.6634      2.078     6.01     832.4329      54.9576     702.2269        41     1.919     1.094 -83.86   0
       545    986.0487    201.0141 307.5286223  +6.6206654     3004.392     4352.178     4447.668     77.53503     155.8782     311.5083      1.462     2.95     832.7054      54.9576     518.6605        22     1.328     0.888  64.39   0
       546    920.2031    199.2273 307.5560378  +6.6192074     7898.424     10892.61     11625.29     77.65958     155.6921     311.6013      1.428     2.77     833.4115      54.9576     1251.384        30     1.337     0.953  73.62   0
       547    463.7032    198.3537 307.7457158  +6.6043046     5452.958     7576.171     8029.851     78.15582     155.8782     311.9424      1.512     3.00     830.5342      54.9576     742.3682        28     1.318     1.005  72.66   0
       548   1023.7833    199.4741 307.5129968  +6.6225588     983.4385     1178.697     869.1252     66.24158     122.0801     232.7712      1.071     2.57     832.1629      54.9576      259.577         6     0.871     0.411  88.35  24
       549    238.0283    194.8572 307.8395837  +6.5981759     853.1412     1125.122     985.5726     77.78394     156.0022     311.6944      1.480     4.11     833.5338      54.9576     171.6755         8     0.972     0.707  40.68   0
       550    120.9822    189.5912 307.8883835  +6.5964156     5341.134     7660.623      8212.23      77.9081     155.6921     311.6324      1.519     3.09     835.2578      54.9576      792.308        32     1.438     1.060  79.67   0
       551    940.6005    188.8612 307.5479106  +6.6241673     897.9646     1205.765     1457.382     77.41027     155.7542     311.4773      1.295     3.93     832.8331      54.9576     160.9551         7     0.889     0.666 -88.27   0
       552    291.3382    186.3831 307.8177233  +6.6034645     36363.09     52443.64     55197.07     77.65958     155.8782     311.6013      1.574     3.05     833.0349      54.9576     5252.767        62     1.518     1.161  77.69   0
       553    266.6984    187.4453 307.8279234  +6.6021986     7085.568     10086.01      10237.5     78.15582     155.8782     312.0043      1.540     3.03     833.2346      54.9576     981.8142        31     1.364     1.008  81.30   0
       554    617.6096    187.7207 307.6821350  +6.6138483     635.6976     836.6238     1132.884     77.78394     155.5679     311.6324      1.838     3.87      831.767      54.9576     93.38177         5     0.999     0.429  75.04   0
       555    720.7815    185.7293 307.6393397  +6.6181208     1057.054     1543.113     1859.869     77.78394     155.8162     311.7254      1.446     3.13     833.1174      54.9576     190.4693         8     0.992     0.519  52.81   0
       556    415.4294    181.8721 307.7663244  +6.6094903     53807.63     77312.59      81037.4     78.03205     155.9402     311.7564      1.534     2.99     831.1024      54.9576     7351.771        67     1.510     1.155  78.39   0
       557    171.4063    183.2082 307.8676521  +6.6007461     4246.486     6326.784     6325.452     77.53503     155.7542     311.6324      1.584     3.23      833.684      54.9576      596.813        27     1.388     0.974  78.39   0
       558    432.7550    182.5618 307.7591036  +6.6097865     1624.328     2443.395     2647.646      77.9081     155.8782     311.6944      1.662     3.65     830.8201      54.9576     233.7745        18     1.180     1.051 -86.24   0
       559    319.4575    179.6192 307.8062697  +6.6072007     19447.24     28089.27     29019.04     77.78394     155.8782     311.6013      1.557     3.04     832.6088      54.9576     2733.501        46     1.450     1.096  81.09   0
       560    754.7190    178.0970 307.6254963  +6.6224059      35434.5     49768.55      52413.6     78.03205     156.2498     311.8184      1.472     2.85     832.8459      54.9576     5645.614        59     1.447     1.132  75.55   0
       561    702.7357    179.9184 307.6470317  +6.6199165     1000.834     1378.206     1337.368     78.27938     156.0022     311.7874      1.495     3.75     832.8416      54.9576     192.6696         9     1.074     0.681  74.29   0
       562    326.7968    179.5490 307.8032231  +6.6074760     2217.307     3444.863     3963.296     77.53503     155.6921     311.3842      1.659     3.65      832.488      54.9576     333.5883        18     1.288     0.931  77.74   2
       563    328.1717    174.9996 307.8028051  +6.6094002     545.5591     711.3864     1692.462     77.65958     155.7542     311.6013      1.342     3.80     832.4207      54.9576     84.33167         5     0.818     0.506  31.13   2
       564    803.0616    178.5074 307.6053985  +6.6238514     1360.246     1674.483     2030.302     78.15582     155.9402     311.8494      1.324     2.91     832.8741      54.9576     213.4127        11     0.964     0.717  67.03   0
       565     71.5318    175.3836 307.9094050  +6.6006172      9711.95     13925.01     14454.46     77.65958     155.8782     311.6944      1.545     3.01     836.6572      54.9576      1322.93        36     1.446     1.012  78.70   0
       566     42.1745    178.1744 307.9215060  +6.5984770     631.7013      976.345     1270.079     77.65958     155.7542     311.6634      1.828     3.25     837.6778      54.9576     95.12903         6     0.760     0.554  41.53   0
       567    105.3098    173.3535 307.8954418  +6.6025916     1535.041     2192.472     2451.594     78.15582     155.8162     311.9114      1.562     3.40      835.483      54.9576      215.397        16     1.139     0.887  70.32   0
       568   1013.0850    172.2221 307.5183527  +6.6334529     1212.307     1511.929     1873.436     78.03205       155.63     311.7254      1.402     3.01       831.96      54.9576     192.7705        10     0.921     0.705 -85.10   0
       569    980.5033    171.2181 307.5319229  +6.6327814     498.3033     484.7507    -254.4299     78.03205     155.7542     311.5703      1.204     3.35     832.0112      54.9576     96.76154         5     0.748     0.449  68.49   0
       570    738.8804    165.4667 307.6324999  +6.6270908     696.6804     184.5971     371.1859     78.27938      156.126     311.7874      0.273     5.18     832.3291      54.9576     90.00159         9     1.049     0.722  86.75   0
       571    588.7938    162.5614 307.6949511  +6.6232703     780.2145     1102.062     1136.608     77.28532     155.6921     311.5083      1.424     3.53     830.2094      54.9576     116.3524         8     0.953     0.602 -73.52   0
       572      4.9598    160.6465 307.9375571  +6.6044598     948.7923     1351.652     1039.855     78.03205     155.9402      284.831      1.491     4.72     839.1584      54.9576     116.5891        11     1.058     0.723  73.16  16
       573   1014.0956    158.6143 307.5183879  +6.6391044     2091.099     3230.935     3624.481      77.9081     155.6921     311.5703      1.711     3.32     831.6583      54.9576     325.7262        17     1.218     0.843  67.38   0
       574    597.1327    156.5049 307.6916901  +6.6260497     1142.508     1565.811     2472.766     78.03205     156.0641     311.7874      1.475     3.13     830.1674      54.9576     166.4596        10     0.954     0.688  63.24   0
       575    290.2598    152.6410 307.8193078  +6.6173576      32747.4     47314.74     50198.86     78.15582     155.9402     311.8494      1.558     3.00     833.1366      54.9576      4643.25        59     1.516     1.151  78.21   0
       576    605.4947    154.5012 307.6882834  +6.6271568     2084.583     3304.506     4265.108     78.15582     156.4352     311.6324      1.799     3.40     830.2308      54.9576     351.7983        18     1.281     0.810  65.69   0
       577    349.8506    154.3723 307.7944934  +6.6186431      944.322     1288.503     1179.609     77.78394     156.0641     311.7254      1.424     4.14     832.0457      54.9576     154.7336        10     1.147     0.687  80.18   0
       578     35.5260    151.2998 307.9251753  +6.6093473     4864.856     7166.797     7229.061     77.65958     156.0641     311.6944      1.595     3.32     837.7904      54.9576     675.7845        28     1.526     1.006 -84.36   0
       579    721.9366    149.2740 307.6400824  +6.6332093     8801.579     12286.65        13197     78.40276     155.9402     311.7564      1.487     2.91     831.5038      54.9576      1436.06        33     1.317     1.046  73.60   0
       580    199.2937    150.6735 307.8571640  +6.6151142     1099.527     1689.144     1859.739     78.03205     156.0641     311.7874      1.859     3.90     833.1927      54.9576     135.0695        12     1.076     0.782 -80.02   0
       581    132.6994    146.4428 307.8849716  +6.6146219     5365.659     7525.473     7927.574     78.15582     155.8162     312.0043      1.549     3.09     833.8071      54.9576     747.1641        27     1.333     0.970  79.26   0
       582    276.1617    147.4234 307.8253403  +6.6190382     810.1389     1194.128     1738.171     77.78394     155.6921     311.6013      1.638     3.03      833.224      54.9576     156.3165         7     0.985     0.464  45.12   0
       583    594.5848    144.0668 307.6931663  +6.6310992     865.2149     1375.928     1512.277     77.65958     155.8162     311.6944      1.823     4.62     829.9199      54.9576     122.6508         9     1.003     0.710  54.27   0
       584    403.4466    142.2518 307.7726354  +6.6254446     4117.278     6250.118     6476.946     78.27938     155.8162     311.8494      1.666     3.74     831.1013      54.9576     521.3043        28     1.534     0.998  88.97   0
       585    660.8466    143.2584 307.6656646  +6.6336500     843.4895      1135.75     910.2632     78.15582     155.9402     311.9114      1.369     3.34     830.9248      54.9576     168.5238         9     1.002     0.654  72.97   0
       586    471.7997    143.4328 307.7441987  +6.6272486     1518.182     1979.315     2228.201     77.41027     155.7542     311.5393      1.439     3.30     829.7077      54.9576     224.9456        13     1.047     0.770  67.27   0
       587    367.8062    141.1802 307.7874780  +6.6246915     3406.993      5002.71     4909.339     77.78394     155.6921     311.6013      1.507     3.20     832.0132      54.9576      530.334        23     1.325     0.920  73.57   0
       588    122.2643    141.2259 307.8894826  +6.6164245     1775.035     2380.016     1933.797     77.78394     155.9402     311.6944      1.467     3.55     833.9231      54.9576      241.422        18     1.227     0.910  80.76   0
       589    579.8452    140.9519 307.6993945  +6.6318917     876.7938     1327.557     1423.542     78.15582     155.8162     311.7874      1.669     6.31     829.7192      54.9576     107.8538        13     1.272     0.879 -83.18   0
       590    950.5417    139.7166 307.5454249  +6.6447874      541.315     1105.701     966.1044     78.15582     155.9402     311.8494      1.990     5.18     830.5885      54.9576     123.5763         6     1.636     0.463  83.26   0
       591    683.8541    138.8064 307.6562553  +6.6362574     908.0089     1302.061     1647.191     77.65958     155.6921     311.5083      1.458     2.66     830.9224      54.9576     154.0792         8     0.787     0.670 -50.03   0
       592   1014.5056    135.2143 307.5190001  +6.6487784     1717.732     2212.506     2074.558      77.9081     155.6921     311.6324      1.368     3.23     829.6985      54.9576      251.525        14     1.023     0.902  51.06   0
       593    219.7386    130.1210 307.8493634  +6.6242856     5967.232     9090.256     8702.036     78.27938     156.0022     311.7874      1.601     3.22     833.1426      54.9576     831.9487        33     1.484     1.027  79.07   0
       594    681.4928    129.0577 307.6575634  +6.6402030     6698.609     9371.881     9779.557     78.03205     155.8782     311.9114      1.470     2.94     830.3779      54.9576      1002.73        27     1.317     0.934  78.90   0
       595    102.3480    130.0839 307.8981322  +6.6203541     2324.164     3244.282     3842.714     78.15582     155.8782     311.8804      1.508     3.18     833.8885      54.9576     326.0009        15     1.082     0.860  75.24   0
       596    829.5982    128.6460 307.5960442  +6.6453220     1131.995     1494.873     1374.608     77.53503       155.63     311.4152      1.232     3.33     830.3657      54.9576     188.7198         8     0.938     0.591  70.59   0
       597    633.7062    126.2964 307.6775096  +6.6397445     10197.45     14704.76     15596.54     78.15582      156.497     311.6944      1.533     2.94     829.9085      54.9576     1501.933        41     1.496     1.048  66.34   3
       598    637.2095    117.8016 307.6763393  +6.6433686     56843.34     81223.91     85919.23     77.53503       155.63     311.5703      1.505     2.92     829.6547      54.9576     8485.604        76     1.516     1.185  76.73   2
       599    268.4184    126.6095 307.8292584  +6.6273704     889.4398     1278.281     870.0895      77.9081     155.6921     311.6634      1.465     3.16     833.3579      54.9576     126.7537         9     0.936     0.683  58.28   0
       600     32.4648    124.9494 307.9273367  +6.6201219     999.9172     1824.336     1465.122     78.03205     155.8782     311.8184      1.846     6.46     837.6558      54.9576      140.563        17     1.532     0.968 -78.19   0
       601    571.5507    125.3514 307.7033645  +6.6380544     730.2109     1109.499     1562.581     78.15582     155.8162     311.7254      1.529     4.01     829.4269      54.9576     120.3936         6     1.007     0.457  35.88   0
       602    360.8473    122.0482 307.7910130  +6.6323561      3892.23      6278.88     6668.127     78.15582     155.8162     311.8184      1.705     3.46     832.7001      54.9576     510.0971        34     1.585     1.141 -64.17   0
       603    542.5468    121.2340 307.7155527  +6.6387829     1842.678     2678.655     2952.175     78.03205     155.9402     311.7254      1.552     3.45     829.1992      54.9576     259.2362        15     1.233     0.733  60.46   0
       604   1007.1323    120.8351 307.5225444  +6.6544689     784.2521     1083.853     1551.608     78.03205     156.0022     311.8804      1.704     3.83     828.6834      54.9576     136.4021         8     0.982     0.620  63.80   0
       605    316.2873    111.5425 307.8098790  +6.6351976     3740.624     5470.521     6176.303     78.15582     155.9402     311.9114      1.591     3.08     833.4998      54.9576     552.8744        24     1.342     0.928  81.73   0
       606    511.6092    108.4534 307.7288356  +6.6430228     645.6214     1078.176     799.7912     77.53503     155.8782     311.5083      2.027     3.67      829.165      54.9576     106.9047         6     0.872     0.488  89.19   0
       607     13.7379     94.7018 307.9361379  +6.6319778     735174.2      1547490      1705467      77.9081     156.0641     311.8494      2.175     5.99     838.4369      54.9576     61857.72       466     2.245     1.904  80.60  28
       608    716.2745    105.6229 307.6438989  +6.6510405     1033.461     1510.737     1253.367     77.78394     155.7542     311.7254      1.540     2.65     829.1677      54.9576     198.6982         9     0.956     0.574  83.80   0
       609    687.5001    104.7614 307.6558828  +6.6504340     1334.313     2051.313     2101.567     78.15582     155.8162     312.0043      1.622     3.01     829.0858      54.9576     223.6714        11     1.010     0.717  80.48   0
       610    701.6280    101.7595 307.6501137  +6.6521457     3156.087     4594.242     4308.187     77.78394     155.7542     311.6324      1.477     2.86     828.9372      54.9576     468.8706        23     1.302     0.918  78.32   0
       611    443.3167     92.8295 307.7577338  +6.6471840      4393.47     6211.188     6201.441     78.15582     155.7542     311.6944      1.501     3.07     829.8338      54.9576     626.2512        28     1.359     1.022  82.69   0
       612    915.8406     88.3619 307.5615613  +6.6648309     3984.793     5721.792     5985.638      77.9081     155.9402     311.6634      1.522     3.31     828.6013      54.9576     690.6016        27     1.524     0.904  78.40   0
       613    897.8931     88.8637 307.5690015  +6.6640249     2194.579     3122.372      2898.28     78.15582      156.126     311.8494      1.415     2.70     828.6353      54.9576     406.6712        18     1.137     0.844  88.53   0
       614    595.6044     88.3693 307.6946131  +6.6541267     781.0012     908.3921     1048.246     77.65958     155.8162     311.5703      1.203     2.90     828.8193      54.9576     145.6484         8     0.891     0.613 -75.07   0
       615    608.0238     86.5912 307.6895129  +6.6552764     1809.163     2494.915     1845.137     77.78394     155.7542     311.6324      1.409     3.31     828.8021      54.9576     302.8507        15     1.203     0.740  87.70   0
       616    406.6694     84.4714 307.7732405  +6.6494056     2052.383     2762.424     2847.564     78.15582     156.0641     311.7254      1.475     3.30     830.8502      54.9576     272.0222        18     1.237     0.885  84.49   0
       617    253.8464     85.9150 307.8366834  +6.6436803     913.0866     1058.187     1274.588     78.15582     155.8782     311.7874      1.343     3.40     833.2277      54.9576     142.8313         9     0.921     0.780  77.21   0
       618    154.5581     81.4714 307.8780824  +6.6421779     3515.054     4984.844      4767.99     78.03205     155.9402     311.8494      1.564     3.26     832.0136      54.9576     465.1835        24     1.254     1.000  62.63   0
       619     36.5007     79.3687 307.9271993  +6.6390738     13261.03     19364.73     20588.24     78.15582     155.6921     311.9114      1.584     3.10     835.0957      54.9576     1832.143        44     1.492     1.099  72.96   0
       620    302.9857     79.9273 307.8164699  +6.6478023     1255.345     1796.044     2164.366     77.65958     155.6921     311.6634      1.431     3.81     833.8008      54.9576     192.3727        12     1.140     0.776  62.51   0
       621    575.9239     79.0004 307.7031045  +6.6573356     677.5679     1182.955     781.0093     77.41027     155.3192     311.6013      1.686     4.54     828.5142      54.9576     119.6494         9     1.038     0.876  58.20   0
       622    563.7432     79.1363 307.7081607  +6.6568717     779.9348     1219.249     743.4553     78.27938     155.8782     311.8184      1.671     5.02      828.511      54.9576     125.3551         8     0.965     0.738  83.59   0
       623    771.5309     78.3282 307.6218563  +6.6641552     868.1159     1247.928     2082.395     78.27938     156.0641     311.7564      1.827     4.01     828.0742      54.9576     124.5892         7     0.977     0.470  78.75   0
       624    904.9705     75.2911 307.5665154  +6.6698643     604.4705     865.0778     624.7647     78.27938     155.6921     311.7254      1.368     4.17     828.1591      54.9576     111.0319         6     1.119     0.444  72.58   0
       625    838.2886     73.8626 307.5942689  +6.6682284      6702.93     9651.386      11076.2     78.15582      156.126     311.8494      1.517     2.93     828.0692      54.9576     1072.775        30     1.353     0.986  78.92   0
       626    428.1496     74.8828 307.7646389  +6.6540843     1188.477     1833.101      2013.05     78.15582     155.9402     311.8184      1.537     4.20     830.0995      54.9576     189.0074        11     1.133     0.749 -60.61   0
       627    770.5590     73.8107 307.6224115  +6.6659877     534.8354     986.4205     1869.126     77.53503     155.7542     311.5083      1.977     3.45     827.9406      54.9576     82.44135         5     0.774     0.444  69.45   1
       628    545.6650     72.2907 307.7159017  +6.6590923      1347.32     1835.468     2320.244     78.03205      156.126     311.7874      1.466     3.69     828.3198      54.9576     209.1687        11     1.086     0.736  76.05   0
       629    783.3827     74.2294 307.6170694  +6.6662433     3601.468     5037.439     5004.396     77.78394     155.7542     311.7254      1.452     3.03     827.9614      54.9576     559.9495        21     1.283     0.852  70.32   0
       630     61.3352     72.0519 307.9171291  +6.6429302     1115.855     1587.182     1378.294     78.15582     155.8782     311.7564      1.383     3.04     833.2599      54.9576     229.6162        11     1.108     0.628  61.28   0
       631    438.0884     70.5965 307.7606538  +6.6561870     1043.128     1399.116     1778.391     77.65958       155.63     311.4773      1.431     3.83     829.9116      54.9576     152.0604        12     1.106     0.745  80.13   0
       632     76.8422     71.0693 307.9107200  +6.6438577     3601.232     5000.565     5234.836     78.03205     155.9402     311.8494      1.431     2.94     832.4582      54.9576      571.142        21     1.161     0.922  58.82   0
       633    665.4697     71.2450 307.6661606  +6.6635338     589.3328     865.2283     1563.635     78.15582     155.8782     311.7874      1.583     3.42     827.9747      54.9576     105.9438         5     0.806     0.420  66.87   0
       634    600.8162     68.0763 307.6931292  +6.6626786     1394.884     2100.186     1770.657     77.65958     155.6921     311.6634      1.489     3.97     828.1472      54.9576     213.9711        13     1.147     0.792 -89.81   0
       635     19.2876     66.8318 307.9347737  +6.6436696     2799.566     3945.612     4934.213     78.27938     155.7542     311.7254      1.498     3.33     834.6047      54.9576     355.5967        18     1.202     0.908  75.70   0
       636    778.0889     61.5860 307.6196928  +6.6712860     2067.139     3120.655     3245.993      77.9081     155.7542     311.6634      1.559     3.57     827.5624      54.9576     317.6692        18     1.233     0.894  75.98   0
       637     91.7233     62.2567 307.9048352  +6.6479963     871.2969     1168.082     1398.812     78.15582     155.8782     311.7564      1.463     4.83       831.45      54.9576     121.2291        10     1.070     0.690  52.68   0
       638    418.8561     61.8335 307.7689390  +6.6591597     1231.887     1701.786     1408.822     78.03205     155.9402     311.7874      1.414     2.74     830.2659      54.9576     189.6723         9     0.786     0.717  53.69   0
       639    115.8445     60.9238 307.8948590  +6.6493581     1062.677     1431.991     1324.955     78.03205     156.0022     311.8184      1.357     4.53     831.3676      54.9576     150.5505        10     1.076     0.796  78.94   0
       640    104.5197     55.4678 307.8997480  +6.6512294     10092.93     14701.35     15300.04     78.27938     156.1879     311.7874      1.596     3.08      831.125      54.9576     1414.903        38     1.470     1.044  74.96   0
       641    433.6519     55.0700 307.7630193  +6.6624479     2724.584     3904.349     3977.229     78.03205     155.8162     311.7564      1.474     3.34     829.9789      54.9576     364.6631        21     1.263     0.932  75.73   0
       642    647.3187     47.4797 307.6744997  +6.6727375     20020.75      27878.2      29174.7     78.27938     156.1879     311.9424      1.502     2.90     827.3347      54.9576     3045.793        46     1.427     1.064  76.20   0
       643    271.1723     49.5946 307.8307090  +6.6592558     1612.502     2498.826     3795.488     77.65958     155.7542     311.6013      1.800     3.74     833.2216      54.9576     232.8868        16     1.130     1.000  69.34   0
       644    676.6009     48.3833 307.6623029  +6.6733439     765.0654     900.9595     1134.019     77.78394     155.5057     311.4773      1.368     3.93     827.2934      54.9576     121.0875         7     0.971     0.481  83.76   0
       645    702.6456     47.8638 307.6514990  +6.6744293     524.5236      830.735     865.7281     78.15582     155.8782     311.8184      1.828     4.66     827.1471      54.9576     105.6022         5     0.963     0.639  12.50   0
       646    956.0829     47.4440 307.5462104  +6.6830654     548.0572     639.2128     858.0993     78.15582     155.9402     311.7564      1.249     4.25     825.8699      54.9576     107.6837         5     0.776     0.664  72.58   0
       647    265.2021     43.8918 307.8333816  +6.6614095     2147.992     3491.568     5019.802     77.53503       155.63     311.5083      2.001     3.70     832.9654      54.9576     331.7461        23     1.522     1.021  80.78   1
       648    547.1804     43.5067 307.7162393  +6.6710258      5730.46     7766.339     7398.002     78.03205     155.7542     311.6324      1.471     2.97     827.5701      54.9576     926.8008        26     1.304     0.931  75.01   0
       649    452.6772     39.1955 307.7556487  +6.6696390     24618.87     35632.42     37522.62     77.78394     155.4436     311.6324      1.543     3.03     829.6002      54.9576      3549.34        50     1.487     1.109  76.35   0
       650     14.4015     41.4414 307.9376612  +6.6539863     1263.535     1968.115      1878.48     77.53503       155.63     311.4773      1.723     5.67     831.4391      54.9576     182.3835        15     1.517     0.833  57.47   0
       651    703.4020     41.8056 307.6513880  +6.6769556     535.5375     842.6752     1721.649     77.53503       155.63     311.5703      1.870     3.56     826.9609      54.9576     125.0115         5     0.910     0.488  86.74   0
       652    633.7325     38.0836 307.6804601  +6.6761619     3143.279     5501.567     6715.336     78.27938     156.1879     311.8184      2.001     5.61     827.0706      54.9576        485.7        32     1.928     0.947  69.00   0
       653    273.2473     39.5560 307.8301851  +6.6634696     10115.67     14463.23     15864.12     78.15582     155.8782     311.7254      1.557     3.05     833.2158      54.9576     1451.661        35     1.385     1.041  78.11   0
       654    930.5432     39.2271 307.5570973  +6.6856058     1979.263      3209.88     2652.701     77.78394     156.0022     311.6634      1.664     3.48     826.8281      54.9576      313.187        22     1.330     1.012  71.21   0
       655     38.6172     39.1665 307.9276776  +6.6557408     2490.063     3638.228     3806.904     77.78394     155.7542     311.6324      1.573     3.29     831.0001      54.9576     349.9265        20     1.224     0.939  77.24   0
       656    565.5997     39.2850 307.7087282  +6.6733854     472.9499     984.8829     1068.045     77.41028     155.4436     311.4462      2.200     4.40     827.3398      54.9576     73.75275         5     1.183     0.467 -82.08   0
       657    537.9597     39.3438 307.7202103  +6.6724354     737.4174     757.1134     698.7812     78.15582     156.0022     311.8184      1.151     4.33     827.6222      54.9576     108.2414         9     0.935     0.685  68.42   0
       658    518.9255     40.1548 307.7280914  +6.6714631      509.677     435.0399    -151.0132     78.03205     156.0022     311.8184      1.250     3.74     828.1155      54.9576     121.5424         5     0.673     0.598  83.00   0
       659    332.9763     39.4158 307.8053742  +6.6655329     1083.394     1722.149     1994.357      77.9081     155.7542     311.6944      1.710     4.30     833.8008      54.9576     182.2136        12     1.331     0.711  33.61   0
       660    261.2284     36.1860 307.8352922  +6.6644571     3362.805     4901.729     5748.398     77.78394     155.7542     311.6944      1.552     3.20     832.7278      54.9576     499.5958        24     1.241     1.021  72.47   0
       661    314.2591     34.3768 307.8133204  +6.6669847     1134.319     1486.411     1716.844     77.78394     155.9402     311.6634      1.528     4.50     833.8008      54.9576     160.4633        10     1.091     0.631  75.83   0
       662     77.3861     31.1775 307.9118407  +6.6603436     483.3948     960.3129     738.2485      77.9081     155.7542     311.6944      2.007     5.17     830.2941      54.9576     65.49805         5     1.029     0.735  15.13   0
       663    951.2618     29.2043 307.5488240  +6.6904345     953.1402     1301.432     1410.707     77.53503     155.6921     311.5393      1.389     4.63      825.326      54.9576     160.0419        12     1.276     0.734  63.54   0
       664    702.5560     28.5398 307.6521846  +6.6824038     2043.773     2624.479     2478.449     78.03205     155.9402     311.9114      1.289     2.96     826.5576      54.9576     327.9784        17     1.161     0.798  73.70   0
       665    107.6429     29.3789 307.8993310  +6.6621042     583.6782     1022.747     953.3185     77.65958     155.8162     311.6324      1.466     3.35     830.4146      54.9576     92.46802         6     0.830     0.522  45.19   0
       666    213.5314     24.2455 307.8555112  +6.6677838     770.8806      966.972     381.0883     78.15582     155.8782     311.7564      1.420     2.93     831.0026      54.9576     133.3464         6     0.854     0.648  65.86   0
       667    267.8744     23.6135 307.8329546  +6.6698704     872.8181     1378.732     1861.145     77.65958     155.6921     311.6013      1.821     5.06     832.8855      54.9576     118.9077         9     1.239     0.585  11.33   0
       668    968.9084   1017.8839 307.5084346  +6.2828556     5643.262      10137.2     10632.82      77.9081     156.2498     305.1765      1.912     4.04     854.7282      54.9576     631.0143        38     1.551     1.265  67.20  16
       669      3.8786     21.8154 307.9426959  +6.6617337     1237.167     1674.542     1694.596     77.78394     152.9994     271.7018      1.428     3.97      828.845      54.9576     172.7292        12     1.113     0.718  78.87  16
       670    534.9586     19.8512 307.7221123  +6.6803819     3051.254     4478.748      4418.29     78.15582     155.9402     311.7874      1.502     3.07     827.2677      54.9576     493.4326        21     1.236     0.900  75.00   0
       671    723.2950   1017.9496 307.6104051  +6.2746336     915.3751     1684.498     1721.233     78.03205     155.8782      304.828      1.992     4.24     858.9992      54.9576      142.925        11     1.022     0.885  31.20  19
       672    728.7332   1016.0022 307.6082126  +6.2756192     2629.883      4242.03     5050.246     77.65958     155.5679     311.5703      1.771     3.50     858.9642      54.9576     387.2106        27     1.313     1.158  84.82  18
       673    737.1599     17.8712 307.6381645  +6.6879649     2092.139     2955.113     2996.751     78.03205     155.9402     311.8494      1.460     3.00     825.8876      54.9576     365.1583        17     1.182     0.796  59.41   0
       674    253.0725   1017.7145 307.8056293  +6.2589865      1373.58     2017.836     1784.385     78.27938     156.2498     306.3461      1.531     3.16     859.9832      54.9576     217.6608        15     1.141     0.837  58.01  16
       675    796.5480     15.3491 307.6135730  +6.6909905     558.2618     691.5714     335.1853     78.27938     155.8162     311.8184      1.009     3.47     826.1513      54.9576     111.3322         5     1.081     0.321  68.40   0
       676    451.7006   1016.6511 307.7232047  +6.2660848     909.5977     1110.012     849.1172     78.15582     155.9402     311.6944      1.275     3.40      861.108      54.9576     131.0678         8     0.941     0.593 -72.18  16
       677    375.2194   1013.6818 307.7550559  +6.2647480      1784.94     2884.411     3049.112     77.78394       155.63     311.7254      1.741     4.52     859.9716      54.9576     253.7986        20     1.366     1.098  73.67   0
       678    743.7760   1014.7283 307.6020099  +6.2766476     969.0672     1494.128     1211.707     77.78394     155.8162     311.7564      1.529     3.45     858.6797      54.9576     142.5018        11     1.040     0.738  58.07   0
       679    557.6301   1003.7248 307.6796607  +6.2749674     4146.167     6323.029     7207.474     78.03205     156.0022     311.7874      1.735     3.22     860.1404      54.9576     562.9295        34     1.514     1.128  78.10   3
       680    554.6917    995.8223 307.6811457  +6.2781316     8349.509     12469.71     13501.21     78.15582     155.7542     311.6324      1.589     3.01     859.8938      54.9576     1149.788        37     1.465     1.073  70.39   3
       681    762.1548   1003.1523 307.5947670  +6.2820403     7855.376     12445.61     12913.76     78.15582     155.8162     311.7874      1.697     3.47     857.6851      54.9576     1023.837        41     1.481     1.226  72.58   0
       682    527.8696   1005.0496 307.6919718  +6.2734246     1188.219     1604.243      1313.47     78.15582     155.8782     311.8184      1.423     4.00     860.5241      54.9576     164.7397        10     0.989     0.708  66.94   0
       683    307.7953   1002.3221 307.7834291  +6.2671769     15324.34     23115.87     25564.87     77.78394     155.4436     311.5703      1.664     3.25     859.0301      54.9576     1986.548        61     1.650     1.403 -50.48   0
       684      3.9066   1003.2881 307.9095532  +6.2565702     818.3147     1080.292     1390.638     78.15582     153.6927     272.3059      1.440     4.70     852.2678      54.9576      95.6745         9     0.917     0.708  73.41  16
       685    823.4973   1002.5093 307.5693205  +6.2843536     1069.108     1602.967     1565.093     78.15582     156.3734     311.7874      1.651     4.34     856.4027      54.9576     161.6336        14     1.073     0.965 -73.50   0
       686    432.1272   1002.4420 307.7318080  +6.2712951     965.1907     1389.511      1067.42     78.03205     156.0022     311.8184      1.459     5.40     860.4553      54.9576     134.9298        11     1.145     0.736 -89.84   0
       687    134.6619   1003.0267 307.8552810  +6.2610740      480.172     719.7844     911.3689     77.78394     155.9402     311.6944      1.531     3.47     854.1681      54.9576     97.15759         5     0.785     0.582  -3.65   0
       688    278.8009    999.7230 307.7955536  +6.2672772     1014.476     1186.676     875.5292     77.41027     155.3814     311.5393      1.376     4.33     858.9914      54.9576     176.1185        11     1.067     0.799  87.84   0
