#   1 NUMBER                 Running object number                                     
#   2 X_IMAGE                Object position along x                                    [pixel]
#   3 Y_IMAGE                Object position along y                                    [pixel]
#   4 ALPHA_J2000            Right ascension of barycenter (J2000)                      [deg]
#   5 DELTA_J2000            Declination of barycenter (J2000)                          [deg]
#   6 FLUX_APER              Flux vector within fixed circular aperture(s)              [count]
#   9 FLUXERR_APER           RMS error vector for aperture flux(es)                     [count]
#  12 FLUX_RADIUS            Fraction-of-light radii                                    [pixel]
#  13 FWHM_IMAGE             FWHM assuming a gaussian core                              [pixel]
#  14 BACKGROUND             Background at centroid position                            [count]
#  15 THRESHOLD              Detection threshold above background                       [count]
#  16 FLUX_MAX               Peak flux above background                                 [count]
#  17 ISOAREA_IMAGE          Isophotal area above Analysis threshold                    [pixel**2]
#  18 A_IMAGE                Profile RMS along major axis                               [pixel]
#  19 B_IMAGE                Profile RMS along minor axis                               [pixel]
#  20 THETA_IMAGE            Position angle (CCW/x)                                     [deg]
#  21 FLAGS                  Extraction flags                                          
         1    182.4564     28.9780 307.8656354  +6.6672423     3320.683     9269.715     11558.54     93.55247     187.4782     374.7698      2.692     8.68      1257.64     66.09872     431.9709        54     2.558     1.561 -47.10   3
         2    711.4556     19.3727 307.6454076  +6.6887544      2735.98     6745.454     8239.872     93.55247     187.6273     374.8072      2.543     8.61     1226.679     66.09872     320.6288        41     2.296     1.267 -31.32   3
         3    710.2290     15.8701 307.6460373  +6.6901599     2017.774     3515.651     4023.138     93.70179     187.5527      374.919      1.902     5.90     1226.569     66.09872     275.4662        17     1.626     0.760 -21.40   3
         4    631.2358     18.4034 307.6788872  +6.6865001     1357.244     4081.775      5643.44     92.95277     187.4036     374.7325      3.068    10.66     1228.693     66.09872     184.7184        37     2.088     1.665  -5.03   2
         5    431.3852     13.9604 307.7623619  +6.6817113     1496.016     6760.482     9258.198     93.55247      187.329     374.7325      3.218     9.31     1244.333     66.09872      233.061        58     2.260     2.095 -59.05  16
         6     33.4507     15.2782 307.9282216  +6.6679381     2946.891     7367.586     10024.95     93.99973     187.6273     374.9936      2.874     8.63      1259.68     66.09872     338.5956        53     2.456     1.832 -39.99  18
         7     32.0108     11.3340 307.9289560  +6.6695184     1846.917     3256.834     4124.791      93.4029      187.329     374.8072      2.039     5.82     1259.432     66.09872      229.343        13     1.422     0.672  15.55   3
         8    328.1904      8.9643 307.8055557  +6.6803486     3150.686     13719.31     18958.69      93.4029     187.2543     374.7325      3.219     9.32     1254.578     66.09872     481.5082        81     2.464     2.210 -32.52  16
         9    654.9891      3.1868 307.6694978  +6.6935686     3500.237     9928.241     11812.98     93.70179     176.8879     315.7278      2.646     8.40     1228.165     66.09872     404.1331        49     2.225     1.474  -8.30  24
        10    416.0349      1.2472 307.7691925  +6.6864507     977.8612     1390.558     1184.971     80.19494     147.5883     280.5079      1.445     5.28     1247.434     66.09872     249.5259        10     1.596     0.529  -4.90  24
        11    254.8884      1.8509 307.8363581  +6.6808499     1880.752     3555.216     3069.863      88.7989     157.9303     292.4164      1.942     7.50     1257.894     66.09872     283.3811        21     1.802     0.873  -4.51  24
        12    601.2452    998.6814 307.6582740  +6.2807825     804.5361      2048.96     1577.979     93.99973     187.5527     374.9563      2.278     7.34     1286.969     66.09872     117.7941         9     1.542     0.978 -56.07   0
        13    960.0785   1022.6780 307.5079705  +6.2827272     5220.045     8200.112     8847.216      93.4029     165.8749     300.8995      1.710     4.40     1283.726     66.09872     599.6559        27     1.594     0.946 -11.91  24
        14    719.7928   1021.1433 307.6081283  +6.2754290     2009.109     3777.375      4169.96      93.4029     183.7117     326.3537      2.051     5.66     1286.875     66.09872     218.1304        24     1.433     1.228 -11.97  26
        15    715.7172   1023.2248 307.6097560  +6.2744349     915.7383     1353.493     2231.006     87.84916     156.6861     290.5939      1.750     5.50     1286.966     66.09872     151.8141         8     1.184     0.722   3.60  27
        16    442.8373   1022.1756 307.7234733  +6.2658368     710.0789     1233.285     1120.722     93.55247      172.567     309.5566      1.764     4.42     1287.304     66.09872     81.72693         6     1.174     0.472 -63.57  24
        17    244.7612   1023.2728 307.8059520  +6.2588130     787.6191     1242.858     1095.259     87.21025     155.8809     289.7266      1.646     4.45      1287.64     66.09872     139.5839         8     0.947     0.638   6.71  24
        18    532.4908    997.3051 307.6869641  +6.2790749     2097.399      5476.08     6683.146     93.99973     188.1481     374.9936      2.519     6.69     1287.651     66.09872     281.5834        38     1.852     1.461 -20.62   0
        19   1009.8604    997.3890 307.4880807  +6.2948094     4009.064     7257.285     8622.919      93.2531     187.4036     374.6579      2.020     4.19     1281.199     66.09872     466.6251        37     1.634     1.335 -11.98   0
        20    642.4816    995.9152 307.6411879  +6.2832888     869.1787     1970.641     2688.674     93.70179     187.9251     375.0682      2.551     6.57     1286.199     66.09872     121.5514        10     1.432     0.846  19.98   0
        21    484.6374    992.5434 307.7070611  +6.2794560     851.0165     2335.621     3147.041     93.99973     187.6273     374.9936      2.898     9.87     1287.547     66.09872     138.3818        15     1.811     1.500 -84.13   2
        22    919.7971    985.5013 307.5260034  +6.2967482     32410.09     63635.46     69059.14     93.70179     187.2543     374.6206      2.061     4.51     1283.598     66.09872     3618.613        75     1.840     1.499 -35.56   0
        23    226.9153    984.1521 307.8147117  +6.2743717     952.7134      2209.04     2910.606     93.99973     187.5527     375.0309      2.585     7.59     1286.559     66.09872     120.5126        15     1.550     1.041  13.73   0
        24    818.0216    979.2810 307.5686153  +6.2959577     1632.084     3327.316     3826.363     93.70179     187.1796      374.919      2.209     5.72     1283.464     66.09872     200.8755        21     1.300     1.254 -47.06   0
        25    765.9443    977.2942 307.5903790  +6.2950581     3863.719     8911.675     10858.47     93.85088     187.5527     375.2173      2.407     5.27      1283.95     66.09872     417.5348        46     1.812     1.539 -43.28   0
        26     60.7549    974.8380 307.8842478  +6.2726939     1552.563     3755.526      3689.15     93.70179     187.4782     374.8817      2.304     7.10     1283.304     66.09872      202.755        30     1.603     1.483 -32.66   0
        27    954.1028    972.3406 307.5121534  +6.3033134     5031.909     9816.064      10397.3     93.70179     187.5527     375.1427      2.050     4.74     1282.333     66.09872     542.1819        39     1.725     1.284 -47.10   0
        28    237.3850    975.8633 307.8106309  +6.2781415     716.7194     1281.043      1550.76      93.4029     187.4036     374.8072      2.481     4.73     1286.366     66.09872     106.8787         7     0.971     0.695 -37.27   0
        29    927.9161    963.7311 307.5233534  +6.3060045     1495.928     2786.954     2957.954     94.29673     187.8507     375.0309      2.033     7.72      1282.58     66.09872     173.0024        24     1.731     1.203 -28.26   0
        30    260.3054    963.2711 307.8015089  +6.2841014     1207.895     2091.574      2709.83     93.99973     187.6273     374.9936      1.852     5.18     1286.321     66.09872     166.3127        12     1.492     0.583  20.34   3
        31    261.5561    960.2072 307.8010916  +6.2854079     2192.195     4540.168     4448.394      93.4029     187.2543     374.6206      2.167     6.36     1286.299     66.09872     220.0192        26     1.789     1.089  15.54   3
        32    787.8544    960.5093 307.5818163  +6.3027119     916.8155     2055.021     2569.046     93.85088      187.329     375.1427      2.490     8.07     1282.557     66.09872      127.792        15     1.500     1.214  39.15   0
        33    648.9216    960.1099 307.6397130  +6.2982848     2503.823     6357.816      7042.32     93.70179     187.8507     375.0682      2.431     6.46       1284.6     66.09872     292.0377        39     1.741     1.546 -21.10   0
        34     30.3310    957.9579 307.8974949  +6.2786505     1194.463     2717.929     2835.827     93.85088     187.4782     375.0682      2.354     6.85      1283.12     66.09872     152.0535        19     1.647     1.071  27.84   0
        35    469.9684    958.1502 307.7143347  +6.2931698     599.8438       1390.1     1369.897     93.70179     187.5527      374.919      1.891     5.01     1286.685     66.09872     125.1902         6     1.463     0.485 -47.38   0
        36    880.3707    956.1671 307.5434171  +6.3075590     773.6721     1208.868     1374.355      93.4029     187.2543     374.6952      1.534     5.22      1282.37     66.09872     102.1742         7     1.142     0.673  28.26   0
        37    572.7970    951.7123 307.6717119  +6.2992332     740.7477     1513.801     1180.741      93.2531     187.1049     374.6952      2.081     6.01     1285.823     66.09872     93.20898         8     1.391     0.730 -57.59   0
        38   1003.1642    952.1919 307.4923902  +6.3132497     620.8377     1348.347     1619.824      93.4029      187.329     374.6952      2.384     3.37      1280.95     66.09872     107.7103         5     0.969     0.339 -45.47   0
        39    612.6288    947.8640 307.6552468  +6.3021402       665.12     1413.158     1695.988     93.70179     187.6273      374.919      2.186     5.27     1284.779     66.09872     106.2681         7     1.438     0.546  15.79   0
        40    294.1276    946.7307 307.7879785  +6.2920531     663.4151      1032.58     1853.963     94.14835     187.7018     374.9936      1.772     3.94      1286.68     66.09872     90.84705         6     1.251     0.354 -60.63   0
        41    759.7183    942.6310 307.5941412  +6.3091639     635.7466     1184.034     1261.656     93.85088     187.4036     374.9936      1.745     4.48     1282.092     66.09872     107.3984         5     1.295     0.441  42.21   0
        42    896.8311    939.2885 307.5371272  +6.3150709     4730.519     9820.755     10374.85     94.14835      187.329      374.919      2.139     4.89     1281.514     66.09872     554.2634        40     1.690     1.411 -35.43   0
        43    334.6879    935.3085 307.7714674  +6.2981149     4519.637     12553.91     14928.99     93.99973     188.0738     375.1427      2.646     6.17      1286.62     66.09872     507.6573        67     2.000     1.938 -35.10   0
        44    434.2354    936.3577 307.7299586  +6.3009830     1006.392      2039.51     2083.677     93.70179     187.5527     374.8072      2.228     6.05     1286.425     66.09872     129.3658        12     1.125     0.914  63.43   0
        45    254.7901    934.3952 307.8047847  +6.2958400      3271.04     8982.177      10624.5      93.4029     187.2543     374.8445      2.666     6.28     1285.645     66.09872      401.015        55     2.023     1.731 -45.31   0
        46    582.4582    927.3926 307.6685080  +6.3095938     662.6183     1208.273     1892.262      93.2531     187.4036     374.6952      1.630     3.52      1284.77     66.09872     94.68933         5     1.098     0.326 -20.30   0
        47    913.0153    923.6528 307.5309105  +6.3220604     749.0762     1456.232     1857.385      93.2531     187.5527     374.6579      2.518     4.42     1280.726     66.09872     111.8307         6     0.903     0.616 -41.64   0
        48    749.3730    917.1537 307.5993103  +6.3193410     1085.986     2469.711     4207.409     93.55247     187.6273     374.8817      3.827     7.95     1280.872     66.09872      156.587        15     1.619     1.171 -74.64   0
        49    535.5044    913.5022 307.6885396  +6.3137743     634.1765     1273.723     1362.202     93.99973     188.2224     374.8072      1.614     4.58     1285.238     66.09872     91.70605         6     1.238     0.482  83.35   0
        50    980.1928    912.7297 307.5032884  +6.3287856     918.2767     1704.816     2453.268      93.4029     187.1049     374.8817      1.883     6.41      1279.19     66.09872     125.8804        13     1.429     0.809 -14.02   0
        51    667.4401    910.6853 307.6336653  +6.3193033     1380.413     3219.999     4018.565     93.99973     187.4782     374.9563      2.572     8.17     1282.142     66.09872     163.7467        21     1.576     1.184  -0.40   0
        52     64.6844    907.5229 307.8848954  +6.3006158     1623.061     4206.464     4501.142     94.14835     187.9251     375.1054      2.465     8.48     1282.896     66.09872     205.9701        34     1.927     1.534   0.39   0
        53    209.3351    906.2473 307.8246757  +6.3059514     998.2013     2332.792      2725.58     93.85088     187.4782     375.0682      2.717     9.61     1284.461     66.09872      128.291        19     2.309     1.115 -41.60   2
        54     82.1536    905.8108 307.8776757  +6.3019038     847.3504     1923.363     2752.906      93.4029      187.329     374.6206      2.240     6.54     1282.909     66.09872     115.6187        11     1.543     0.779  16.92   0
        55    662.1835    900.0062 307.6362157  +6.3235385     3563.517     9167.724     11159.69     93.55247     187.2543     374.8072      2.546     6.05     1281.782     66.09872     410.1848        50     1.959     1.642 -33.54   0
        56    345.2795    893.6736 307.7684639  +6.3156558     6986.743     20999.29      25890.8     94.29673     187.8507     375.0309      2.800     6.68     1285.426     66.09872     822.5347        76     2.171     1.974 -47.10   0
        57     35.1256    898.7928 307.8975062  +6.3032365     533.4828      1360.87     1347.739     93.55247     187.0302     374.8445      2.319     5.63     1282.691     66.09872     99.34058         6     1.398     0.638  14.86   0
        58    899.7795    895.7123 307.5373656  +6.3331598     1778.866     3950.371      4573.38     93.85088     187.2543     374.8817      2.359     6.75     1278.969     66.09872     195.7142        32     1.864     1.322 -26.37   0
        59    109.0235    884.1675 307.8672158  +6.3117330     997.3601     2284.983     1782.333      93.4029     187.4036     374.7698      2.321     7.16     1282.885     66.09872     132.5963        12     1.350     1.065 -13.77   0
        60    889.9730    878.0815 307.5420452  +6.3401155     1166.149     2786.066     2686.936     93.85088      187.329      374.919      2.458     8.86      1277.84     66.09872     160.1382        20     1.722     1.274 -58.39   0
        61    860.8614    877.3776 307.5541986  +6.3394455     1141.662     2622.403      2730.62     93.55247     187.4782     374.8817      2.202     7.11     1277.768     66.09872      146.228        16     1.487     1.237 -15.40   0
        62    824.4527    876.8173 307.5693876  +6.3384749     1751.506     4498.671     5344.851      93.4029     187.6273     374.6579      2.457     8.04     1277.685     66.09872     204.8914        34     1.800     1.428 -31.49   0
        63    560.2574    868.5594 307.6797447  +6.3331494     144558.8     420917.8     504921.5     93.99973     187.5527     375.0309      2.694     6.59     1283.076     66.09872     15507.79       182     2.298     2.029 -33.74   0
        64    406.3085    870.3567 307.7438261  +6.3273067     2810.301     5556.681     7354.794     93.99973     187.5527     375.1054      2.479    10.42     1284.139     66.09872     348.6376        31     2.741     1.105 -61.67   3
        65    403.6808    869.6699 307.7449441  +6.3275031     2691.935     4919.636     6588.463     94.29673     187.9251     375.0309      2.202     8.54     1284.156     66.09872     326.9723        25     2.288     0.890 -56.20   3
        66    347.8257    869.8547 307.7682093  +6.3255743     5216.385        15900     19489.55     93.55247     187.6273     374.8072      2.771     6.83     1284.604     66.09872     576.4755        73     2.162     1.921 -27.13   0
        67    665.9860    865.7921 307.6357858  +6.3377904     1597.675     4583.197     5473.607     93.55247     187.2543     374.8072      2.498     7.78     1280.112     66.09872     188.1992        36     1.777     1.575 -54.60   0
        68    898.2707    864.3802 307.5390491  +6.3460463     3253.798     7671.832     9688.732     93.55247     187.4036      374.919      2.553     5.63     1276.963     66.09872     343.6611        42     1.798     1.462 -27.97   0
        69    641.0123    859.6451 307.6463988  +6.3395023     1659.592     4048.753     5619.706      93.4029      187.329     374.6579      2.817     7.24     1280.757     66.09872     242.4568        36     1.861     1.644  -9.15   0
        70     92.0502    877.3538 307.8745184  +6.3139816     1163.047     2707.448     3732.251     93.99973     187.4036     375.0309      2.921     8.16     1282.539     66.09872     161.7955        17     1.969     0.945   5.37   0
        71    633.9681    852.8763 307.6495623  +6.3420639     930.5736     1815.823     2822.754     93.85088     187.5527      374.919      2.142     7.24     1280.555     66.09872     149.2941        14     1.810     0.812   3.83   3
        72    634.2015    856.4295 307.6493451  +6.3406046     1000.779     2109.692     3467.543      93.4029      187.329     374.7698      3.307     4.93     1280.761     66.09872     146.4785        10     1.206     0.689  78.35   3
        73    631.6863    856.0588 307.6504056  +6.3406744     877.1818     1970.574      3015.55     93.99973     187.5527     375.1427      2.684     6.25     1280.838     66.09872      139.702         9     1.525     0.719  65.37   3
        74    917.3329    852.0289 307.5315222  +6.3517747     2107.162     4548.149     5078.214     93.70179     187.5527     374.9563      2.234     5.40      1276.19     66.09872     248.8025        32     1.622     1.372 -36.22   0
        75    376.2499    847.8813 307.7571103  +6.3355892     1048.242     3114.442     4563.513     93.99973     187.6273     375.0309      3.070     9.21     1283.796     66.09872     119.3107        22     2.003     1.181  44.66   2
        76    512.3247    837.1486 307.7007773  +6.3445307      1385.26     3297.446     4380.355     93.99973     187.6273     374.9936      2.911     6.46     1281.149     66.09872     182.3412        18     1.613     0.931  20.71   2
        77    560.3073    833.3193 307.6809143  +6.3477006     2325.343     4852.707     7262.361     93.70179     187.8507     375.0682      2.987     6.62      1280.42     66.09872     266.7274        24     1.621     1.351  -9.35   3
        78    557.7792    833.0455 307.6819769  +6.3477299     2420.438     5027.085     7729.165     93.55247     187.4782     374.8072      3.127    10.32     1280.437     66.09872     301.4738        34     2.731     1.515  89.00   2
        79    893.5700    831.7413 307.5421066  +6.3593670     873.7276     1755.492     1945.547     93.70179     187.5527      374.919      2.176     5.49     1275.035     66.09872      122.699         9     1.322     0.642 -48.43   0
        80    477.1859    832.1896 307.7155858  +6.3454139     791.1417     1849.362     2442.298     93.70179     187.2543      374.919      2.834     7.10     1281.118     66.09872     140.9659        10     1.606     0.880  17.83   0
        81    529.3459    828.2849 307.6939848  +6.3487540     8017.479     24520.53     30326.35     93.99973     187.5527       375.18      2.785     6.74     1280.274     66.09872     901.1014        78     2.164     1.978 -35.64   0
        82    942.5571    825.1553 307.5219163  +6.3637022     2273.178     4724.917     5473.843     93.99973     187.5527     374.8817      2.326     6.05     1273.936     66.09872     262.0255        23     1.575     1.152 -29.32   2
        83    323.2397    818.2983 307.7801984  +6.3460442     1008.251     2634.586      3464.36     93.99973     187.4036     375.2545      2.530     9.31     1283.529     66.09872     161.0764        17     2.145     1.128 -54.61   2
        84    321.4361    816.0723 307.7810252  +6.3469034     1068.068     2298.053     2979.679     93.85088     187.5527     374.9936      2.340     6.07     1283.509     66.09872     157.8545        10     1.556     0.667 -32.09   3
        85    787.3749    812.5963 307.5870008  +6.3637656     26843.41     71667.92     83834.96      93.4029     187.1796     374.8072      2.554     6.04     1275.173     66.09872     2910.534        94     2.148     1.799 -36.99   0
        86     23.2714    816.7598 307.9052303  +6.3367095     934.4214     2276.965     3395.878     93.85088     187.5527     375.0682      3.284     6.78     1280.143     66.09872     131.0168        12     1.794     0.718 -77.31   2
        87    244.3033    789.6303 307.8140587  +6.3552594       699895      2578177      3357613     94.14835     187.2543     375.0309      3.059     9.03     1282.011     66.09872     64271.03       566     2.726     2.484 -71.96   4
        88    416.2426    802.7758 307.7419732  +6.3555379     7999.447      26509.2     32735.86     93.55247     187.4036     374.7698      2.844     7.05     1282.453     66.09872     886.6467        81     2.240     1.990 -24.61   0
        89    952.6799    800.8895 307.5185148  +6.3740550     1280.997     2843.355      3053.29     93.70179     187.8507     375.1054      2.275     8.51     1272.337     66.09872     153.6073        22     1.762     1.224 -37.55   0
        90    404.9911    803.6192 307.7466328  +6.3548166     568.4657     930.8209     2176.925     93.70179     187.2543     374.7698      2.762     4.87     1282.543     66.09872     94.51819         5     1.470     0.456  -6.81   1
        91    909.5328    799.1293 307.5365531  +6.3733585     3719.796     8942.864     10858.29     93.99973     187.7018     374.9936      2.480     5.70     1272.904     66.09872     385.5637        48     1.888     1.582 -26.71   0
        92    650.0784    798.3911 307.6446887  +6.3650922     2655.944     8068.154     10063.29     93.55247     186.9554     374.8072      2.780     7.10     1276.369     66.09872     294.3588        57     2.139     1.826 -38.64   0
        93    685.7335    787.9709 307.6301834  +6.3705736     1065.146       2647.7     3276.803     93.70179     187.5527     374.9563      2.624     8.67     1275.052     66.09872     153.2784        18     1.753     1.198  35.23   0
        94    419.1436    785.4444 307.7413508  +6.3627896     19697.42     65287.49     81522.89     93.99973     187.5527     374.9936      2.875     7.32     1281.004     66.09872     2128.315       108     2.352     2.075 -33.40   0
        95    536.7348    784.3541 307.6923905  +6.3671363     2738.014     9038.482     10559.86     93.99973     187.4782     374.9936      2.779     8.07     1277.533     66.09872     306.0541        57     2.121     1.846 -46.57   0
        96    453.6584    782.6025 307.7270656  +6.3651071     1669.076     5363.294     9025.113      93.2531     187.2543     374.6952      3.868    13.98      1279.21     66.09872     186.1434        54     2.587     2.103  63.18   2
        97    781.9313    780.6577 307.5903457  +6.3767725     5457.426     14571.59     16951.56     94.14835     187.4782      374.919      2.586     6.41      1273.29     66.09872     605.1205        63     2.081     1.731 -32.04   0
        98    710.5648    804.4466 307.6192809  +6.3645923     33251.13     105646.9     157903.8     93.55247     187.4782     374.8817      3.337    10.89     1276.138     66.09872     4253.543       172     3.448     2.166  25.65   0
        99    138.9872    772.8357 307.8585088  +6.3586933      3960.25     13235.76     21262.57      93.4029      187.329     374.6952      3.882    11.91     1280.303     66.09872     554.6769       112     3.845     2.043  24.09   2
       100    148.9853    773.0918 307.8543343  +6.3589200     1168.869     3264.477     3971.563     93.70179      187.329     374.7698      2.670     7.82     1280.444     66.09872     154.6301        24     1.761     1.410  48.82   3
       101    912.5780    807.7333 307.5349945  +6.3699066     4913.001     11570.21      13755.7     93.55247     187.5527     374.8817      2.374     5.82     1273.405     66.09872     514.5713        46     1.861     1.475 -36.02   0
       102    927.4016    769.1101 307.5301178  +6.3863423     3435.492     8346.254     9706.453     93.10305     187.1049     374.6952      2.415     5.63     1271.481     66.09872      356.837        43     1.756     1.560 -41.28   0
       103    975.6907    768.3928 307.5100197  +6.3882309     857.0543     1833.571     2670.595     93.55247     187.1796     374.7325      3.810     5.04     1269.837     66.09872     179.2096        10     1.430     0.713 -37.46   0
       104    683.3244    765.9275 307.6319311  +6.3795951     741.4348     1575.483     2619.313     94.29673     187.8507     374.9936      2.796     6.49     1273.481     66.09872     107.6112         9     1.246     0.949 -37.78   0
       105    570.1554    765.3022 307.6791084  +6.3761089     916.3898     2476.911     3897.269     93.99973     187.4782     375.2545      3.158     7.50     1276.064     66.09872     122.7432        16     1.961     0.802   7.32   0
       106    980.6043    760.0523 307.5082528  +6.3918365     1049.707     2391.272     2751.318      93.2531      187.329      374.546      2.309     5.85     1269.147     66.09872      172.964        11     1.533     0.629 -38.16   2
       107    921.5950    761.2458 307.5328021  +6.3893977     1678.402     4151.031     5011.633      93.2531     187.1796     374.6206      2.542     6.40      1271.17     66.09872     206.7544        32     1.683     1.417 -16.47   0
       108    673.5757    759.5692 307.6362078  +6.3818979     606.0481     1450.786     2141.226      93.4029     187.4036     374.7698      2.785     5.75     1273.204     66.09872     104.7338         6     1.471     0.633  49.48   2
       109    950.8634    760.4927 307.5206312  +6.3906740     1878.471     4367.029     4110.967     93.99973     187.7762     375.0682      2.315     7.60     1270.274     66.09872     189.4359        31     1.765     1.302 -35.67   0
       110    244.6756    755.6288 307.8150558  +6.3693096     641.3987      1883.58     3431.969     93.85088     187.6273     375.0309      3.027     5.46      1279.71     66.09872     126.3016         9     1.923     0.437 -69.56   0
       111    354.4276    805.0256 307.7676531  +6.3525589     7416.023     24917.61     30493.66      93.4029      187.329     374.8445      2.862     7.50     1282.883     66.09872     939.2488        80     2.265     1.993 -35.28   0
       112    965.8415    748.3375 307.5147988  +6.3961866     1561.025     3371.508      4036.19     93.99973     187.4782     375.0682      2.374     6.95     1269.013     66.09872     154.0969        22     1.524     1.223 -67.74   0
       113    938.9293    750.1384 307.5259527  +6.3945555     562.8472     824.8137     955.3328     94.14835     187.5527     375.0309      1.510     4.70     1270.268     66.09872     94.55298         5     0.969     0.648  34.86   0
       114   1005.9891    742.2778 307.4982727  +6.4000120     1049.509     2547.388     3028.895     93.55247     187.1049     374.8072      2.674     6.51      1266.83     66.09872      145.934        12     1.405     0.959 -69.93   2
       115    809.6060    740.1292 307.5801797  +6.3944198     519.1025     1329.591       1342.9      93.4029     187.1049     374.8817      2.119     5.22     1270.155     66.09872      109.807         5     1.441     0.534  50.07   0
       116    894.1086    737.0695 307.5450698  +6.3984727     963.7614     1699.726     2099.301     93.99973     187.7018     374.9936      2.152     6.17     1270.155     66.09872     171.7123        10     1.247     0.857   9.87   0
       117     52.9966    728.6556 307.8958370  +6.3740728     1040.673     2788.025     3618.133      93.2531      187.329     374.6206      3.080     9.32      1275.93     66.09872     127.7574        20     2.113     1.148  69.35   2
       118    850.8523    728.7636 307.5633750  +6.4004743     678.1295      1638.51     2437.211     93.85088     187.5527     375.0309      2.049     3.97     1269.448     66.09872     108.7854         6     1.634     0.276 -52.31   0
       119    664.0691    716.6981 307.6416161  +6.3992838     2344.397     7823.757     9602.885     93.85088     187.7018     374.9936      2.853     7.83     1270.463     66.09872     290.2284        53     1.978     1.898 -31.89   0
       120    128.9075    713.0179 307.8647381  +6.3830543     1472.688     3703.789     5508.694     93.85088     187.2543     374.8445      3.161     7.12     1276.661     66.09872      186.405        23     1.731     1.095  81.07   2
       121    639.2515    711.5471 307.6521316  +6.4005895     1001.317     2433.098     4567.777     94.14835     187.4036     375.0309      3.853     7.85     1270.387     66.09872     109.3401        14     1.597     1.080  39.01   2
       122   1000.5487    711.4893 307.5015754  +6.4125447     1372.616     3262.715     2882.093     93.99973      187.329     375.1427      2.309     6.34     1266.174     66.09872     177.1279        23     1.649     1.245 -46.64   0
       123    780.9141    708.7889 307.5931923  +6.4064117     8098.665     24866.29     30325.28     93.55247     187.2543     374.8072      2.729     6.82     1268.196     66.09872     917.2319        76     2.184     1.870 -41.49   0
       124    910.6349    708.4088 307.5391481  +6.4108514     1780.949     4640.691     5322.522      93.4029      187.329     374.7698      2.486     8.86     1267.907     66.09872      206.882        34     1.730     1.489 -45.52   0
       125    254.8124    702.8966 307.8126191  +6.3914173     2186.252     7201.691     8976.233     93.85088     187.2543     374.7325      2.886     8.20     1275.999     66.09872       262.89        53     2.076     1.880 -35.59   0
       126    661.4442    701.6064 307.6432193  +6.4054279     2650.813     8786.607     10982.47      93.4029     187.2543     374.6206      2.847     7.18     1269.486     66.09872     342.6487        62     2.136     1.922 -33.48   0
       127    920.3470    693.9795 307.5355867  +6.4171293     601.8642     1295.625     1664.203      93.4029     187.5527     374.7698      2.294     6.43     1266.899     66.09872      88.7793         8     1.528     0.760 -73.96   0
       128    733.0569    689.7349 307.6137777  +6.4126972     1671.638      4954.29     6167.523     94.14835     187.4782     374.9936      2.800     8.36     1267.512     66.09872     172.2357        45     1.945     1.680 -88.07   0
       129    999.3079    686.3616 307.5029378  +6.4228784     5068.422     11894.38     13169.71     94.14835     187.4782     375.0682      2.364     5.76     1265.699     66.09872     549.2129        52     1.946     1.544 -45.14   0
       130    937.9637    686.3428 307.5285024  +6.4208635     1135.877     3103.578     3385.318     93.99973     187.5527     375.0309      2.529     7.66     1266.296     66.09872      146.399        18     1.530     1.072 -14.29   2
       131     17.5213    686.5789 307.9120475  +6.3902634     899.9733     1940.009     3230.745     93.55247     187.1796     374.9936      3.065     3.89     1274.006     66.09872      146.553         7     1.248     0.640 -76.46   0
       132     77.1481    682.1235 307.8873536  +6.3940874     9019.345     30351.76     39674.17     93.99973     187.6273     374.9936      2.983     7.39     1274.259     66.09872     1193.451        94     2.305     2.157 -46.04   0
       133    536.2346    681.4930 307.6960749  +6.4095879     725.0309     1825.455     2501.346     94.14835     187.4036     375.0682      2.932     5.02     1272.299     66.09872     121.9004         6     1.091     0.654 -80.75   0
       134    508.6077    678.8553 307.7076765  +6.4097618     559.9164     1388.285     2028.461      93.4029      187.329     374.6579      2.944     5.09     1272.464     66.09872     94.32874         6     1.177     0.622  16.52   0
       135    722.7468    673.8657 307.6186095  +6.4189083     1326.703     3984.628     4690.377     93.99973     187.4782     374.9563      2.693     8.74     1266.807     66.09872     170.5708        36     2.127     1.500 -56.18   0
       136    743.9214    671.8593 307.6098531  +6.4204367     1589.784      3963.13      4642.81     94.14835     187.5527      374.919      2.413     8.14     1266.399     66.09872      173.722        29     2.027     1.100 -84.04   3
       137    747.0122    671.5659 307.6085750  +6.4206599     1320.287      2444.99     2809.225      93.4029      187.329     374.8072      2.196     6.91     1266.359     66.09872     150.2177        16     1.642     0.815 -79.76   3
       138    576.4736    668.5496 307.6797441  +6.4162643     1136.907     3211.969     5210.216     93.99973     187.6273     375.0309      3.138     7.97      1269.46     66.09872     156.0344        17     1.919     0.925  37.04   2
       139   1017.6427    667.8076 307.4959212  +6.4311433     2844.006     6820.348      7425.93      93.4029      187.329     368.6389      2.318     5.91     1264.912     66.09872     313.7196        40     1.714     1.581 -55.62  16
       140    982.9726    666.7679 307.5104045  +6.4304298     4271.048      10838.5     12118.74      93.4029     187.2543     374.7698      2.424     6.11     1264.899     66.09872     427.2816        54     1.981     1.643 -39.11   0
       141    413.1870    669.4368 307.7477578  +6.4104876      569.628     1326.016     2308.899      93.4029      187.329     374.6579      3.012     4.97     1274.122     66.09872      92.8822         6     1.201     0.583  30.44   0
       142    141.8655    661.0416 307.8611022  +6.4049439     7681.417     27863.81     36687.77     93.99973     187.4782     375.1054      3.035     7.75     1273.597     66.09872     926.7184        90     2.325     2.172 -47.01   0
       143    429.7126    661.7770 307.7411306  +6.4141980     1004.199      2919.24     4563.687     93.99973      187.329     374.8445      3.383     9.25     1273.153     66.09872     122.7943        20     2.106     1.133 -72.65   0
       144    977.9979    649.7747 307.5130494  +6.4372819     3853.372     9750.229     12033.16     93.55247     187.1796     374.7698      2.582     6.03     1263.467     66.09872     397.6796        52     1.897     1.693 -49.78   0
       145    571.5972    645.4440 307.6825568  +6.4256424     14402.41     55075.03     72120.38      93.2531     187.0302     374.5833      3.041     8.15      1268.09     66.09872     1591.057       110     2.446     2.164 -35.31   0
       146    181.2873    643.8005 307.8452601  +6.4133726     827.9762     2137.136     3155.084     93.10305     186.9554     374.6206      2.406     6.28     1272.826     66.09872     134.4474        10     1.861     0.595 -61.79   2
       147    468.8955    629.3552 307.7258990  +6.4288828     18144.95     71058.23     94492.12     93.99973     187.4782     375.1427      3.098     8.75     1269.083     66.09872     2153.737       116     2.450     2.231 -38.62   0
       148     14.2836    632.1956 307.9152440  +6.4126079     682.3713     1600.504     3039.323      93.4029     187.1049     374.6579      3.120     4.67     1271.979     66.09872      115.734         7     1.086     0.569 -67.40   0
       149    316.4570    619.7173 307.7897498  +6.4278056     905.4195     2242.286      3762.32     93.99973     187.5527     375.1054      3.383     7.35     1270.462     66.09872     118.3264        10     1.749     0.864 -53.48   2
       150    743.0000    612.9344 307.6122246  +6.4447347     1501.997      3210.87     4013.873     93.10305     187.1049     374.6579      2.188     7.77     1263.345     66.09872     220.6245        21     1.879     0.900 -62.19   3
       151    740.4765    610.4877 307.6133588  +6.4456615     1729.287       3502.9      5205.39     93.99973     187.9251     375.1054      2.669    11.39     1263.275     66.09872     222.6106        31     3.043     1.186 -63.33   3
       152    794.3456    607.7637 307.5910008  +6.4485662     5188.326     16932.92     21061.92     93.85088     187.5527     375.0309      2.842     7.58     1261.604     66.09872     560.9961        72     2.180     1.918 -35.94   0
       153    618.9792    604.3631 307.6641988  +6.4441719     1014.804     2810.667     4069.392     93.55247     187.2543     374.6952      3.019     7.91      1264.51     66.09872     146.0189        16     2.169     0.807   0.79   2
       154    869.0731    592.8730 307.5603598  +6.4571818     1122.766     2825.832     4695.566     94.29673     187.7018     375.0309      3.457     8.87     1260.568     66.09872     170.2615        17     1.697     1.293  -8.89   2
       155    829.5895    587.9373 307.5769811  +6.4579161     1135.843     2907.528     4148.446      93.4029      187.329     374.7698      2.811     9.03     1260.408     66.09872     150.0808        22     1.836     1.241 -77.09   0
       156    257.4033    584.0789 307.8155663  +6.4405584     2313.872     9060.292     11609.11      93.2531     186.9554     374.7698      3.016     8.12     1268.639     66.09872     315.6741        66     2.306     2.060 -67.22   0
       157    809.6296    579.7279 307.5855763  +6.4606463     56485.05     189958.5       235786     93.85088     187.5527     374.9563      2.865     7.54     1260.055     66.09872     6495.635       171     2.621     2.084 -33.30   0
       158    191.5944    578.6262 307.8431755  +6.4406229     15950.79     65378.23     90338.38      93.4029      187.329     374.7698      3.194     8.58     1269.089     66.09872      2276.72       127     2.543     2.302 -38.93   0
       159    115.6543    574.7487 307.8749529  +6.4396986      1755.37     6840.198     9192.906     94.14835     187.5527     375.0309      3.145     8.49     1268.738     66.09872     309.5566        61     2.171     2.066  11.91   0
       160    979.6423    570.4615 307.5150331  +6.4700828     684.1551     1364.006     1554.725     93.99973     187.5527     375.1054      2.307     5.14     1257.141     66.09872     122.0098         7     1.390     0.536  71.26   0
       161    846.1593    566.7964 307.5707880  +6.4671918     1699.802     5377.499     6706.779     93.10305     187.2543     374.6952      2.829     9.30     1259.317     66.09872     198.8798        45     2.058     1.661 -39.46   0
       162    366.8557    565.6102 307.7705795  +6.4518170     5219.765      13144.4     17993.59      93.2531     187.4782     374.6206      2.766    12.28     1266.393     66.09872     585.7314        59     2.949     1.491 -44.18   3
       163    363.5163    563.5109 307.7720423  +6.4525729     4729.868     9338.271     11187.01     93.70179     187.8507     375.1054      2.172     8.89     1266.276     66.09872     505.2576        28     2.078     1.062 -51.03   3
       164    169.1506    564.5897 307.8530045  +6.4456719     715.5755     1606.911      3234.19      93.4029     187.4036     374.6206      2.811     5.19     1268.106     66.09872     115.4507         6     1.525     0.500 -72.83   0
       165    799.6017    562.3793 307.5903404  +6.4674779     1595.755     2743.101     3113.467     93.55247     187.1796     374.6579      1.823     6.56     1259.243     66.09872     189.4738        14     1.643     0.735  12.84   3
       166    800.5596    558.9651 307.5900563  +6.4689192     2070.217     5142.941     5659.335     93.70179     187.5527     374.7698      2.408     7.66     1259.079     66.09872     238.4181        35     1.966     1.282   8.72   3
       167    530.0728    562.6053 307.7026612  +6.4584687     1767.376     3380.072     4177.272     93.55247     187.0302     374.8817      2.159     6.92      1264.73     66.09872     208.0411        19     1.986     0.717  15.27   3
       168    531.9601    559.1343 307.7019920  +6.4599643     2095.408     6074.664     7524.204     93.99973     187.4782     375.1427      2.736     9.73     1264.559     66.09872     241.7089        45     2.221     1.573   3.41   3
       169    180.0853    554.0441 307.8488054  +6.4503892     2161.357     5676.188     8418.264     93.99973     187.4036     374.9563      3.376    11.54      1267.23     66.09872     241.6021        42     2.694     1.378 -37.78   2
       170    177.0997    551.4885 307.8501363  +6.4513450     1922.984     3247.573     3651.008     93.99973     188.0738     374.9563      1.801     6.41     1267.018     66.09872      250.412        15     1.463     0.788 -47.63   3
       171     50.4415    552.6046 307.9028803  +6.4466709     1635.734     5879.744     7712.089      93.2531     187.1796     374.6579      3.076     8.36     1267.178     66.09872     265.9827        54     2.235     1.977 -36.59   0
       172    273.5197    550.2243 307.8099975  +6.4550709     21674.17     94283.17     131024.6     93.70179     187.2543     374.9563      3.234     9.09     1265.767     66.09872     3007.213       126     2.539     2.331 -42.89   0
       173    815.3289    553.7849 307.5840756  +6.4715458     522.3273     1237.882     1717.958      93.4029     187.4782     374.8817      2.832     5.14     1258.785     66.09872     95.16895         5     1.300     0.574 -60.47   0
       174    576.1298    552.6461 307.6838033  +6.4641059     940.0937     2825.905     3634.529     93.99973     187.4782     374.9936      2.896     8.77     1262.501     66.09872     147.5377        15     1.683     1.492   8.61   0
       175    500.1690    540.7867 307.7158613  +6.4664862     11680.42     45965.27     65158.66      93.4029     187.2543      374.919      3.248     8.63     1264.236     66.09872     1261.887       120     2.571     2.322 -24.81   0
       176    972.7041    542.1990 307.5188760  +6.4815230     988.0815      1908.75     2422.887      93.4029     187.1049      374.546      2.279     6.46      1255.15     66.09872     146.8716        11     1.206     0.971   3.02   0
       177    660.6978    537.4960 307.6490703  +6.4731597     874.7686     2377.158     3874.361     93.99973     188.2224     374.8072      4.271     7.79     1259.312     66.09872     134.0126        13     2.328     0.729 -29.17   2
       178    660.0281    533.0564 307.6494993  +6.4749705      1002.66     2307.089     3344.109     93.55247     187.6273     374.8817      3.880     7.79     1259.097     66.09872     148.4309        15     2.076     0.817  10.16   2
       179    399.5139    532.1596 307.7581017  +6.4667110     555.6006     1637.982     3204.591     93.99973     187.4782     374.9936      3.643     5.50     1263.157     66.09872     109.8179         6     1.484     0.576 -70.15   0
       180    330.2929    528.8475 307.7870618  +6.4657815     1253.346     3842.205     5598.331     93.85088     187.4782     375.1427      3.182    12.62     1263.558     66.09872     155.6582        37     2.358     1.927  -1.34   2
       181    144.6836    528.6533 307.8644200  +6.4596948     7335.834     29105.95     39361.52     93.99973     187.5527     375.1427      3.147     8.32     1265.641     66.09872     983.2959        96     2.389     2.262 -41.40   0
       182    796.4254    542.0463 307.5923497  +6.4757679     5722.704     19270.87     24160.64     93.55247     187.6273     374.8445      2.890     7.86     1258.332     66.09872     644.7649        76     2.250     1.961 -29.91   0
       183    111.4846    526.6929 307.8783217  +6.4593999     1038.448     2298.169     2899.119     93.70179     188.0738     375.1054      2.478     7.28     1265.644     66.09872     115.0223        16     1.509     0.983  68.44   0
       184    969.8142    522.4398 307.5207455  +6.4895858     2296.495     6628.218     7852.254      93.4029      187.329     374.6952      2.628     7.40     1253.622     66.09872     282.4755        46     2.073     1.592 -35.02   0
       185    872.0662    526.8800 307.5613357  +6.4845276     711.9549     1795.284     1957.595     94.14835     187.7018     374.9563      2.440     5.52     1256.298     66.09872     86.82031         7     1.597     0.538 -25.29   0
       186      9.0156    513.1815 307.9214829  +6.4615674     7680.129     28448.48      38652.7     93.70179     187.2543     374.8817      3.115     7.83      1266.47     66.09872     1058.229       101     2.377     2.275 -68.20  16
       187    441.5145    509.5748 307.7413620  +6.4774283     10762.64     46022.32      63556.5     94.14835     187.2543     374.8072      3.218     9.13     1261.146     66.09872     1304.781       114     2.551     2.271 -40.12   0
       188    649.4073    509.0634 307.6547359  +6.4845252     3404.587     13810.46     18393.94      93.2531     187.2543     374.7698      3.111     8.98     1257.804     66.09872      422.082        78     2.346     2.125 -39.01   0
       189    206.8672    507.3347 307.8392286  +6.4705637      5433.46     21439.66      30412.5     93.99973     187.5527     375.0309      3.250     8.56     1262.945     66.09872     670.8625        97     2.479     2.310 -36.54   0
       190    571.6359    508.2882 307.6871751  +6.4822710     878.3287     1894.636     3478.312     93.99973     187.4036     374.9936      3.549     5.31     1258.882     66.09872     124.4852         9     1.192     0.669  37.32   2
       191    945.0344    502.5016 307.5317447  +6.4970006     2276.283     6171.026     7587.094     93.99973     187.4036     375.1427      2.700     7.21     1252.799     66.09872     237.3196        42     1.878     1.582 -37.81   0
       192    617.3302    504.6401 307.6682542  +6.4852899     1199.084     2360.488     3914.531     93.85088     187.5527     375.0682      2.097     5.11     1257.671     66.09872     185.4418         9     1.296     0.571  23.54   3
       193    618.7637    500.4239 307.6677992  +6.4870781     1961.107     6218.597     8458.356     93.55247      187.329     374.7325      2.988    10.28     1257.363     66.09872     246.9468        51     2.309     1.831 -13.75   2
       194    967.4387    494.9861 307.5226597  +6.5008425      1376.88     4014.626     4967.525     93.55247      187.329     374.6579      2.717     9.81     1251.624     66.09872      162.151        31     1.820     1.474 -60.13   0
       195    531.9851    494.1053 307.7041799  +6.4868135     2202.329     5545.218     8472.434     93.70179     187.2543     374.7698      3.483    10.57     1258.328     66.09872     245.7379        46     2.753     1.506 -39.29   2
       196    529.1846    490.5159 307.7054684  +6.4882026     2089.238      4274.65     5314.198     93.55247     187.2543     374.8817      2.306     5.75     1258.062     66.09872     288.3427        27     1.626     1.195 -19.21   3
       197    376.6294    491.2632 307.7690236  +6.4828364     840.4963     2493.152      3705.79     93.70179     187.5527      374.919      3.183     7.77     1259.761     66.09872     145.2341        14     2.032     0.832  29.93   2
       198    886.4150    487.6799 307.5566760  +6.5011859     1314.295     3840.238     5234.466     93.55247     187.2543     374.7698      3.651    11.85     1252.823     66.09872     170.2542        33     2.678     1.460 -27.96   2
       199    891.7216    484.6464 307.5545664  +6.5026136      719.787     2016.835     4325.762     93.99973     187.6273     374.9563      2.646     3.86     1252.533     66.09872     130.4089         5     1.437     0.298 -77.27   2
       200    717.3726    481.2323 307.6273487  +6.4982637     654.2892     1420.685      2207.89      93.4029     187.2543     374.7698      2.088     3.97     1255.902     66.09872     107.3275         5     1.094     0.413  15.76   2
       201    718.2819    477.6714 307.6270899  +6.4997640     1170.107     2844.015     3463.931     94.29673     187.9251     375.0309      2.587     8.88      1255.63     66.09872      146.163        20     1.757     1.251  23.90   2
       202    391.2612    476.9475 307.7634102  +6.4892322     1234.098     3219.364     5505.131     93.99973     187.4782     374.9563      3.443     8.48     1258.321     66.09872     158.7828        22     1.934     1.038 -87.11   2
       203     81.5825    478.5305 307.8924184  +6.4782889     722.5811     1818.914     2595.404      93.4029     187.4036     374.8817      2.784     7.01     1263.716     66.09872     98.14978         9     1.633     0.843 -73.81   0
       204    617.5443    475.9738 307.6691333  +6.4971324      2625.32     4480.691     7376.507     93.55247     187.6273     374.8072      2.657     6.42     1255.813     66.09872      334.562        19     2.088     0.647 -29.95   3
       205    616.7991    471.9845 307.6695787  +6.4987548     3024.417     8117.308     11895.38     93.55247     187.1049     374.7325      3.308    10.26     1255.495     66.09872     726.2589        54     2.411     1.893 -24.25   2
       206    779.6725    469.8524 307.6017665  +6.5050214     5335.345     19221.41     25624.59     93.85088     187.5527     375.0309      3.051     8.20     1254.147     66.09872     598.7522        89     2.496     2.079 -45.70   0
       207    301.3893    470.4708 307.8010855  +6.4889234     780.2444     2105.422     2773.031      93.4029     187.1049     374.8072      2.545     8.46     1258.157     66.09872     120.8376        13     1.796     1.114  80.94   2
       208    297.2409    468.9600 307.8028656  +6.4894093     762.8591     1563.288     2310.705     93.70179     187.6273     374.8445      2.044     3.89     1258.104     66.09872     106.4205         5     0.827     0.525 -59.92   2
       209    963.4788    465.5920 307.5252998  +6.5128480     707.0273      1732.45     1654.985     93.55247     186.9554     374.7698      2.328     6.00     1249.904     66.09872     99.12781         8     1.204     0.843  89.60   0
       210    809.9336    465.8446 307.5892890  +6.5076758     641.4469     1558.437     1835.472     93.99973     187.4782     375.0309      2.161     5.54      1253.26     66.09872     100.1415         8     2.033     0.426  24.74   0
       211    118.2861    462.0882 307.8776803  +6.4862984     1437.427     4486.524     6378.203     93.70179     187.8507     375.1427      3.152    10.48     1262.281     66.09872     172.7683        32     2.222     1.377  59.33   2
       212   1018.5626    459.1809 307.5025563  +6.5173111     2028.384     5352.056     6242.191     93.55247      187.329     360.3926      2.548     7.44     1247.919     66.09872     223.5729        38     1.779     1.586 -25.00  16
       213    351.2653    459.5002 307.7806702  +6.4951084     809.7031     1829.065      2799.72     93.99973     187.7018     374.9563      2.716     5.03     1256.691     66.09872     91.09253         8     1.110     0.644  14.69   3
       214    355.3602    458.6257 307.7789932  +6.4956054     878.4179      1761.08     3190.594     93.55247      187.329     374.7698      2.818     6.81     1256.541     66.09872     120.5472        12     1.977     0.658 -60.45   2
       215    354.0040    454.4062 307.7797013  +6.4973024     769.0067     1915.878     3194.882      93.2531     187.1796     374.8817      3.174     6.54     1255.993     66.09872     134.9332         9     1.765     0.681  -3.18   2
       216    754.1211    458.9910 307.6127826  +6.5086613     690.4588     1445.811     2165.093     93.55247     187.0302     374.8072      2.743     5.46     1253.651     66.09872     96.62354         7     1.287     0.653  19.62   0
       217    719.8349    442.3867 307.6276333  +6.5143833     4255.869     10703.83     14355.65      93.4029      187.329     374.8072      2.703    11.72     1252.436     66.09872     484.2838        49     2.796     1.367 -35.91   3
       218    717.2179    439.6020 307.6288181  +6.5154466     4369.976     7457.146     9189.504     93.55247     187.0302     374.6579      1.848     7.41     1252.267     66.09872     474.3016        25     1.770     0.979 -40.06   3
       219    818.9733    442.0091 307.5863249  +6.5178155     730.1936     1473.477     2394.817     93.55247      187.329     374.8445      2.356     3.75     1251.373     66.09872     121.7095         5     0.990     0.409 -24.69   0
       220    637.8642    435.5178 307.6620307  +6.5145079     877.9039     1946.703     4235.751     94.14835     187.7018     374.9936      3.829     6.68     1252.391     66.09872      125.709        12     1.653     0.758  12.87   2
       221    611.5284    432.9511 307.6730941  +6.5146960     5124.583     17749.32     27962.15     93.99973     187.5527     375.0309      3.438     8.70     1252.442     66.09872     546.4597       112     2.894     2.319  27.24   0
       222    382.5786    428.0899 307.7686832  +6.5091156     6758.264     30160.55     43404.63     93.99973      187.329     374.8445      3.325     9.88      1252.85     66.09872     890.8503       104     2.545     2.333 -52.66   0
       223    942.2502    430.5973 307.5353262  +6.5265963     1402.764     4314.264     5245.813      93.2531     187.1049     374.5086      2.830    10.47     1248.404     66.09872     182.3676        31     2.046     1.492 -75.04   2
       224    128.7940    430.7776 307.8743639  +6.4995747     702.5861     1357.208      2276.08      93.4029     187.2543     374.8072      2.912     5.32     1260.619     66.09872     98.89014         5     1.141     0.701  76.87   0
       225    912.0733    421.8183 307.5482001  +6.5292253     1922.975     6190.336     7387.201      93.4029     187.4782     374.8817      2.761     8.53     1248.217     66.09872     232.5758        48     2.125     1.673 -38.95   0
       226     63.3526    423.6782 307.9018787  +6.5003280     705.1625      1667.06     2490.074     93.99973     187.6273      374.919      2.567     3.85     1262.492     66.09872     96.38855         5     1.042     0.408 -74.95   0
       227    240.1934    418.7107 307.8283448  +6.5082602     3231.184     14628.47     20448.13      93.4029     187.1796     374.7325      3.259     9.62     1256.056     66.09872     457.7428        82     2.420     2.237 -45.73   0
       228    141.9074    408.7157 307.8696474  +6.5091192     1698.789     4089.042     5107.917     93.70179     188.0738     375.1054      2.540    10.64     1258.925     66.09872     193.1748        33     2.272     1.389 -26.12   2
       229    139.8832    405.3276 307.8706060  +6.5104506     1234.241      2711.31     3971.139     94.29673     187.9251     375.0309      2.400     8.17     1258.893     66.09872     147.0936        16     1.943     0.961 -14.56   3
       230    161.3820    400.8587 307.8617975  +6.5130106     770.0919     1882.154     3218.994     93.55247     187.4036     374.7325      2.639     3.50     1257.652     66.09872     101.6189         5     0.774     0.456 -74.56   0
       231    385.1406    400.7807 307.7685401  +6.5204755     718.6986     1320.392     2281.768     93.55247     187.4036     374.8072      1.581     3.81     1250.728     66.09872     95.91223         5     1.193     0.348  11.29   0
       232    440.6881    391.1323 307.7457146  +6.5263015      2102.34      7264.58     10322.06     94.14835     187.7762     375.0309      3.154    11.29     1249.585     66.09872     250.3311        57     2.342     2.090 -84.03   2
       233    436.7671    392.5785 307.7472999  +6.5255744     1659.281     2911.436     3762.954      93.4029      187.329     374.7698      1.865     5.89      1249.76     66.09872     195.5209        11     1.428     0.684  84.99   3
       234     35.6154    395.5996 307.9143927  +6.5109967     920.3175     1925.146     3917.014     93.55247     187.1796     374.6952      2.652     6.76      1262.25     66.09872     113.0439        10     1.916     0.668  24.40   2
       235     38.2697    393.1059 307.9133712  +6.5121146     1145.636     2582.121     4409.672     93.85088     187.6273     374.9936      3.165     7.42     1262.162     66.09872     135.2318        17     1.795     0.860  73.60   2
       236    780.0054    388.3483 307.6043768  +6.5386831     3767.248     14666.82     19827.91      93.2531      187.329     374.5833      3.139     8.35     1247.603     66.09872     432.3811        79     2.398     2.042 -28.96   0
       237   1022.8582    383.2752 307.5033198  +6.5487924     1556.525     3120.639     3423.821     91.89387     162.8123     297.4413      2.116     7.67     1242.993     66.09872     177.0282        23     1.720     1.019 -86.96  24
       238    460.4151    377.2299 307.7379627  +6.5326953     734.2722     1883.015     3104.427     93.55247     187.2543      374.919      3.132     9.25     1248.325     66.09872     134.8943        13     2.228     1.072  -1.78   0
       239    845.4501    371.1825 307.5776765  +6.5479323     11442.22     39332.66     50244.01      93.4029     187.6273     374.7325      2.931     7.58     1245.383     66.09872     1171.644        96     2.333     2.083 -51.89   0
       240    489.0545    374.0000 307.7261348  +6.5349782     983.8975     3145.023     4222.437     93.10305     187.1049     374.5086      2.958     7.02     1247.668     66.09872     120.9637        12     1.434     0.962  72.80   2
       241    618.8651    365.1750 307.6723259  +6.5429214     962.3431     2020.696     3299.374     93.55247     187.5527     374.8445      3.239     5.00     1246.425     66.09872     178.6752        10     1.341     0.803  72.59   0
       242    701.9696    357.2750 307.6379526  +6.5489327     22236.48     88456.67     118635.7     93.85088     187.6273     374.9936      3.124     9.01     1245.657     66.09872       2537.1       128     2.521     2.232 -38.00   0
       243    103.0439    356.0000 307.8876348  +6.5295900     1695.031     3354.789     4201.591     93.10305     187.1049     374.5086      2.220     9.77     1258.066     66.09872     227.3508        27     2.713     1.126  11.80   3
       244    104.2329    353.0038 307.8872410  +6.5308665     2060.887     4440.122     5986.134     93.10305     187.4036     374.6952      2.574    11.89     1257.867     66.09872     281.2946        38     2.878     1.367  29.00   3
       245    566.4453    354.9393 307.6945215  +6.5454118     724.7211     1863.593     3131.078     93.85088     187.4782     375.1054      2.699     5.01     1245.761     66.09872     128.2303         7     1.940     0.365 -54.76   0
       246    548.7520    351.2815 307.7020201  +6.5463359     1992.178     5838.143     7525.545     93.99973     187.5527     375.0309      2.868    10.54     1245.427     66.09872     228.9313        50     2.676     1.516 -34.01   2
       247    546.2755    348.3448 307.7031517  +6.5474664     2146.607      3724.49     4422.208     93.85088     187.5527     374.9563      1.872     4.79      1245.07     66.09872     234.4025        18     1.299     1.050 -40.18   3
       248    564.3579    352.5662 307.6954718  +6.5463224     787.8666     1958.348     3469.486     93.70179     187.5527     374.7698      3.049     4.38     1245.594     66.09872     105.0824         5     1.013     0.539  40.65   1
       249    410.6977    345.6949 307.7597529  +6.5440661      5919.89      27217.3     38817.04     93.99973     188.2224     374.8072      3.312    10.16     1247.346     66.09872     812.9407        99     2.525     2.336 -44.08   0
       250    278.1909    346.3905 307.8149597  +6.5393804     831.5385     2240.834     3610.723     93.55247      187.329     374.8445      3.137     6.92     1249.586     66.09872     130.0735        11     1.852     0.725  28.03   0
       251    500.0370    338.6507 307.7227529  +6.5499367     2270.817     4476.511     6047.888     93.70179     187.4782     374.8817      2.677     8.27     1244.512     66.09872     257.9757        25     2.120     0.902 -10.53   3
       252    499.7893    334.1887 307.7230070  +6.5517707     2209.234     6390.055      8901.39     93.70179      187.329     374.9936      3.080    10.23     1244.024     66.09872     242.9445        49     2.557     1.553  -5.73   3
       253    770.9125    333.7798 307.6100078  +6.5609124     722.5883     2197.592     2919.474     93.70179     187.2543     374.8817      2.683     4.32     1243.578     66.09872     132.8153         5     1.132     0.470  22.18   3
       254    767.0040    333.1218 307.6116592  +6.5610549     1091.308      2631.92     3931.092     93.55247     186.9554     374.7698      2.913     9.91     1243.581     66.09872     129.3568        23     2.283     1.198 -81.36   2
       255    388.6035    318.2393 307.7698918  +6.5546685     2014.871     4247.219     5560.397     92.95277     187.2543     374.6579      2.425     9.58     1245.724     66.09872     224.2267        30     2.476     1.033 -54.20   3
       256    390.0279    323.2370 307.7691289  +6.5526524     1973.639     4147.636     4993.148      93.4029     187.1796     374.7325      2.174     6.42     1246.041     66.09872     221.4088        19     1.467     0.989  -5.06   3
       257    392.1979    319.6627 307.7683454  +6.5542001     2059.752     4049.064     4836.405      93.2531      187.329     374.6952      2.064     5.31      1245.79     66.09872     238.6095        21     1.484     0.976  83.41   3
       258    247.5349    320.3748 307.8286195  +6.5491027     759.2275     1719.884     2987.994     93.55247     187.5527     374.8817      3.453     3.79     1249.846     66.09872     121.8054         6     0.976     0.824  54.38   0
       259    757.3171    317.8555 307.6162122  +6.5670377     16534.91     37261.09     44132.79     93.99973     187.5527     375.1054      2.378     9.76      1242.83     66.09872     1584.445        58     2.470     1.313 -16.76   3
       260    756.6505    313.8447 307.6166254  +6.5686716     16363.65      35456.5      42133.6     94.14835     187.4036     375.0309      2.326     9.75     1242.591     66.09872     1793.714        50     2.315     1.145  -5.83   3
       261    430.9098    316.5187 307.7523157  +6.5567823     782.7076     1964.881     2844.031     93.70179     187.7762     375.0682      2.915     7.09      1244.51     66.09872     104.0444         9     1.436     0.982 -61.59   0
       262    991.0616    313.9269 307.5189081  +6.5763764     858.6859     1928.153     2061.881     94.14835     187.5527     375.0309      2.423     6.45     1239.033     66.09872      133.325        10     1.523     0.767  69.74   2
       263    932.3533    314.0117 307.5433781  +6.5744050     697.4844     1516.297      2086.26      93.4029      187.329     374.6579      2.575     5.82     1240.816     66.09872     101.7766         8     1.574     0.605 -12.68   2
       264    932.2054    310.4361 307.5435602  +6.5758764     814.9041     1470.473     1522.506     92.95277     187.2543     374.7325      1.834     4.86      1240.72     66.09872      99.2876         7     1.458     0.459 -50.41   2
       265    757.0115    301.8723 307.6168789  +6.5736266     1861.352     4225.572     5378.183      93.4029     187.1049     374.7698      2.441     9.70     1241.873     66.09872     215.0411        34     2.243     1.170 -41.41   3
       266    755.0233    298.9767 307.6178054  +6.5747564     1808.041     4276.421      4530.66      93.4029      187.329      374.919      2.232     8.74       1241.7     66.09872     188.6372        24     2.050     1.040 -42.33   3
       267    194.6031    303.3620 307.8512594  +6.5543671     573.3232     1359.639     1990.476     92.95277     187.2543     374.7325      2.267     4.61      1252.33     66.09872     81.81531         5     1.359     0.443 -46.07   0
       268    770.3857    298.7633 307.6114087  +6.5753522     775.5517     1819.641     2081.274     93.55247      187.329     374.7325      2.460     4.27      1241.65     66.09872     109.1763         6     1.089     0.476  -5.30   3
       269    774.2643    297.4667 307.6098357  +6.5760157     644.4396     1610.013     2207.749     93.99973     187.5527     375.0682      2.973     4.04     1241.528     66.09872     97.98389         5     0.924     0.504  -1.60   3
       270    362.3228    294.0585 307.7816653  +6.5637796     727.2669     2074.112     3333.927     94.14835     187.5527      374.919      2.501     4.94     1245.007     66.09872     110.4402         7     1.638     0.421 -69.09   0
       271   1010.4039    289.0038 307.5116840  +6.5873042     2632.498     7462.743     8570.372      93.2531     187.0302     374.7698      2.604     7.03     1237.363     66.09872     265.6519        49     1.962     1.712 -28.68   0
       272    252.8161    286.3669 307.8275715  +6.5633185     1802.226     4541.781     6734.662     93.55247     187.2543     374.8445      3.283    11.27     1248.694     66.09872     198.1191        40     2.598     1.785 -28.38   2
       273    250.4616    282.7160 307.8286767  +6.5647475     1547.122     2683.336     3204.942     94.14835     187.5527     375.0309      1.932     5.42      1248.81     66.09872     172.4548        14     1.117     1.067 -87.01   3
       274    156.8068    271.3964 307.8680984  +6.5663073     704.1389     1769.901     2714.607      93.2531     187.1796     374.8445      2.275     6.28     1255.268     66.09872     91.52881         8     2.097     0.528  67.27   0
       275    907.0626    267.8380 307.5554763  +6.5926343     745.2537       1421.5     1442.253     93.99973     187.6273     374.9936      1.816     4.51     1238.867     66.09872     100.4901         7     1.350     0.429  19.26   0
       276    567.3016    266.4230 307.6971570  +6.5819854     776.1348     1528.367     2878.698     94.14835     187.2543     374.7698      2.709     6.08     1236.322     66.09872     93.06982        10     1.434     0.725 -77.85   0
       277    725.6910    265.5862 307.6311596  +6.5875725     1197.685     2165.772     2794.793     93.70179     187.2543     374.7698      2.142     4.67     1239.333     66.09872     193.6556        11     1.210     0.698 -81.41   3
       278    729.5944    266.6815 307.6294955  +6.5872494     1537.354     3050.843     4016.041     93.55247     187.0302     374.7325      2.064     7.94     1239.481     66.09872     242.0251        21     1.910     0.922 -43.69   3
       279    727.4863    262.5121 307.6305150  +6.5889011     1436.046     2678.196     3491.317     93.70179     187.8507     375.1427      2.062     7.18     1239.155     66.09872     177.3232        20     1.878     1.019   0.20   3
       280    669.7623    265.8159 307.6544662  +6.5856278      700.005     2114.442     2821.864     93.70179      187.329     374.6952      2.965     8.26     1238.159     66.09872      102.806        13     2.080     0.917 -60.80   2
       281    230.1415    250.4464 307.8382412  +6.5773948     742.2896     1647.559     2219.301     93.99973     187.5527     375.1427      2.531     4.88     1250.637     66.09872     97.94287         6     0.984     0.686 -77.56   0
       282    461.9384    239.9982 307.7419718  +6.5894035     5165.318     24095.76     35741.53      93.2531      187.329     374.6579      3.367     9.99     1237.503     66.09872     744.6573       106     2.667     2.314 -43.88   0
       283    787.9675    240.2372 307.6060541  +6.6000969     4181.393     11598.57     16239.49     93.55247     187.2543     374.7325      2.912    10.45     1237.821     66.09872     441.0978        61     2.656     1.980 -60.91   2
       284    786.2072    237.3709 307.6068846  +6.6012221     3214.519      5158.83     7019.781      93.4029      187.329     374.7698      1.598     6.37      1237.62     66.09872     458.5443        15     2.001     0.569 -56.37   3
       285    151.8956    234.2813 307.8714054  +6.5814668     809.3666     2170.861     3396.513     93.70179     187.9251     375.1054      2.674     6.38     1256.325     66.09872     108.2024        11     2.041     0.561 -69.90   0
       286    587.5872    226.0880 307.6900643  +6.5993101     1276.052     3404.837      4830.44     93.55247     187.2543     374.8445      2.741     9.89     1233.836     66.09872     181.8192        31     2.836     0.962 -46.11   2
       287    583.9421    224.0761 307.6916518  +6.6000200     1349.323     2791.421     3800.145     94.14835     187.5527     374.9563      2.503     7.86     1233.732     66.09872     157.2052        21     1.614     1.207 -60.93   3
       288    892.1965    223.7248 307.5631602  +6.6103567     3888.425     8731.474     11396.49      93.4029     186.9554     374.8817      2.452    10.15     1235.752     66.09872     407.8177        38     2.471     1.163 -24.23   3
       289    891.5235    220.4780 307.5635502  +6.6116750      3877.41      7735.13     9108.709     94.29673     187.8507     375.1054      2.090     8.25     1235.512     66.09872     447.7694        26     1.848     1.028 -22.24   3
       290    947.8116    224.4416 307.5399510  +6.6118960     850.0244     1836.807     2872.968      93.2531      187.329     374.6579      3.704     6.69     1234.611     66.09872     137.6827        10     1.493     0.842 -65.13   2
       291    945.6597    221.0438 307.5409626  +6.6132279     880.2952     2215.035     2785.804     93.85088     187.5527     375.1427      2.985     5.92     1234.521     66.09872     111.5939         8     1.330     0.747  80.86   2
       292    979.2554    219.5628 307.5270069  +6.6149475      4067.89     12449.46      14845.4     93.99973     187.5527     375.0309      2.719     7.10     1232.756     66.09872     424.5582        63     2.142     1.822 -45.41   0
       293    547.3907    223.1481 307.7069202  +6.5991924     530.1775      1021.58     1808.193      93.4029     187.4036     374.6952      1.998     4.59     1233.671     66.09872     84.40222         6     0.981     0.611 -21.65   0
       294     19.2174    219.4010 307.9272156  +6.5831935     6458.396     28515.86     39413.23     93.55247     187.0302     374.6206      3.206     8.81     1265.163     66.09872     943.0598       100     2.489     2.282 -56.24   0
       295    690.4102    222.6353 307.6473171  +6.6041387     943.2358     1874.678      3327.09      93.4029     187.2543     374.7325      2.022     4.48     1235.912     66.09872      157.356         8     1.261     0.452  -8.06   0
       296    693.2417    218.2074 307.6462863  +6.6060605     709.9977     1802.497     2960.693      93.2531      187.329     374.6579      2.943     6.14     1235.752     66.09872     106.7987         9     1.291     0.822  34.38   2
       297    833.0413    212.0932 307.5882131  +6.6132058     803.9312     1858.726     2888.932     94.14835     187.4782     375.1054      2.988     6.46     1235.676     66.09872     115.3438         9     1.507     0.778 -63.47   2
       298    346.2696    208.0710 307.7912703  +6.5987472     2194.229     7350.651     11996.31     93.99973     187.7018     374.9563      3.506    10.44     1242.959     66.09872     288.9388        82     2.729     2.212 -70.99   0
       299    885.6975    210.5013 307.5663152  +6.6156018     541.7401     1793.499     2799.918     93.99973     188.0738     374.8072      3.046     6.60     1235.034     66.09872     130.2711         9     1.960     0.624 -69.19   0
       300    743.7385    209.5224 307.6255285  +6.6113161     12708.09     34004.65     44639.59     94.29673     187.6273     374.9936      2.814    10.11     1235.935     66.09872     1286.178        78     2.696     1.774 -43.27   3
       301    741.7407    206.2453 307.6264720  +6.6126031     10838.77     18188.08     20250.79     93.85088     187.4782     375.1054      1.819     4.96     1235.699     66.09872     1261.208        25     1.550     1.090 -25.58   3
       302    509.4563    209.2225 307.7232048  +6.6036848     671.6392      1986.91     3425.578     93.55247     187.4782     374.7698      2.308     4.05     1233.329     66.09872     104.6611         6     1.449     0.324 -47.59   0
       303    975.2648    208.0951 307.5290567  +6.6195506     1108.818     2113.037     2319.773     93.99973     187.7018     375.0309      1.980     6.35     1232.463     66.09872     138.6038        12     1.473     0.769  -2.37   3
       304    975.9540    204.7502 307.5288820  +6.6209543     981.9828     2046.385     2472.832     93.99973     187.4036     375.0309      2.140     7.32       1232.3     66.09872     140.4683        14     2.187     0.686  10.79   2
       305    910.6584    205.0520 307.5560930  +6.6186755     2899.167      9102.71     11461.04     93.99973     187.5527     374.9936      2.880     8.00     1234.351     66.09872      292.635        54     2.074     1.784 -31.91   0
       306    457.3075    203.1902 307.7451481  +6.6044465     1063.681     2400.315     3790.349     93.55247     187.1049     374.7325      3.195     8.61     1235.427     66.09872     187.2766        14     1.927     1.074  27.06   2
       307    455.1811    206.5648 307.7459203  +6.6029828     1445.237     3038.702     5261.833      93.4029      187.329     374.7325      2.811     9.76     1235.867     66.09872     174.9279        23     2.457     1.083   0.93   2
       308   1014.5295    204.6564 307.5128033  +6.6222650     877.7991      2149.55     3014.206     94.14835     187.4782     374.9563      2.684     7.17     1230.804     66.09872     123.2894        11     1.573     0.916  45.05  16
       309    113.6978    196.5698 307.8886084  +6.5957650     1608.387     4390.261     6719.161     94.14835     187.2543     375.0309      3.249    12.74     1259.504     66.09872     208.4988        40     2.694     1.709 -40.35   2
       310    282.2525    192.7210 307.8184766  +6.6029585     7520.492     35810.79     52465.63     93.99973     187.5527     374.9936      3.354     9.49     1247.769     66.09872     1071.281       112     2.601     2.389 -40.68   0
       311    258.4955    195.9807 307.8282694  +6.6008234      1831.01     3566.226     4588.503     93.85088      187.329     374.7698      2.202     8.42     1250.226     66.09872     220.1853        23     2.100     0.943 -16.94   3
       312    257.5682    191.7197 307.8288004  +6.6025518      1793.18     4645.749     5694.529     93.85088     187.4782     374.9563      2.615    10.82     1250.444     66.09872     192.2725        39     2.375     1.414 -10.52   3
       313    406.2283    188.0352 307.7669544  +6.6090091     10896.84     51921.76     75180.97     93.55247     187.2543     374.7698      3.346    10.02      1238.88     66.09872     1597.242       120     2.613     2.380 -35.24   0
       314    163.1191    191.8114 307.8681688  +6.5993739     1147.063      2628.79     3980.378     93.55247     187.2543     374.8072      2.988     7.57     1256.956     66.09872     140.5413        16     1.422     1.127 -15.27   3
       315    164.2254    187.6100 307.8678502  +6.6011452     1085.904     2147.777     4110.631     93.55247      187.329     374.8445      3.171     8.92     1257.051     66.09872     123.8397        19     2.700     0.823   8.47   2
       316    310.5881    185.7940 307.8068995  +6.6067596     4215.984     19477.91     30047.86     93.55247      187.329     374.8817      3.484    10.01     1245.608     66.09872     615.0912       107     2.809     2.360 -17.66   0
       317    745.7598    185.7298 307.6254889  +6.6212061     10678.35     25674.11     35007.67     93.85088     187.5527     375.0682      2.779    10.58     1234.521     66.09872     1108.231        66     2.787     1.530 -39.40   3
       318    744.0111    182.0031 307.6263437  +6.6226869     9379.856     17435.82     19045.91     93.55247     187.1796     374.8445      1.958     5.83     1234.285     66.09872     965.3054        33     1.550     1.185 -35.72   3
       319     62.6681    181.9364 307.9103770  +6.6001077     2527.467     9948.413     13358.53     93.99973     187.5527     375.0682      3.148     8.96      1262.81     66.09872      353.061        68     2.261     2.117 -62.42   0
       320   1004.6868    164.8966 307.5182452  +6.6383562     1007.774     2851.907     3649.362     93.99973     187.9995     375.0309      2.800     9.74     1230.572     66.09872     124.7109        24     1.713     1.545  80.63   0
       321    281.0757    159.0190 307.8201100  +6.6168334     6900.768     32021.78     47058.98      93.4029     187.2543      374.919      3.353     9.72     1249.623     66.09872      990.813       111     2.617     2.371 -38.85   0
       322     25.0034    155.4994 307.9269760  +6.6097676     1023.995     1870.499     3160.573     93.70179     187.2543     374.5833      2.147     4.60     1265.542     66.09872     115.0126         9     0.956     0.833  40.00   3
       323     26.7167    160.1078 307.9261051  +6.6079222     1564.799      3479.12     5295.064     93.70179     187.9251     375.1427      2.905     8.16     1265.411     66.09872     175.5671        24     1.878     1.111   9.51   3
       324     28.9885    156.6785 307.9252747  +6.6094136     1492.452     2579.528     3616.678     93.55247     187.1796     374.8445      2.024     6.74      1265.28     66.09872     193.0555        15     1.476     0.862  47.26   3
       325    712.9709    156.7649 307.6401362  +6.6320805     2558.544     5764.707     7455.855     93.55247     187.2543     374.7698      2.413     9.19     1233.071     66.09872     289.9896        36     2.393     1.180 -34.51   3
       326    711.6000    153.4837 307.6408185  +6.6333898     2374.167     5400.742     6441.045     93.10305     186.9554     374.5833      2.292     7.14     1232.934     66.09872     271.0433        29     1.847     1.150 -37.09   3
       327    595.0103    157.6209 307.6892843  +6.6278233     546.4727     1110.322     3434.433     93.55247     187.1796     374.8072      2.823     4.49     1231.233     66.09872     93.96216         5     1.416     0.405  11.35   0
       328    123.2846    155.7478 307.8859985  +6.6129373     1466.713     2795.636      4689.53     93.99973     187.4782     375.1427      3.355     9.74     1259.727     66.09872     180.6069        23     2.458     1.077  59.15   3
       329    126.0000    152.9592 307.8849613  +6.6141789     1474.656     3301.915     5147.647     93.10305     187.1049     374.5833      3.192    10.05     1259.599     66.09872     201.0905        25     2.790     1.010  48.03   2
       330    394.3604    151.4328 307.7731416  +6.6237268     1103.643     2273.261     3003.386     93.70179      187.329     374.8072      2.279     8.03     1238.755     66.09872     144.5491        18     2.031     0.887   7.51   3
       331    395.1336    147.1651 307.7729638  +6.6255144     1193.541     3108.557     4382.413     93.85088     187.6273     375.0682      2.833     9.63     1238.767     66.09872     173.0076        26     1.930     1.341  14.96   3
       332    360.1968    146.8257 307.7875397  +6.6244950     1019.307     2944.575     4020.464      93.4029     187.1796     374.7698      3.047     9.66     1242.179     66.09872     134.2164        19     1.740     1.496  38.69   2
       333    114.2318    148.5605 307.8900164  +6.6156033     613.3585     1635.185     3170.821     93.55247      187.329     374.8072      2.824     3.76     1260.109     66.09872     90.76782         5     1.000     0.407  82.94   0
       334   1003.6439    141.2045 307.5194777  +6.6481036     652.5959     1166.344     1561.046      93.2531     187.1049     374.6206      1.662     4.44     1229.383     66.09872     99.08215         5     1.181     0.475  86.59   0
       335    211.2704    137.1970 307.8499500  +6.6235226     1442.404     5215.701     8380.091      93.4029     187.1049     374.8072      3.458    10.97     1256.932     66.09872     203.6641        53     2.532     2.029 -47.02   2
       336     94.6786    138.2555 307.8985174  +6.6192068     809.2394     1968.378     3073.038     94.14835     187.5527     375.0309      2.974     6.57     1260.963     66.09872     98.54578         9     1.572     0.772 -42.33   0
       337    673.3862    136.2467 307.6573320  +6.6392422     1876.529      4680.05     7002.711      93.2531      187.329     374.7325      3.368    10.09     1232.626     66.09872      234.714        37     2.378     1.540 -61.96   2
       338    670.2325    134.4554 307.6587073  +6.6398775     1578.748     3445.737     4576.782     93.85088     187.5527     374.9563      2.474     7.69     1232.501     66.09872     183.6903        20     1.803     0.918  87.38   3
       339    625.0026    134.1419 307.6775742  +6.6385099     2951.168     7111.213     9138.806      93.2531      187.329     374.6952      2.625    10.40     1231.675     66.09872     353.6187        44     2.405     1.412 -22.04   3
       340    628.4094    125.2985 307.6764528  +6.6422738     16525.17     45436.77     64773.46     93.70179     187.1049     374.7698      3.061    10.03     1231.616     66.09872      1832.98       113     3.333     1.722 -38.46   3
       341    626.7563    121.4028 307.6772736  +6.6438275     13750.04     26768.95     29362.56      93.2531     187.0302     374.5833      2.013     5.41     1231.554     66.09872     1477.199        28     1.631     1.032 -17.01   3
       342    351.5197    128.6901 307.7917716  +6.6316943     919.8218     3985.284     5626.431     93.70179     187.7762     375.1054      3.332    13.26     1244.103     66.09872       143.11        42     2.360     2.072 -43.70   0
       343    307.3617    120.2872 307.8104652  +6.6336971     1215.836     2828.746      5455.76     93.99973     187.4782     374.9936      4.007     5.41     1249.467     66.09872      165.738        18     1.400     1.173 -21.91   2
       344    309.2005    116.4546 307.8098285  +6.6353405     1009.867     2388.286     4151.816     93.10305     187.1796     374.5833      2.673     4.74     1249.521     66.09872     124.8199         8     1.111     0.573  56.16   3
       345      4.9315    101.2932 307.9371861  +6.6314775     479820.1      1949095      2628667     93.85088     187.7018     342.3684      3.159    11.18      1266.85     66.09872     61124.49       285     2.623     2.304 -67.63  28
       346    694.2678    107.9834 307.6495810  +6.6516020     936.0825      2118.95     3531.494      93.4029     187.4782     374.8817      2.405     6.21     1231.469     66.09872     126.5132        12     1.827     0.592 -76.64   2
       347    691.6270    105.7512 307.6507573  +6.6524362     840.7851     2048.524     3343.322     93.55247     187.5527      374.919      2.904     4.15     1231.415     66.09872     138.3455         6     1.150     0.533 -68.42   2
       348    433.3749     96.8259 307.7587262  +6.6475660     1130.767     2511.665     3686.615      93.4029      187.329     374.8817      3.067     7.40     1235.612     66.09872     147.8982        16     1.727     0.887 -49.07   3
       349    434.7608    101.4543 307.7579916  +6.6457011     1357.495     2447.968     3673.443     93.99973     187.6273     374.9936      2.502     8.48     1235.402     66.09872     143.5881        20     1.702     1.180 -14.42   3
       350    436.7664     97.2479 307.7572979  +6.6475042     975.6477     1651.158     2342.816     93.70179     187.5527      374.919      2.357     5.75     1235.272     66.09872     115.6075         9     1.134     0.820 -12.28   3
       351    888.0062     95.0218 307.5692452  +6.6633558     830.1082     2640.445     2952.567     93.55247      187.329     374.7698      2.619     8.95     1228.226     66.09872     153.7333        18     1.928     1.160  41.16   0
       352    906.8634     95.0308 307.5613829  +6.6639745     1634.777     3772.784     5146.115     93.70179     187.6273     374.9563      2.551     9.37     1227.953     66.09872     186.0223        31     2.084     1.272 -42.38   2
       353    905.2327     92.0135 307.5621644  +6.6651664     1100.499     1867.109     3226.336      93.4029     187.2543     374.8817      1.891     5.31     1227.839     66.09872     155.6218        11     1.505     0.528 -38.20   3
       354    146.5380     89.9920 307.8785379  +6.6408581     1189.295     2899.102     4361.514      93.2531      187.329     374.7698      2.779     7.49     1258.636     66.09872     178.6428        18     2.044     0.769 -24.98   2
       355     27.3531     86.0490 307.9283575  +6.6385179     3483.106     14350.38     20272.92     93.99973     187.4036     375.0309      3.278     8.32     1264.654     66.09872     505.3651        87     2.405     2.305 -61.98   0
       356    143.6196     85.4975 307.8799071  +6.6426165     905.7528     1998.128     3307.588     93.85088     187.4036     374.6952      3.075     5.30     1258.702     66.09872     129.2673         9     0.995     0.799   1.20   1
       357    773.3716     80.1488 307.6175409  +6.6657096     1063.461     3793.041     4851.744     93.55247     187.7018     374.8817      3.126    11.22     1229.171     66.09872     141.7544        32     1.990     1.762  80.00   0
       358    828.5681     81.5977 307.5944792  +6.6669353     2127.065     4691.051     6759.342      93.2531      187.329     374.7325      2.713     9.77     1228.572     66.09872     270.0219        32     2.084     1.277 -12.17   3
       359    828.1439     77.8317 307.5947830  +6.6684761     1940.528     4045.581     5396.703     93.85088     187.5527     374.9563      2.433     7.58     1228.351     66.09872     236.5244        20     1.797     0.895   1.96   3
       360     67.4023     80.8112 307.9118400  +6.6420142     900.9338     1814.793     2623.379     93.55247     187.1796     374.7698      1.864     4.21     1262.088     66.09872     129.9706         7     1.006     0.502   9.21   2
       361     70.1601     77.4261 307.9108054  +6.6435035       1084.5     2311.394     4215.413     93.55247      187.329     374.7698      3.219     9.23     1261.752     66.09872     145.1691        19     2.102     1.131  46.28   2
       362     11.3980     73.1104 307.9354488  +6.6433279     902.0685     2966.611     4625.894     93.10305     187.1049     374.6952      4.139    11.44      1264.57     66.09872     137.0935        24     2.185     1.668  87.37  18
       363    766.3094     69.2654 307.6208526  +6.6699695     827.5511     1663.737     2644.053     93.85088     187.7762     374.9936      3.019     6.63     1228.476     66.09872     115.4126         8     1.458     0.845   9.28   2
       364     95.3822     62.1305 307.9008104  +6.6506580     2618.331     10361.55     14703.99      93.4029     187.4036     374.9563      3.316     8.59     1260.022     66.09872     361.4767        76     2.518     2.073 -48.52   0
       365    423.8941     64.0759 307.7637878  +6.6607725     841.2598     1883.749     3240.198     93.70179     187.7762     374.9936      3.255     5.76      1239.86     66.09872     118.8127         8     1.143     0.817 -28.48   0
       366    424.3988     60.0512 307.7637137  +6.6624508     692.3712     2010.579     3109.614      93.2531     187.1049     374.4713      2.935     6.82     1240.282     66.09872      114.625         9     2.159     0.604   7.08   0
       367    637.9150     53.5839 307.6749134  +6.6721966     4993.386     20562.69     27553.92     93.55247     187.2543     374.8817      3.102     8.97     1229.859     66.09872     673.7104        84     2.359     2.154 -40.21   0
       368    538.7379     50.2450 307.7163757  +6.6702904     1505.093     5369.553     7991.373     93.85088     187.4782     375.1054      3.325    12.91     1231.614     66.09872     218.5338        48     2.356     1.968 -24.43   2
       369    444.0557     46.8096 307.7559669  +6.6685697     6931.376     19974.01     26921.63      93.2531     187.4782     374.6206      2.959     9.42     1239.594     66.09872     821.7595        70     2.707     1.723 -40.27   3
       370    441.7916     43.0015 307.7570398  +6.6700668     5234.467     9855.951     11255.24      93.2531     187.1796     374.7325      2.001     4.95     1240.196     66.09872      574.894        23     1.551     0.987 -33.52   3
       371    264.6885     46.9548 307.8307423  +6.6625546      2919.24     8841.623     14184.34     93.99973     187.4036     375.0309      4.170    10.18     1256.496     66.09872     323.1075        63     2.781     1.682 -31.92   2
       372    262.9908     43.3953 307.8315708  +6.6639677      2393.79     4435.495     7115.079      93.2531     187.2543     374.8072      3.294     6.16     1256.681     66.09872     250.3461        19     1.789     0.882  -0.47   3
       373     31.3172     46.8160 307.9280388  +6.6548469     782.6364     2136.562      3538.39     93.55247     187.1796     374.8445      3.209     5.03     1261.833     66.09872     141.7371         7     1.289     0.556 -48.68   0
       374    624.4236     45.4628 307.6808128  +6.6751029     1289.153      3500.03     5952.205     93.55247     187.5527     374.8817      3.647     8.41     1229.578     66.09872     179.8151        22     1.970     1.004  -4.38   2
       375    250.0432     41.5126 307.8370326  +6.6643146     903.7918     2629.134     3662.013     93.99973     187.4036     375.0309      3.122     9.48     1256.994     66.09872     118.3016        19     2.221     1.130 -51.01   2
       376    252.5145     44.9632 307.8358852  +6.6629722     1147.084     2712.922     5902.519     93.99973     187.4782     374.9936      3.634     7.61     1256.859     66.09872     149.2865        17     2.069     0.784 -38.83   3
       377    694.5335     36.0795 307.6518988  +6.6812971     484.7829     1283.818     2593.919     94.14835     187.7018     374.9563      2.100     3.50     1228.291     66.09872     96.32544         5     1.742     0.203 -54.25   0
       378    735.1364   1019.8736 307.6017789  +6.2764603     828.6145     1512.901     1536.653     94.14835     187.5527     344.9315      1.932     6.90     1286.863     66.09872     104.2068        10     1.271     1.052 -24.03  16
       379    179.8051     26.2189 307.8668344  +6.6682931     2425.397     4848.118      5783.86     93.55247     187.1049     374.7698      2.121     7.90     1257.632     66.09872     306.5964        22     1.914     0.913 -50.44   3
       380    926.5093     26.7676 307.5554924  +6.6928065     1509.566     2774.506     3493.909     94.14835      187.329     375.0309      2.117     7.97     1224.313     66.09872     223.3838        20     2.115     0.840 -21.65   3
       381    925.3226     23.6597 307.5560919  +6.6940505     1557.203     2897.645     3193.666     94.14835     187.6273     374.9563      2.119     7.79     1224.205     66.09872      171.873        20     1.724     0.984 -21.47   3
       382    524.9615     23.2012 307.7230344  +6.6809991     828.2501     1848.893     3484.915     92.95277      187.329     374.6952      3.810     6.01     1233.628     66.09872     112.0916         9     1.134     0.895 -34.43   0
       383    990.8163     22.3076 307.5288298  +6.6967693     953.5684     1982.544     2771.031     93.70179      187.329     374.8445      2.306     4.07     1218.623     66.09872     133.8608         7     1.025     0.519  68.08   0
       384    367.5242   1018.6980 307.7549657  +6.2647758     924.8699     2282.044     2554.236     93.55247     187.7762     359.1102      2.589     7.03     1286.624     66.09872     141.0717        12     1.381     1.165 -27.79  16
       385    548.7324   1009.2369 307.6797948  +6.2746864     2400.602     5802.188     6635.846     93.85088     187.5527     375.1427      2.375     7.04     1287.929     66.09872     277.0737        40     1.854     1.588 -88.90   3
       386    545.8504   1001.5436 307.6812553  +6.2777674     4407.496     10783.64     12778.62     93.99973     187.5527     374.9936      2.489     5.92     1287.774     66.09872     492.2733        52     2.029     1.584 -31.37   2
       387    298.9980   1008.2659 307.7838660  +6.2668093     7871.442     20595.63     25047.94      93.2531     187.1049     374.7325      2.594     5.81      1286.88     66.09872     888.4279        70     2.141     1.752 -38.80   0
       388    753.1035   1008.4487 307.5946787  +6.2817710     5112.685     11147.57     12301.33     93.85088     187.4782       375.18      2.274     5.12     1285.965     66.09872     556.7031        48     1.887     1.432 -27.78   0
       389    814.1677   1006.9459 307.5692890  +6.2844083     871.7471     1704.173     1952.149     93.85088     187.5527     374.9563      2.119     5.36     1285.145     66.09872     150.3164         8     1.225     0.663  -0.97   0
       390    422.4826   1007.4161 307.7324520  +6.2712559     504.2929     1343.304     1865.706     93.55247     187.1796     374.8445      2.451     4.75     1286.736     66.09872     139.3708         6     1.639     0.390 -10.90   0
       391    102.2250     12.3909 307.8996476  +6.6714203     684.6835     1176.695     2444.719     93.55247      187.329     374.8445      1.806     3.53     1258.571     66.09872     105.4178         5     0.786     0.456  15.62   0
       392    914.3902   1001.8470 307.5277060  +6.2898211     6531.452     12436.22     13507.47      93.4029     187.4036     374.5833      2.037     4.48     1284.364     66.09872     729.4497        45     1.781     1.287 -36.90   0
       393    887.9816    998.0244 307.5388371  +6.2905281     8906.634     18090.29     19638.99     93.55247      187.329     374.8817      2.146     4.61     1284.379     66.09872     1021.935        51     1.749     1.440 -28.32   0
