#   1 NUMBER                 Running object number                                     
#   2 X_IMAGE                Object position along x                                    [pixel]
#   3 Y_IMAGE                Object position along y                                    [pixel]
#   4 ALPHA_J2000            Right ascension of barycenter (J2000)                      [deg]
#   5 DELTA_J2000            Declination of barycenter (J2000)                          [deg]
#   6 FLUX_APER              Flux vector within fixed circular aperture(s)              [count]
#   9 FLUXERR_APER           RMS error vector for aperture flux(es)                     [count]
#  12 FLUX_RADIUS            Fraction-of-light radii                                    [pixel]
#  13 FWHM_IMAGE             FWHM assuming a gaussian core                              [pixel]
#  14 BACKGROUND             Background at centroid position                            [count]
#  15 THRESHOLD              Detection threshold above background                       [count]
#  16 FLUX_MAX               Peak flux above background                                 [count]
#  17 ISOAREA_IMAGE          Isophotal area above Analysis threshold                    [pixel**2]
#  18 A_IMAGE                Profile RMS along major axis                               [pixel]
#  19 B_IMAGE                Profile RMS along minor axis                               [pixel]
#  20 THETA_IMAGE            Position angle (CCW/x)                                     [deg]
#  21 FLAGS                  Extraction flags                                          
         1    431.4315     27.5487 307.7561283  +6.6695142     10026.05     30240.67     35038.43     90.96519     181.9304     363.3912      2.661     6.97      1161.99     64.06635     1185.673        80     2.064     1.947 -44.21   0
         2    681.2736     16.8284 307.6525218  +6.6822687     947.0769     2384.953     2228.415     90.96519     181.7859     363.3912      2.299     8.83     1152.521     64.06635     130.7938        19     1.542     1.412 -67.19   0
         3    169.5894     10.1975 307.8656773  +6.6679291     5042.312     14129.12     15875.71     90.67596     181.4243     363.2466      2.537     6.52     1178.519     64.06635     625.1089        56     1.928     1.757 -65.74  16
         4    513.7711      8.3845 307.7225134  +6.6801754     1389.211     3642.344     4162.926     90.67596     181.4967     363.1743      2.516     7.14     1156.721     64.06635     213.7864        29     1.764     1.498 -57.74  16
         5    914.8216      7.5305 307.5556437  +6.6938730      3062.84     5854.138     6517.188     90.67596     181.7137     358.7715      2.055     4.78     1147.858     64.06635     354.6283        32     1.493     1.368 -62.10  16
         6    450.6223      8.2592 307.7487965  +6.6781207     599.6456     1111.417     1649.224     90.67596     181.7137     362.7762      1.203     3.52     1160.662     64.06635     105.5233         5     1.152     0.309  53.28   2
         7    453.4282      6.2908 307.7476957  +6.6790272     789.4922     1304.729     1696.146     91.25352     181.4967     347.8042      1.731     3.97     1160.498     64.06635     110.6067         6     1.236     0.365 -60.18  18
         8    715.8226      6.3499 307.6384987  +6.6877459     1148.887     2537.594     2580.535     90.53099     181.8582     348.4456      2.125     7.70     1151.933     64.06635     149.5292        17     1.417     1.170 -19.85  16
         9    979.7039      3.7275 307.5287704  +6.6975972     1530.658      2892.64     2678.266     90.82069     177.3979     314.6538      1.902     6.23      1142.37     64.06635     188.5825        22     1.527     1.207 -67.53  24
        10    450.5082      4.3229 307.7489775  +6.6797425     710.8388     1112.421     1528.695     90.82069     181.4967     323.4228      1.566     3.91     1160.748     64.06635     120.7429         6     0.937     0.467  -0.75  16
        11    698.9569      1.8422 307.6456700  +6.6890463     3285.558       5270.1     5622.471     85.91582     153.3315     282.8687      1.727     6.10     1151.738     64.06635     417.2725        23     1.720     0.828  -4.86  24
        12    619.3264      1.5143 307.6788196  +6.6865304     1401.453     2304.741     2529.846     82.16494     148.1028     276.9564      1.763     5.87     1151.865     64.06635     226.4374        14     1.666     0.642  -1.36  24
        13    707.3608   1003.9272 307.6082986  +6.2754762     2534.048     4268.759      5809.66     90.96519     181.7859     363.5357      2.222     4.15     1207.272     64.06635     302.6327        26     1.482     1.101 -27.25   2
        14    784.3787   1023.1306 307.5756248  +6.2701056     5447.959     6971.911     7383.176     86.06856     153.5028     283.4254      1.331     3.36     1206.353     64.06635     841.5735        21     1.224     0.883 -10.84  24
        15    574.9926   1020.2192 307.6627885  +6.2643429     60159.72       111667     125342.5     90.67596     181.4243     329.6573      2.026     5.58      1209.97     64.06635     7302.802        91     1.984     1.532 -56.85  24
        16    722.8477   1002.7946 307.6018971  +6.2764589     913.3347     1244.887     624.7828     90.38579      181.569     363.1019      1.529     6.13     1206.986     64.06635     118.2533        10     1.227     0.861 -38.65   0
        17    430.8407   1003.8007 307.7232836  +6.2663200     802.9828       1449.4     1117.098     90.38579     181.4243     363.1381      1.953     5.03     1208.737     64.06635     148.7722         9     1.039     0.827  30.23   0
        18    354.0339   1001.6412 307.7552934  +6.2646496     1557.269     2821.628     3401.174     90.82069     181.7859     363.2827      2.024     6.92     1208.863     64.06635     191.6855        19     1.281     1.120 -18.00   0
        19    536.2863    991.6014 307.6798511  +6.2748726     3271.962     6245.741     6730.813     90.24036     181.2795     363.1381      2.021     4.22     1208.841     64.06635     430.3954        33     1.547     1.255 -64.29   2
        20    533.7441    983.9485 307.6811671  +6.2779484     6656.765     11968.52     13431.16     91.10947     181.7859     363.4273      1.921     4.08     1208.543     64.06635     809.4878        41     1.512     1.428 -57.53   2
        21    286.7934    990.4676 307.7836311  +6.2670194     11955.41     22088.79     24928.41     90.53099     181.4967     363.2466      2.019     4.11     1208.686     64.06635     1504.844        66     1.891     1.525 -35.75   0
        22    740.8583    990.8404 307.5948115  +6.2819947     6994.272     11344.41     12280.51     91.10947     181.7859     363.5357      1.752     3.55     1206.186     64.06635     804.0109        38     1.422     1.298  69.54   0
        23    506.9704    992.6470 307.6920057  +6.2734640      723.759      1163.25     773.3801     90.67595     181.8582      363.355      1.612     5.74     1208.722     64.06635      98.8512         9     1.369     0.679   0.77   0
        24    802.2196    990.0422 307.5693227  +6.2843637     1183.703     1670.856     1690.139     90.53099      181.569     363.2827      1.491     4.90     1205.079     64.06635     156.5881        11     1.105     0.787 -56.71   0
        25    410.8940    990.6202 307.7320241  +6.2710981     668.7181      1146.44     644.3876     90.96519      181.569     363.2827      1.670     5.56     1208.574     64.06635     106.5837         6     1.365     0.639 -18.67   0
        26    902.2104    984.3368 307.5279359  +6.2900405     8982.164     13458.57     14382.35     90.53099      181.569     363.2466      1.608     3.08     1204.063     64.06635     1279.512        36     1.281     1.236 -55.79   0
        27    259.0154    987.5140 307.7952814  +6.2673114      627.265     1210.883     1538.862     90.67596     181.4967      363.355      2.778     4.91     1208.337     64.06635     112.8842         5     1.413     0.483   5.52   0
        28    875.7573    980.4550 307.5390669  +6.2907656     12461.25     19389.76     20587.98     90.96519     181.7859     363.4635      1.684     3.18     1204.447     64.06635     1633.599        48     1.459     1.324 -28.16   0
        29    588.7441    981.1923 307.6583903  +6.2809184     1229.814     2171.348     1749.526     90.38579     181.6414     363.1381      1.852     7.01     1208.462     64.06635     140.5754        17     1.386     1.117  11.31   0
        30    520.0496    979.6075 307.6870084  +6.2792849     3360.391     6420.704     7399.911     90.53099     181.4967     363.0657      2.053     4.49     1208.368     64.06635     395.4709        31     1.497     1.251 -52.06   0
        31    997.5823    979.8110 307.4884293  +6.2950737     5455.167     7604.856     8000.012     90.67596     181.4243      363.355      1.478     2.84     1202.674     64.06635      809.647        26     1.160     1.072 -39.84   0
        32    629.6916    978.7966 307.6414443  +6.2832709     1372.534     2241.915     2502.452     90.67596     181.4243     363.1743      1.763     4.23     1207.814     64.06635     190.6079        13     1.242     0.848 -31.06   0
        33     56.1393    978.7297 307.8799350  +6.2641557     630.2056     892.9906     1333.414     91.25352     181.7859     363.4996      1.288     3.48     1207.089     64.06635     95.70544         5     1.008     0.348  45.18   0
        34    473.0780    976.0125 307.7066618  +6.2792042     1612.593     3101.272     3003.441     90.67596     181.3519     363.2466      1.958     5.00     1208.215     64.06635     211.4957        20     1.247     1.226 -23.36   0
        35    907.5934    968.0093 307.5262479  +6.2969623     44044.51     67480.95     71187.98     90.38579      181.569     363.2827      1.645     3.16     1203.531     64.06635     5929.975        61     1.426     1.320 -64.08   0
        36    215.0077    966.6839 307.8142869  +6.2744435     1302.561     2390.163     2554.862     90.67595     181.4243     363.2827      1.932     5.54     1207.453     64.06635     204.8468        16     1.315     1.123  17.50   0
        37    613.2540    964.3651 307.6487674  +6.2886838     700.9952     934.5894     131.3288     90.96519     181.7859     363.4996      1.524     4.69     1207.689     64.06635     94.43579         7     1.104     0.565 -63.04   0
        38    805.6393    962.0317 307.5688459  +6.2960454     2134.774     3701.637     3888.868     90.67595      181.569     363.2827      1.854     4.47     1204.379     64.06635     290.8181        23     1.373     1.165 -87.38   0
        39    753.7452    959.8345 307.5904996  +6.2952283     5864.735     9983.802     11290.34     90.96519     181.7859     363.4635      1.892     3.81     1204.771     64.06635      693.031        37     1.497     1.289 -65.03   0
        40    541.3182    958.9978 307.6788618  +6.2885050     696.9759     940.5684     707.8759     90.38579     181.3519     363.1381      1.489     4.27     1207.623     64.06635     125.8687         6     0.859     0.636  53.51   0
        41    223.5266    958.9642 307.8110067  +6.2779162      1192.59     2016.723     2721.794     90.96519     181.7859     363.4635      1.914     4.78      1207.47     64.06635     177.3481        11     1.189     0.821  -8.42   0
        42     48.3360    957.4647 307.8839025  +6.2726764     2108.753     3612.509     3885.524     91.10947     181.7859     363.4996      1.898     4.39      1206.59     64.06635      332.271        22     1.347     1.127 -79.94   0
        43    941.8475    954.7217 307.5124514  +6.3035868     7154.998     10580.24     10742.31     91.10947     181.8582     363.3912      1.562     3.14     1202.573     64.06635     873.8571        28     1.278     1.065 -52.78   0
        44    915.5962    946.4055 307.5236482  +6.3061502     1993.187     3358.654      3475.09     90.38579     181.4243     363.2827      1.824     3.46     1202.809     64.06635       336.24        20     1.199     1.065 -60.53   0
        45    623.3937    948.1541 307.6450990  +6.2957163     567.3893     886.4768     1076.753     90.53099     181.4967     363.0657      1.366     3.50     1206.758     64.06635     114.3536         5     0.758     0.465  75.62   0
        46    248.9376    942.9982 307.8009823  +6.2853588      3296.04     6619.361     7354.763     90.38579      181.569     363.1381      2.075     4.47     1207.589     64.06635     417.9062        33     1.468     1.393 -77.46   0
        47    636.4178    942.6049 307.6398707  +6.2984415     3800.346     6751.562      6531.64     90.67596     181.3519     363.2827      1.851     4.03     1206.154     64.06635     459.8409        31     1.426     1.301 -12.43   0
        48    775.0320    942.7561 307.5822243  +6.3029890     1198.279     2120.698     1855.612     90.82069     181.7859     363.3189      1.774     5.43     1204.037     64.06635     180.6268        11     1.286     0.691 -11.50   0
        49    985.9720    941.4260 307.4945503  +6.3105416     743.3033     1122.943     1109.167     90.53099      181.569     363.3189      1.574     3.29     1201.223     64.06635     163.0984         6     0.845     0.597 -43.75   0
        50     17.6862    940.2726 307.8972313  +6.2787501     1851.109     3203.626     3103.814     91.25352     182.1468     363.4635      1.830     4.01     1206.304     64.06635     252.2043        19     1.242     1.042  27.62   0
        51    959.6962    937.1328 307.5056218  +6.3114431     638.9526     635.6578      876.293     91.10947     181.8582     363.4635      0.970     4.45     1201.643     64.06635     129.3878         7     0.946     0.659 -76.81   0
        52    939.8855    935.7318 307.5139073  +6.3113644     667.4196     1079.636     1136.021     91.25352     182.0747     363.4996      1.646     4.92     1202.062     64.06635     112.2811         6     1.244     0.550 -26.57   0
        53    560.9869    935.2231 307.6714873  +6.2989788     1132.599     2367.554     2679.756     90.82069      181.569      363.355      2.237     7.69     1206.682     64.06635     149.3772        20     1.492     1.110 -28.60   0
        54    458.8218    940.8746 307.7137796  +6.2932404     877.9014     1532.935      1730.19     90.67595     181.6414     363.3912      1.905     5.27      1207.59     64.06635     103.9722        10     1.035     0.759  27.42   0
        55    600.7844    931.5578 307.6550620  +6.3018177        827.3     1325.843     1345.719     90.53099     181.4967     363.2104      1.820     5.44     1206.567     64.06635     143.6506         8     1.292     0.710 -24.20   0
        56    280.2510    928.4484 307.7884552  +6.2924136     983.1932     1921.643     2308.927     91.25352     181.6414     363.4273      2.377     6.71      1207.87     64.06635     139.5922        12     1.410     0.895 -29.09   2
        57    747.2243    925.0784 307.5943848  +6.3093654     780.5083     1150.198     741.5073     90.67596      181.569     363.4273      1.581     5.31     1203.369     64.06635     116.2263         7     1.292     0.616  11.22   0
        58    884.5438    921.7607 307.5373923  +6.3152976     7013.134     10813.87     10913.69     91.10947     181.8582     363.4273      1.676     3.39     1202.403     64.06635     881.6887        33     1.310     1.221 -88.86   0
        59    420.4676    919.5008 307.7304525  +6.3007885     1524.753     2880.728     2750.788     91.10947     181.9304     363.4273      1.986     6.91     1207.484     64.06635     169.2885        19     1.301     1.171 -54.34   0
        60    322.3514    917.5702 307.7713177  +6.2983118     6729.849     13574.66      14840.9     90.67596     181.8582      363.355      2.097     4.54     1207.754     64.06635     906.3707        48     1.627     1.519 -45.14   0
        61    242.3752    916.5038 307.8046101  +6.2960812     5323.302     10499.48     11688.65     91.25352     181.4967     363.3189      2.083     4.56      1207.08     64.06635     640.3639        39     1.530     1.476 -31.19   0
        62    754.9795    910.4220 307.5916547  +6.3156762     448.0571      898.941     969.2921     90.82069     181.7137     363.3912      1.700     4.20     1202.542     64.06635     71.21606         5     1.122     0.449 -64.38   0
        63    570.7843    910.4563 307.6682510  +6.3095334     910.2485     1657.578     1434.927     90.38579     181.7137     363.1743      1.883     5.73     1205.736     64.06635     121.2822        11     1.301     0.712  21.54   0
        64    900.3388    906.6190 307.5313344  +6.3220754     1060.224      1675.85     2099.768     90.67596     181.7137     363.3189      1.744     3.82     1201.092     64.06635     182.2881         9     1.008     0.807 -70.81   0
        65    967.7089    902.7346 307.5034487  +6.3259152     809.9745     1326.636     1736.003     90.96519     182.0026     363.4635      1.750     4.64     1199.558     64.06635     106.2874         8     0.935     0.653  -5.87   0
        66    736.7480    900.2572 307.5995796  +6.3192681     1470.662     2606.936     3075.313     91.10947     181.7859     363.4635      1.916     5.04     1202.002     64.06635     184.4534        18     1.285     1.058 -10.08   0
        67    967.9348    895.4499 307.5036002  +6.3289312     1388.734     2211.857     2692.125     90.96519     181.6414     363.4635      1.790     4.21      1199.06     64.06635      181.954        14     1.063     0.925  52.27   0
        68    600.6246    895.8175 307.6563370  +6.3165727     687.3357     1019.606     990.1849     90.82069     181.6414     363.3912      1.781     4.74     1204.366     64.06635     103.9901         6     1.137     0.560 -23.53   0
        69    522.1112    895.1096 307.6890108  +6.3142501     891.7761     1725.598     1980.606     91.10947      182.363     363.5719      2.057     5.71     1206.042     64.06635     108.8601        10     1.146     0.800 -18.17   0
        70    655.1747    893.3240 307.6337365  +6.3194182     2111.555     3710.355     3782.511     90.67596     181.6414     363.4273      1.832     4.69     1203.234     64.06635     226.6842        24     1.353     1.180 -64.85   0
        71     52.1452    889.8997 307.8846158  +6.3007063     2226.024     4436.522     4618.656     90.82069     181.7859     363.7885      2.012     4.54     1204.324     64.06635     310.6179        31     1.480     1.385 -71.04   0
        72    195.8302    888.5217 307.8249147  +6.3060817     1559.286     3032.616     3090.494     90.96519     181.8582     363.4273      1.999     5.27     1205.887     64.06635     214.6017        19     1.448     1.019  63.46   0
        73     69.5738    889.1480 307.8773942  +6.3016001     1402.293     2843.452     2664.333     90.67596     181.9304      363.355      2.087     5.58     1204.524     64.06635     166.8837        21     1.430     1.155 -15.18   0
        74    933.7300    887.7051 307.5180858  +6.3309949     714.9961     1154.157     849.8178     90.96519     181.8582     363.4996      1.580     5.34     1199.425     64.06635     115.3727         7     1.220     0.660 -44.23   0
        75    229.8866    885.1782 307.8108664  +6.3086007     576.8712     1052.212     1260.123     91.10947      181.569     363.3189      1.991     3.65     1206.237     64.06635     95.35754         5     1.145     0.336   9.67   0
        76    649.8309    882.3161 307.6363309  +6.3237865     5396.121      10081.8     10922.06     91.10947      181.569     363.3189      1.981     4.44     1202.757     64.06635     606.9708        40     1.517     1.444 -41.78   0
        77     10.4874    880.9942 307.9022408  +6.3029892     1038.773     1831.804     1249.189     90.53099     181.4243     363.1743      1.878     5.19     1203.256     64.06635     186.5396         9     0.998     0.874  80.39   0
        78    887.5548    878.6686 307.5375933  +6.3331944     2627.917     4131.986     3732.578     91.10947     181.7137     363.4635      1.726     3.81     1199.151     64.06635     338.1172        21     1.338     0.988 -62.51   0
        79    333.0433    875.8455 307.7682865  +6.3159003     11000.74     23211.12     26025.91     91.10947     181.7859     363.3912      2.168     4.75     1206.831     64.06635     1368.624        59     1.720     1.589 -84.29   0
        80     23.8116    879.4887 307.8967516  +6.3040572      904.528     1452.156     1362.625     90.82069     181.4243     363.2827      1.766     5.63     1203.387     64.06635     149.6117        11     1.184     0.810  36.82   0
        81     67.2626    876.4882 307.8787856  +6.3067509     918.7886     2043.345     1776.601     90.96519     182.0026     363.4996      2.313     6.34     1204.049     64.06635     131.0074        10     1.294     0.872  12.36   0
        82    204.1968    874.7580 307.8219029  +6.3120455     868.5282     1706.025     1276.808     90.38579     181.4967     363.1381      1.923     5.07     1205.757     64.06635       128.33         8     1.241     0.587   7.48   0
        83     97.1255    866.5959 307.8667040  +6.3118355     1252.859     2494.943     3177.271     90.67596      181.207      363.355      2.474     5.64     1204.437     64.06635     202.6754        17     1.518     1.025  -2.67   0
        84    878.0581    860.2036 307.5421654  +6.3405051     1852.191     3074.164     3449.172     90.38579     181.6414     363.1743      1.749     3.93     1197.816     64.06635     267.4172        17     1.256     0.949 -61.08   0
        85    848.5543    859.9014 307.5544455  +6.3396501     1876.068     3142.834     3601.707     91.10947     181.6414     363.7163      1.812     5.20     1198.301     64.06635     227.0757        20     1.403     1.070 -50.35   0
        86     79.9772    860.1394 307.8740543  +6.3139280     1924.563     3753.744      4277.76     90.67596     181.7137      363.355      2.057     4.91     1203.796     64.06635     275.9565        29     1.488     1.352 -51.99   0
        87    812.0853    859.1397 307.5696376  +6.3387533     2527.862     4046.808     4843.605     91.25352     181.8582     363.5719      1.766     4.25     1199.228     64.06635     293.9484        22     1.325     1.077 -62.52   0
        88    548.0339    850.8712 307.6797277  +6.3333836     226867.4     475942.9     520433.1     90.96519     181.7859     363.4996      2.163     4.73     1204.212     64.06635      24923.6       176     1.864     1.794 -55.18   0
        89    392.3877    853.5120 307.7443652  +6.3271041     5152.666     10940.87     11606.52     90.67596     181.4967      363.355      2.140     4.89     1205.369     64.06635     599.2316        41     1.575     1.520 -11.95   0
        90    335.5003    852.0356 307.7680721  +6.3258153     8365.855     17985.49     20485.17     91.10947     181.6414     363.6441      2.248     4.95     1206.027     64.06635     989.1482        55     1.697     1.643 -72.30   0
        91    635.6525    853.7355 307.6431933  +6.3351181     977.4246     1586.206      2267.17     91.10947     181.7137     363.4273      1.911     5.75     1201.368     64.06635     129.1503        11     1.342     0.694 -11.64   0
        92    886.2402    846.8594 307.5392127  +6.3462878     4678.829     7569.495     8737.489     91.10947     181.7859     363.5357      1.805     3.38     1196.942     64.06635     568.3041        32     1.380     1.236 -50.30   0
        93    653.7581    848.1490 307.6358526  +6.3380279      2731.41     5228.098     5621.779     91.10947     181.7859     363.4635      2.013     5.36     1200.933     64.06635     291.0007        32     1.500     1.429 -11.95   0
        94    724.4544    845.2662 307.6065494  +6.3415702     533.4926     1200.027     1447.076     91.10947     181.7137     363.4273      2.140     3.46      1199.07     64.06635     102.4021         5     1.122     0.308 -68.73   0
        95    817.1938    841.2977 307.5681153  +6.3462916     1354.475      2461.84      2504.16     90.82069     181.3519     363.2104      1.883     5.98     1197.805     64.06635     151.3896        19     1.310     1.155 -53.79   0
        96    628.5869    841.9768 307.6465292  +6.3397392     2340.349     4772.992     5533.481     90.82069      181.569      363.355      2.131     5.04     1200.821     64.06635     269.0713        28     1.555     1.187 -23.00   0
        97   1019.7189    840.9402 307.4839007  +6.3531609     4622.772     6974.166     7310.566     91.25352     181.7859     336.4014      1.620     3.30     1194.487     64.06635     596.8358        25     1.237     1.078 -31.23  16
        98    620.9434    837.5224 307.6498586  +6.3413244      1396.85     3659.355     4938.848     91.10947     181.7859     363.4273      2.905     9.34      1200.71     64.06635      182.498        30     2.260     1.224 -65.10   0
        99    944.0231    839.9572 307.5154146  +6.3510562      766.101     1256.318     813.4573     90.67596     181.6414     363.2827      1.658     3.78     1195.489     64.06635      106.522         5     0.642     0.639  75.74   0
       100    905.0194    834.9324 307.5318050  +6.3518370     2708.275     4832.893      4382.54     90.67596     181.7859      363.355      1.821     4.04     1195.748     64.06635      350.012        27     1.355     1.224 -49.05   0
       101    316.8008    835.0229 307.7764253  +6.3322170     674.7221     1279.236     1320.084     90.67596     181.4243     363.2104      1.787     3.99     1205.848     64.06635     101.1396         5     0.863     0.529  39.93   0
       102    363.7488    830.7740 307.7570456  +6.3355389     1713.307     3642.743     4103.482     90.67596     181.8582      363.355      2.230     6.64     1204.703     64.06635     229.2648        26     1.548     1.435  59.03   0
       103    499.7710    820.7537 307.7008181  +6.3442136     1991.754     4077.416     4806.535     90.53099     181.8582     363.3189      2.220     5.58     1202.766     64.06635     288.9315        27     1.550     1.318 -14.71   0
       104    546.5329    816.7968 307.6815050  +6.3474059     4075.595      8825.39     10270.53     90.38579     181.4243     363.2466      2.255     4.97     1201.598     64.06635     447.3022        42     1.671     1.501 -56.41   2
       105    553.4509    816.5623 307.6786359  +6.3477332     1071.806     1997.515     2218.493     90.82069     181.6414     363.4273      1.843     6.85     1201.439     64.06635     165.4347        10     1.329     0.989 -40.80   3
       106    844.1518    818.9292 307.5576587  +6.3564252     1019.213     1436.201     2163.951     91.10947     181.7137     363.4996      1.606     3.54     1196.005     64.06635     172.0653         9     0.989     0.638 -60.28   0
       107    464.1089    816.0035 307.7158098  +6.3449866     997.8301     2148.765     2386.285     90.67596     181.4243     363.1743      2.135     8.03     1203.137     64.06635     133.1582        17     1.493     1.208 -22.89   0
       108    106.3858    815.0931 307.8646037  +6.3334146     1044.151     1985.098      2053.37     90.82069     181.4967     363.2827      2.034     4.79     1202.867     64.06635     154.7795        11     1.269     0.781  67.13   0
       109    882.1351    814.1901 307.5420218  +6.3596437      1126.78     1730.977     1528.187     90.53099      181.569     363.3189      1.714     6.06     1194.953     64.06635     166.3691        12     1.290     0.800  37.07   0
       110    517.2133    810.6310 307.6939070  +6.3489754     12835.48     28111.53     30410.87     90.53099     181.4967     363.3912      2.194     5.00      1201.78     64.06635     1438.218        62     1.737     1.653 -49.88   0
       111    930.6177    808.6750 307.5220442  +6.3635307     3333.957     5902.957     6130.648     90.53099     181.4967      363.355      1.867     4.07     1192.728     64.06635     439.2523        27     1.427     1.152 -47.74   0
       112     27.7910    801.3544 307.8977543  +6.3364576     1160.601     2287.138     2669.198     90.53099     181.6414     363.1019      2.166     6.51     1199.744     64.06635     155.1455        20     1.450     1.244 -54.87   0
       113    309.8777    799.5108 307.7805088  +6.3466516     1994.931     4472.118     4513.059     90.82069     182.0747      363.608      2.223     5.96      1204.73     64.06635     229.6223        30     1.502     1.449  69.99   0
       114      9.9095    797.4510 307.9053231  +6.3374708     1408.594     3199.168     3332.095     91.10947      181.569     363.6441      2.200     6.42     1199.177     64.06635     226.9766        25     1.700     1.230  59.76  16
       115    775.1933    794.9910 307.5871459  +6.3640203     40476.83     78783.02     85151.83     90.24036      181.569     363.2827      2.018     4.43     1194.911     64.06635     4454.547        79     1.695     1.571 -58.15   0
       116    232.0401    771.8186 307.8138189  +6.3554878     769492.2      2378066      2779892     90.67596      181.569     363.1743      2.714     4.93     1203.178     64.06635     63237.29       622     2.730     2.261  87.09   4
       117    691.9753    793.1198 307.6218187  +6.3620260     3845.563     4481.646     5117.311     90.82069      181.569     363.4273      1.161     4.17       1196.7     64.06635     1037.907         9     1.154     0.454 -78.00   3
       118    703.4336    789.7329 307.6171678  +6.3638059     15057.21     31047.39     33789.52     90.96519     181.8582     363.5357      2.130     4.74     1196.197     64.06635     1704.566        53     1.686     1.508 -54.36   3
       119    697.1586    786.1415 307.6198988  +6.3650804     60729.83     125329.7     137948.9     91.10947     181.7859     363.5357      2.148     4.79     1196.152     64.06635     6477.951       102     1.843     1.694 -55.76   3
       120    900.4120    790.1347 307.5352318  +6.3701853     7238.552     12743.98     14205.81     90.53099      181.569     363.3189      1.904     3.91     1192.819     64.06635     883.6362        43     1.533     1.370 -59.37   0
       121    342.2157    787.1931 307.7674782  +6.3528183     12717.73     29203.19     32479.44     90.67595     181.4967     363.2827      2.303     5.20     1203.046     64.06635     1523.451        70     1.795     1.748 -79.77   0
       122    404.0853    784.9977 307.7418225  +6.3557896     13104.53     30678.44     34631.28     90.38579     181.3519     363.1381      2.303     5.19     1202.564     64.06635     1451.806        67     1.849     1.680 -36.14   0
       123    392.5873    786.8098 307.7465429  +6.3546577     730.5459     1330.068     2086.849     90.82069     181.4967     363.3912      1.808     2.81     1202.693     64.06635     107.4937         5     0.728     0.444  68.38   0
       124    940.9572    783.6340 307.5185882  +6.3742157     1840.062     3159.569     3506.952     90.82069     181.7859     363.2466      1.808     4.52     1191.315     64.06635     225.1624        17     1.324     0.901 -80.51   0
       125    637.9749    780.8906 307.6446903  +6.3652796     4303.667      9115.37     9579.395     91.25352      181.569     363.2827      2.141     5.09     1197.237     64.06635     437.6282        40     1.620     1.455 -35.52   0
       126    427.1971    778.6586 307.7324256  +6.3591786     1030.032     2212.964     1879.279     90.38579      181.569     363.1743      2.111     7.16     1201.942     64.06635     149.7218        13     1.519     0.946 -83.41   0
       127   1020.3936    772.8463 307.4859137  +6.3813058     825.4313     1254.943     1702.318     90.53099      181.569     327.1777      1.690     5.20     1190.388     64.06635     139.4767         7     1.274     0.748  -2.97  16
       128    673.2463    771.0802 307.6303529  +6.3705050      1597.36     3485.982     4089.164     91.10947     181.7859     363.4635      2.316     6.35       1195.8     64.06635     159.9073        28     1.470     1.374 -49.94   0
       129    406.9802    767.6983 307.7412048  +6.3630306     31466.27     74673.44     83163.52     90.96519     181.6414     363.1743      2.328     5.34      1201.54     64.06635     3789.323        88     1.880     1.781 -50.01   0
       130    866.3416    771.6929 307.5500238  +6.3766705     567.3203     1151.691     1297.067     90.96519     181.7137      363.608      2.136     4.12     1193.274     64.06635     91.86548         6     1.078     0.450   6.06   0
       131    143.6210    771.3521 307.8506055  +6.3527242     708.4434     1286.857     1959.858     90.67596     181.7859     363.2827      1.889     3.46     1202.536     64.06635     122.9904         5     1.015     0.341  20.45   0
       132    897.3678    781.6301 307.5367847  +6.3735966     5464.909     9846.343     11126.52     90.53099     181.4967     363.1381      1.946     4.17     1192.581     64.06635     667.2635        37     1.533     1.346 -18.02   0
       133    524.7173    766.6657 307.6922744  +6.3673826     4413.199     9970.104        10622     91.39733     182.0747     363.5357      2.231     5.42     1198.407     64.06635     484.0664        44     1.672     1.604 -61.23   0
       134    441.0290    764.8486 307.7271410  +6.3653432     2438.958     5803.909     7618.282     90.67596     181.8582      363.355      2.692     9.89     1200.735     64.06635     318.8242        45     2.574     1.524  52.89   2
       135    438.6349    757.5187 307.7283850  +6.3682905     1155.869     1793.615     2719.566     90.96519     181.7859     363.4635      2.240     6.12     1200.354     64.06635     167.5732        13     1.367     0.770  29.47   3
       136    769.7080    763.0582 307.5905055  +6.3770260      8572.81     16624.83     17771.03     90.96519     181.7137     363.5719      2.055     4.50     1193.484     64.06635     945.3889        49     1.625     1.495 -75.41   0
       137    790.4576    757.7093 307.5820562  +6.3799247     862.7734     1630.418     1789.327     90.96519     181.7137      363.608      1.858     5.70     1192.784     64.06635     119.8618         9     1.207     0.759 -40.93   2
       138    136.1723    755.8370 307.8542304  +6.3588824     1960.248     4253.461     5239.228     90.53099     181.4243     363.2104      2.374     5.53     1201.682     64.06635     221.2871        31     1.568     1.430 -38.14   3
       139    127.7946    755.4898 307.8577262  +6.3587456      7139.42     16347.28     19493.72     90.53099     181.4243     363.2104      2.404     5.20     1201.412     64.06635     928.1543        55     1.743     1.694  24.44   3
       140    120.4764    752.9212 307.8608569  +6.3595615     2077.941     4877.223     7281.661     91.39733     182.0747     363.5719      3.196     7.41     1201.107     64.06635     259.8877        33     1.959     1.444  86.19   3
       141    120.9552    745.9749 307.8608939  +6.3624462     1118.097     2279.569     3062.449     90.53099     181.8582     363.3189      2.683     6.42     1200.871     64.06635     154.7104        13     1.516     0.763  30.08   3
       142    915.2888    751.5215 307.5303465  +6.3866262     5386.844     9573.085     10001.67     90.82069     182.0747      363.608      1.900     4.04      1190.65     64.06635     674.2015        35     1.428     1.326 -62.71   0
       143    964.5323    751.4639 307.5098674  +6.3882840     1474.558     2528.727     3042.527     91.10947     181.7859     363.5357      1.879     3.78     1189.773     64.06635     202.4696        16     1.080     0.991 -44.38   0
       144    671.0040    749.4388 307.6320169  +6.3793681     1071.717     2304.179     2617.212     90.09469     181.4967     363.1743      2.205     8.59     1194.346     64.06635     152.8135        21     1.539     1.340 -49.94   0
       145    557.7797    748.6309 307.6791344  +6.3759323     1304.751     3302.763     3738.763     90.53099      181.569     363.3189      2.309     8.74     1196.201     64.06635     163.9203        25     1.627     1.310 -39.70   0
       146    406.8292    747.8154 307.7419415  +6.3712369     737.3257     1649.416     1753.602     90.67595     181.4967     363.3912      2.627     7.00      1200.34     64.06635      116.786        10     1.756     0.783  46.86   0
       147    969.5726    743.0388 307.5080551  +6.3919308     1663.035     2929.753     3262.894     90.67595      181.569     363.2827      1.908     4.61     1189.356     64.06635     216.1041        18     1.248     1.165 -69.55   0
       148    938.8761    743.1760 307.5208176  +6.3908556     2533.219     4363.751     4283.744     90.67595     181.7137     363.4273      1.827     4.53     1189.766     64.06635     292.4854        23     1.324     1.130 -54.65   0
       149    909.4429    743.6570 307.5330431  +6.3896801     2601.002     4705.202     5370.389     90.96519     181.7137     363.4635      1.971     4.26     1190.499     64.06635     306.0757        28     1.354     1.287 -28.74   0
       150    663.2100    742.8817 307.6354801  +6.3818168     856.4828     1488.828     1778.754     90.67596     181.4243     363.2827      2.138     6.98     1194.097     64.06635     116.9882        11     1.448     0.944  83.55   2
       151    660.1891    743.8080 307.6367052  +6.3813337     611.9614     1185.556     1164.249     90.67595      181.569     363.3912      1.679     3.80     1194.226     64.06635     103.4614         5     1.222     0.340  80.45   2
       152    810.1273    740.6081 307.5744527  +6.3876410     626.1285     1192.156      1568.43     90.67596     181.2795     363.3189      2.101     5.25     1191.573     64.06635     102.7412         6     1.340     0.582  19.68   0
       153    234.8879    737.5172 307.8137990  +6.3697487     1444.548     3691.284     5639.767     90.82069     182.0026     363.4996      3.342     6.47     1201.612     64.06635     179.4994        27     1.816     1.386  40.30   0
       154    926.7711    733.0520 307.5261937  +6.3946351     784.9656     1324.984     1421.789     90.82069     181.9304      363.355      1.822     4.55      1189.59     64.06635     122.0538         8     1.224     0.481  66.84   0
       155    900.8374    732.2396 307.5370074  +6.3941098     926.5515     1541.364     1687.573     90.82069     181.7137     363.3189      1.719     5.93      1190.16     64.06635     118.1218        12     1.290     0.767 -47.06   0
       156    953.9500    730.8817 307.5149626  +6.3964333     1950.542     3263.051     4119.503     91.10947     181.8582     363.4996      1.947     4.73     1189.141     64.06635     228.6587        21     1.291     1.153 -19.97   0
       157    673.7169    730.1370 307.6315410  +6.3874298     580.0479     1151.185     900.8049     91.25352     181.8582     363.4273      1.605     5.19     1193.064     64.06635     88.20215         6     1.396     0.545  19.15   0
       158    995.5435    724.3303 307.4978837  +6.4005188     1650.608     2396.059     2112.452     91.25352     181.7137     363.4273      1.626     3.74     1188.445     64.06635      239.811        15     1.078     0.958  71.93   0
       159    795.9265    723.0896 307.5809505  +6.3944042     851.9937     1341.416      1286.85     91.10947     182.0747     363.4996      1.690     6.16     1190.732     64.06635     132.7087         8     1.076     0.990  43.34   0
       160    245.0435    723.4444 307.8100532  +6.3758998     586.3704     1445.896     2921.873     91.10947     181.7859     363.3189      3.127     4.20     1200.507     64.06635     83.95605         5     1.133     0.443  65.13   0
       161    883.2162    719.9557 307.5447507  +6.3985980     1217.958     2138.635     2396.036     90.53099     181.6414     363.2104      1.877     5.96     1189.857     64.06635      165.109        13     1.184     0.845  22.73   0
       162    857.3879    714.4105 307.5556803  +6.4000305      577.774     880.4489     958.4864     90.82069      181.569     363.3912      1.509     3.47     1189.786     64.06635     95.17896         5     1.117     0.311 -20.79   0
       163    840.5496    711.2161 307.5627916  +6.4007904     1164.465     2125.654     1971.631     90.53099     181.8582     363.1381      1.921     5.20     1189.683     64.06635     155.2249        14     1.163     1.048 -76.99   0
       164     39.5955    710.7748 307.8959263  +6.3742597     1626.009      3586.65     4229.717     90.53099     181.4967     363.2827      2.246     5.88     1199.493     64.06635      246.256        29     1.530     1.447  35.34   0
       165    651.9335    699.0358 307.6416525  +6.3995494     3815.253     8825.461      10080.3     90.96519     181.8582     363.5357      2.291     5.31     1191.831     64.06635     442.3057        46     1.691     1.632 -58.74   0
       166    598.5229    698.0984 307.6638987  +6.3981585     905.4033     2125.114     2174.494     90.67595     182.0747     363.4635      2.401     7.36     1193.256     64.06635     138.7998        14     1.616     0.940 -31.54   0
       167    115.0946    695.2144 307.8650565  +6.3832129     2152.872     5226.854     5898.079     90.82069     181.4967     363.2827      2.381     5.54     1199.346     64.06635     310.8231        37     1.656     1.559 -63.55   0
       168    626.1031    694.7260 307.6525416  +6.4004696     1311.524     2999.793     3803.238     90.82069     182.0026     363.4996      2.541     8.10     1192.425     64.06635     159.9469        21     1.415     1.295 -17.45   0
       169    988.6482    694.1044 307.5017702  +6.4127733     2296.553     3863.945     4087.321     90.96519     181.6414     363.6441      1.781     4.17     1187.875     64.06635     280.7301        21     1.305     1.050  -5.61   0
       170    768.7195    691.0856 307.5933471  +6.4067173     13393.26     28507.58     30773.36     90.82069     182.1468     363.5719      2.165     5.09     1189.672     64.06635      1430.32        59     1.716     1.586 -49.18   0
       171    898.6986    690.8339 307.5392935  +6.4111392     2991.034     5284.204     6086.319     91.10947     181.6414      363.608      1.933     4.18     1188.092     64.06635     374.4011        24     1.369     1.111 -39.42   0
       172    242.4408    685.1097 307.8124370  +6.3916443     3397.631     8738.422     10878.97     91.10947     181.7859     363.4996      2.628     5.94     1197.617     64.06635     417.6821        51     1.815     1.761 -84.95   0
       173    649.2435    683.9849 307.6432803  +6.4056758     4258.956      9798.54     10725.31     90.38579      181.569     363.1743      2.268     5.26     1191.116     64.06635     462.2604        48     1.768     1.579 -53.88   0
       174    909.1974    676.5516 307.5354084  +6.4173862     997.8658     1625.532     1121.506     90.38579     181.4243     362.9934      1.689     5.34     1187.434     64.06635     140.7531         9     1.076     0.748 -19.19   0
       175    721.1606    672.2748 307.6137638  +6.4129046     2388.717     5254.943      6316.72     90.96519     181.7859     363.4996      2.376     5.65     1189.405     64.06635     266.1941        30     1.570     1.327 -24.68   0
       176    987.2852    668.8641 307.5031877  +6.4231522     7580.947      13121.1      14107.2     91.25352     181.9304     363.4996      1.868     3.95     1187.041     64.06635     908.3857        39     1.430     1.368 -83.65   0
       177    925.4087    669.4377 307.5289054  +6.4208623     1760.438     3275.327     3463.583     90.24036     181.4967     363.1743      1.950     4.95     1187.061     64.06635     221.0284        21     1.315     1.191 -86.52   0
       178      6.7463    668.8004 307.9110158  +6.3904938     1297.118     2980.223     3856.999     90.24036     181.4243     352.0456      2.678     6.79     1198.787     64.06635     182.9839        19     1.568     1.153  20.31  16
       179     64.8896    664.2075 307.8869906  +6.3943377     14851.79     35538.86     40053.21     90.53099     181.4243     363.1743      2.352     5.24     1198.529     64.06635     2043.141        73     1.850     1.772  88.21   0
       180    524.3477    664.9827 307.6958704  +6.4093640     982.4868     2011.159     2580.026     90.53099     181.8582     363.1381      2.076     5.82     1193.307     64.06635     124.2633        11     1.558     0.613 -69.20   2
       181    527.6303    664.2112 307.6945312  +6.4097920     1022.379     1757.625     2753.993     90.53099     181.4967     363.2827      2.704     6.24     1193.132     64.06635     143.3687        10     1.444     0.756 -53.97   3
       182    493.6536    663.9342 307.7086724  +6.4087740     610.0045     1187.093     1821.497     91.10947     181.7137     363.4273      2.011     4.76         1194     64.06635     94.20911         5     1.235     0.520  18.77   0
       183    495.4324    661.1806 307.7080258  +6.4099705     654.2358     1552.682     1720.449     90.53099      181.569     363.2827      1.989     5.60     1193.774     64.06635     84.97437         6     1.783     0.496  15.10   0
       184    915.8025    660.4246 307.5332049  +6.4242658     710.9285     1114.025     1082.964     90.67596     181.4243     363.2466      1.717     3.51     1186.341     64.06635     89.60205         5     0.777     0.456 -17.56   0
       185    710.7051    656.1949 307.6186559  +6.4191978     2014.214     4748.763     5408.362     90.82069     181.4243     363.1743      2.378     6.16     1188.485     64.06635     211.8173        36     1.658     1.572 -47.33   0
       186    732.6303    654.3973 307.6095971  +6.4206694     2366.281     5364.678     5694.132     90.53099      181.569     363.2466      2.211     6.10     1188.312     64.06635     253.9526        35     1.773     1.341 -37.41   0
       187    564.2994    652.4529 307.6796775  +6.4158698     1898.135     4347.775     5033.618     90.96519     181.7859     363.7163      2.376     7.07     1191.425     64.06635     198.8673        30     1.534     1.421 -48.92   0
       188    225.1039    652.5871 307.8207517  +6.4044960     1011.345     2672.202     3526.495     90.82069     181.4967     363.2466      2.971     8.82     1196.418     64.06635     154.4707        18     1.944     1.118 -34.89   0
       189    399.7862    652.4111 307.7481044  +6.4104023     701.4739     1766.006     1619.502     90.82069     181.4967     363.3912      2.321     5.90     1194.973     64.06635     102.4846        11     1.590     0.617 -36.21   0
       190   1005.5668    650.2529 307.4962107  +6.4314449     4372.099      7664.89     8342.438     90.96519     181.7137     363.3912      1.874     3.94     1185.167     64.06635      563.765        33     1.458     1.306 -56.03   0
       191    970.9833    649.1886 307.5106315  +6.4307374     6896.407     12168.25     12807.23     90.82069     181.4243      363.355      1.845     3.90      1185.22     64.06635     870.7932        41     1.531     1.331 -53.38   0
       192    308.2490    651.3631 307.7862121  +6.4077795     789.7887     1791.388     1483.698     90.82069     181.7137     363.3189      2.187     7.43     1195.827     64.06635     129.7135        11     1.486     1.041  -6.56   0
       193    129.6246    643.0729 307.8607858  +6.4052322     13019.59     32700.99     36278.38     90.67595     181.6414     363.3912      2.404     5.74     1197.354     64.06635     1676.465        70     1.899     1.783  85.85   0
       194    416.5089    643.9235 307.7414367  +6.4144655     1706.827     4155.775     5119.022     90.96519     182.0747     363.4635      2.560     6.29     1194.227     64.06635     216.1877        32     1.637     1.453 -51.20   0
       195    796.9444    643.6093 307.5832107  +6.4272628     692.4983     1580.195      1399.69     90.38579     181.7137     363.1381      2.209     4.61     1186.934     64.06635     112.4916         6     0.870     0.694 -28.20   0
       196    965.7950    632.0924 307.5133659  +6.4376259     5479.525     10778.54     11778.02     90.67596     181.4243     363.1743      2.094     4.32     1183.699     64.06635     616.5671        45     1.658     1.490  46.37   0
       197   1021.0867    627.2739 307.4905294  +6.4414498     79910.72     134380.4     139983.9     91.25352     179.0927     317.4796      1.805     3.78      1182.79     64.06635     9282.671        80     1.603     1.413 -71.31  24
       198    559.4671    627.7213 307.6825245  +6.4259227     25319.98     64726.79      72922.6     91.25352     181.8582     363.4273      2.437     6.12      1189.73     64.06635     2851.034        89     1.955     1.842 -48.87   0
       199     12.0400    632.0324 307.9100653  +6.4058553     741.0675     1015.871     993.1296     90.67596      181.569     363.2827      1.218     3.56      1196.88     64.06635     125.0406         5     0.961     0.386  61.61   0
       200    167.0268    624.4026 307.8458642  +6.4141937     1442.026     3673.447     4067.109     90.53099     181.4967     363.2466      2.470     8.58     1196.557     64.06635     170.2096        29     1.711     1.378  34.57   0
       201     60.6516    618.5369 307.8903066  +6.4130564     761.4131     1503.462     1524.932     91.10947     181.7137     363.4273      1.735     3.52      1196.21     64.06635      121.428         5     1.094     0.327 -21.15   0
       202    456.7791    611.5245 307.7257849  +6.4291890     31493.34      85160.2     97193.09     90.67596      181.569     363.3912      2.509     6.21     1191.313     64.06635     3556.313       100     1.999     1.909 -49.53   0
       203      1.6040    612.7878 307.9150607  +6.4134531     797.6511     1059.361     989.5317     82.80189     148.8106     278.4698      1.216     3.99       1195.9     64.06635     115.9205         8     0.932     0.623  76.36  24
       204    132.7375    607.0810 307.8607144  +6.4202001     838.8807      1769.35     1442.023     91.25352     181.8582     363.4273      1.730     4.59     1195.803     64.06635     131.1171         7     1.276     0.468 -43.91   0
       205    302.5462    600.9868 307.7902933  +6.4283934     1104.386      2959.86     3842.649     90.38579     181.7137     363.1743      2.717     6.78     1192.795     64.06635     168.7257        21     1.728     1.259  87.11   0
       206    728.6832    594.8860 307.6132498  +6.4451158     2965.573     6968.867     7360.615     90.82069     182.0026     363.5357      2.258     6.44     1185.076     64.06635     302.0957        35     1.671     1.420 -57.47   0
       207    782.2527    590.1896 307.5911257  +6.4488365     8523.912     19009.94     20772.39     90.38579     181.7137     363.1743      2.218     5.36     1184.484     64.06635     829.7688        54     1.736     1.603 -39.79   0
       208   1021.8361    589.0055 307.4915070  +6.4572794     1708.885     2889.722     3015.259     90.09469     171.1423     305.6334      1.798     5.71     1179.928     64.06635     196.4788        21     1.428     1.165 -82.34  24
       209    999.8864    590.3016 307.5005938  +6.4560162      738.041     1264.725     889.6938     91.10947      182.291     363.5357      1.398     4.51     1180.315     64.06635     103.7828         7     1.262     0.458   1.16   0
       210    606.4745    588.2862 307.6643064  +6.4437746     1627.671     4035.744     4355.479     91.25352     182.1468     363.5357      2.388     9.03     1186.163     64.06635     176.3698        29     1.577     1.478 -36.95   0
       211    219.9474    582.0983 307.8252902  +6.4334340     752.8179     1405.412     1650.955     90.96519     181.7859     363.6802      2.013     5.93     1193.807     64.06635     141.8575         9     1.336     0.740 -42.98   0
       212    858.2313    573.2162 307.5600942  +6.4583709     1766.018     3636.404     4164.371     90.67596     181.4967      363.355      2.104     6.32     1182.354     64.06635     239.9113        27     1.701     1.114 -28.53   0
       213    816.9639    571.0034 307.5773349  +6.4579138      1726.39     3836.434     4398.013     90.09469     181.6414     363.2104      2.249     6.17     1182.747     64.06635     201.8489        28     1.543     1.340 -58.45   0
       214    797.5330    562.1058 307.5857180  +6.4609428      95080.8     218763.2     243050.8     90.96519     182.0026     363.4635      2.298     5.49     1182.369     64.06635      9914.76       155     2.248     1.826 -33.00   0
       215    245.3144    566.0660 307.8152835  +6.4409028     3822.018     10176.33     11802.69     91.25351     182.0026     363.5357      2.498     6.20     1191.396     64.06635     532.9087        51     1.820     1.752  59.70   0
       216    179.4049    560.6874 307.8428807  +6.4409206     28159.22     78946.27     91620.14     90.53099     181.4243     363.1381      2.565     6.59     1193.045     64.06635     3989.225        97     2.039     1.927 -61.07   0
       217    103.4233    556.9626 307.8746108  +6.4399168     3196.827      8634.38     9974.225     90.67595     181.4967     363.2104      2.515     6.10     1193.339     64.06635     452.4755        49     1.860     1.744  53.99   0
       218    968.5776    553.6379 307.5148532  +6.4701197     1076.172     1743.753     1949.262     90.67596     181.4967     363.2466      1.704     6.58     1179.293     64.06635     134.2036        15     1.429     0.850 -66.80   0
       219    834.2609    549.2834 307.5708731  +6.4674587     2932.448     6269.734     6946.655     91.25352     181.7859     363.4996      2.190     5.46      1181.05     64.06635     303.4196        34     1.526     1.475 -35.26   0
       220    352.8074    547.7628 307.7711932  +6.4520523     7763.589     22620.39     26460.12     90.24036      181.569     363.1743      2.569     6.54     1187.158     64.06635     958.7159        69     1.977     1.858 -40.26   0
       221    154.7137    546.7939 307.8536228  +6.4458324     885.8141     2373.861     2532.972     90.53099     181.4243     363.1381      2.336     8.77     1192.743     64.06635     140.1562        18     1.706     1.260  18.20   0
       222    788.2590    542.7080 307.5902309  +6.4686457      3655.33     8403.534     9202.316     90.96519     181.7137      363.608      2.247     5.57     1181.357     64.06635     360.3427        41     1.681     1.516 -13.29   0
       223    519.1396    542.6876 307.7021777  +6.4596967     3030.058     8478.582     9642.402     91.25352     182.0026     363.5719      2.467     6.77     1185.281     64.06635     359.9249        48     1.891     1.634 -33.81   0
       224    378.2238    539.7197 307.7608939  +6.4562224     706.4917     1576.978     1457.166     90.67596     181.4243     363.4273      2.016     5.87     1186.563     64.06635     110.0448         7     1.536     0.632 -47.87   0
       225    562.6459    535.2183 307.6843333  +6.4642312     1204.584     2900.437     3597.719     90.67596     181.6414     363.1743      2.460     7.44      1183.98     64.06635     162.0498        19     1.825     0.849 -71.37   2
       226    565.6782    535.6652 307.6830569  +6.4641476     886.3224     1868.498     2187.762     91.25352     181.8582     363.4273      2.052     3.60     1183.947     64.06635     120.7448         5     0.785     0.475 -26.00   3
       227    166.1711    535.8562 307.8492289  +6.4507327     3108.451     8804.819     10072.09     90.67595     181.8582      363.355      2.483     6.39     1191.639     64.06635     436.8987        49     1.862     1.725 -45.81   0
       228    261.3954    532.3026 307.8097411  +6.4553839     39256.31     115408.5     135059.8     90.82069     181.4243     363.1019      2.631     6.58     1187.531     64.06635     5463.082       115     2.098     2.001 -61.51   0
       229     37.9719    534.6841 307.9025922  +6.4469259     2707.517      7022.49     7611.647     91.10947     181.4967     363.3189      2.451     5.99     1192.514     64.06635     390.4811        45     1.793     1.710  81.41   0
       230    784.3497    524.3718 307.5924764  +6.4760884     9549.451     22066.13      24223.7     90.67596     181.9304      363.355      2.288     5.50     1180.383     64.06635     937.7247        60     1.797     1.664 -58.87   0
       231    486.8026    524.6027 307.7162413  +6.4660876     15223.83     27587.01     30572.33     90.38579     181.2795     363.2466      1.930     4.97     1184.253     64.06635     1688.263        35     1.778     1.051  27.78   3
       232    489.0463    522.1635 307.7153906  +6.4671698     19554.53     41366.12     47758.65     90.82069     181.7859      363.355      2.230     6.12     1184.033     64.06635     1976.057        61     2.203     1.296  29.01   3
       233    960.3246    525.0178 307.5192513  +6.4816658     1059.011     2193.829     2424.845     90.53099     181.4967      363.355      2.211     6.74     1177.354     64.06635     122.6711        15     1.227     1.124 -77.59   0
       234    202.2552    519.3240 307.8347814  +6.4587668     952.3085     2000.437     2568.045     91.10947     181.7859     363.3912      2.593     6.46     1188.703     64.06635     104.6968        13     1.384     0.848 -64.09   2
       235    646.9528    519.6536 307.6497904  +6.4734667     1160.298     2243.569     3919.511     91.10947     181.7859     363.4996      2.854     6.63     1181.369     64.06635     143.1205        12     1.585     0.779  25.28   3
       236    649.1985    517.2466 307.6489377  +6.4745355     1248.046     2619.916      3544.77     90.38579     181.4243     362.9934      2.878     7.87     1181.193     64.06635     157.4454        17     1.651     1.049  21.75   2
       237    708.9368    516.0540 307.6241280  +6.4770159     643.3777      1317.73     1562.961     91.10947     181.7137     363.4273      2.493     5.25     1180.766     64.06635     99.17871         6     1.119     0.695 -60.35   2
       238    132.5434    510.7825 307.8640685  +6.4599625     12397.16     34375.32     39502.39     90.53099     181.7137     363.1743      2.547     6.23     1190.261     64.06635     1724.783        77     1.964     1.890 -77.57   0
       239    317.2681    511.9053 307.7871926  +6.4656741     1793.891     4843.016     5241.938     90.96519     182.0026     363.4996      2.500     7.80      1184.99     64.06635     222.3452        41     1.838     1.710 -41.62   0
       240    498.4324    512.1715 307.7118248  +6.4716092     891.4586     2165.594     2888.308     90.53099     181.4967     363.2466      2.933     7.39     1183.279     64.06635     124.0239        12     1.601     0.955 -42.51   2
       241    860.3217    510.6186 307.5613373  +6.4842928     953.9818     2202.992     2569.837     90.53099     181.4243     363.4273      2.172     7.68     1178.414     64.06635     135.7229        14     1.502     1.100 -62.17   0
       242     96.6319    511.0601 307.8789965  +6.4586460      971.505     1854.434     2578.471     90.82069     181.8582     363.4273      2.278     5.75     1191.153     64.06635     134.4161        10     1.299     0.718  39.93   3
       243     98.5461    508.3375 307.8782929  +6.4598344     1295.703     2638.511     3463.229     91.10947     181.7137     363.4273      2.660     7.67     1190.954     64.06635     169.6398        20     1.914     0.887  29.61   2
       244    957.8093    504.9878 307.5209730  +6.4898547     3868.369     7425.896     7970.634     90.82069      181.569     363.3912      2.027     5.26     1175.625     64.06635     409.0656        32     1.486     1.345 -66.82   0
       245    429.4565    491.7507 307.7412091  +6.4777424     19080.34     55665.13     64985.53     91.10947     181.7859     363.5357      2.622     6.78     1182.916     64.06635      2364.96        87     2.033     1.961 -51.57   0
       246    636.3421    492.6707 307.6551170  +6.4842571     5267.472      8849.93     9382.202     91.25352     181.7859     363.4635      1.829     4.72     1180.179     64.06635     521.6117        19     1.513     0.903  35.46   3
       247    638.2478    490.6074 307.6543941  +6.4851727      5976.73     12219.08     13472.49     90.53099      181.569     363.0296      2.136     5.66      1180.05     64.06635     680.6049        43     1.982     1.257  27.59   3
       248    194.6938    489.5004 307.8389399  +6.4708304      9204.66     26762.22     31058.89     91.10947      182.363     363.2827      2.670     6.53     1186.132     64.06635      1078.36        77     2.023     1.971  89.83   0
       249    161.5307    489.2104 307.8527443  +6.4698410     868.3442     1958.518      2364.25     90.53099      181.569     363.2827      2.858     8.00     1187.546     64.06635      111.099        13     1.678     1.067  21.70   2
       250    559.1561    488.0403 307.6873821  +6.4835988     1290.132     3554.403     3870.698     90.82069     181.7859      363.355      2.508     9.45     1181.068     64.06635     151.0769        27     1.642     1.519 -88.70   0
       251    933.0806    485.1705 307.5319285  +6.4972184     3185.061       6681.9     7394.659     90.96519     181.7137     363.4273      2.174     5.36     1174.535     64.06635     348.0083        34     1.567     1.395 -39.20   0
       252    604.5944    483.5726 307.6686315  +6.4869575     2536.405     4514.168     5662.937     90.53099      181.569     363.2466      2.049     5.63     1180.227     64.06635     302.9468        22     1.826     0.809 -79.51   3
       253    607.6457    482.8891 307.6673854  +6.4873414     2728.142     5269.671     6138.607     91.10947     181.6414      363.608      2.117     8.58     1180.143     64.06635     346.9399        25     1.967     1.044 -75.81   3
       254    955.5703    477.3272 307.5228372  +6.5012040     2436.376     4496.173     4724.535     90.96519     181.7859     363.4273      1.954     5.18     1173.333     64.06635     260.4906        25     1.397     1.234 -67.12   0
       255    517.0131    476.4945 307.7053039  +6.4869627     2515.911     4024.972     5050.632     90.82069     181.4967     363.2827      1.678     5.22     1180.583     64.06635     314.4658        18     1.687     0.752  36.22   3
       256    520.3714    474.7738 307.7039652  +6.4877852      2915.37     5021.667     6254.008     90.53099      181.569     363.3189      1.843     4.84      1180.48     64.06635     364.0704        21     1.544     0.897 -85.55   3
       257    517.3698    473.6885 307.7052506  +6.4881334      2577.59     4368.776     5170.406     91.25352      181.569     363.3912      1.801     4.08     1180.419     64.06635     339.5037        15     1.250     0.842  55.90   3
       258    365.0510    474.7015 307.7685785  +6.4826341     1297.726     2822.086     3147.447     91.10947     181.7859     363.7163      2.398     7.96     1182.106     64.06635     184.5796        19     1.527     1.211  88.84   2
       259    362.3221    476.0223 307.7696688  +6.4819975     833.1568     1450.838      2018.84     90.67595      181.569     363.4273      1.704     3.50     1182.204     64.06635       107.77         5     0.777     0.454  75.58   3
       260    874.7846    470.5931 307.5566717  +6.5013034     1899.532     4302.401     5733.596     90.67596     181.4967     363.2827      2.613     5.91      1175.46     64.06635     203.4955        30     1.572     1.368 -21.80   0
       261    921.1417    464.3707 307.5375967  +6.5054124     955.3306     1633.106     1590.551     90.67596     181.8582      363.355      1.990     6.70     1173.633     64.06635     130.5607        11     1.484     0.850 -74.97   0
       262    881.8258    464.7565 307.5539395  +6.5039477     1253.104     2942.537     3591.259     90.67596     181.8582      363.355      2.436     6.68     1174.871     64.06635     177.8995        22     1.432     1.274  69.98   0
       263    706.1453    461.3255 307.6271393  +6.4995254     1711.795     4145.483     4514.812     90.96519     181.7137     363.4273      2.352     7.14     1177.422     64.06635     206.7616        32     1.664     1.479   4.61   0
       264    377.1237    459.3695 307.7640765  +6.4893689     1402.803     4665.758     4994.243     90.96519     181.8582     363.4635      2.555     9.53       1180.7     64.06635     232.1016        33     1.862     1.620 -33.57   0
       265    604.8981    455.9525 307.6694398  +6.4983743     4686.267     13297.72     15176.65     91.10947     181.7137     363.6802      2.504     6.92     1178.486     64.06635     532.0846        54     1.891     1.758 -58.46   0
       266    767.6451    452.1501 307.6018652  +6.5053601     9270.165     22363.67     26278.81     91.10947     181.6414     363.4635      2.441     5.89     1176.025     64.06635     883.4583        69     2.188     1.645 -50.17   0
       267    288.2845    452.5242 307.8012644  +6.4892291      1320.98     3260.529     3723.644     91.25352     182.1468     363.5357      2.582     6.95     1181.318     64.06635     174.9004        19     1.394     1.205  44.83   2
       268    952.6171    447.3430 307.5250769  +6.5134894      1350.11     2843.302     2965.198     90.53099     181.7137     363.1743      2.082     7.57     1171.825     64.06635     164.4182        23     1.601     1.193 -39.72   0
       269     67.5862    462.6054 307.8927264  +6.4776840     592.4756     1565.106     2316.613     90.67596     181.4967     363.3189      2.001     3.92     1189.162     64.06635     96.57678         5     1.001     0.439  13.86   0
       270    105.1547    444.7417 307.8777067  +6.4863190     1924.048     5698.104     6448.853     90.96519     181.7859     363.5719      2.581     7.83     1187.502     64.06635     289.7332        41     1.844     1.700 -68.66   0
       271    744.5269    442.4785 307.6118094  +6.5085857     1003.689     1786.914     2090.332     91.39734     182.0747     363.4996      2.200     6.13     1175.654     64.06635     120.6462        11     1.153     0.916  75.64   3
       272    741.6238    442.0559 307.6130313  +6.5086636     911.7268     1586.383     1942.009     90.67595     181.7859     363.2466      2.115     6.85     1175.692     64.06635     137.5098        13     2.055     0.640  78.41   2
       273   1006.6828    441.9013 307.5027681  +6.5175304     3013.336     6508.227     7184.175     91.10947      182.291     363.5719      2.199     4.93     1170.071     64.06635     343.5223        37     1.597     1.453 -11.64   0
       274    263.3527    440.9111 307.8120299  +6.4931919     632.4584     1650.522     2731.556     91.10947     181.6414     363.6441      3.311     6.82     1180.999     64.06635     103.9003         8     1.567     0.831  61.86   0
       275    341.9681    439.8226 307.7793639  +6.4962677     1476.187     3257.117     3899.446     90.53099      181.569     363.2104      2.238     7.86     1179.707     64.06635     195.6836        25     2.059     1.039 -36.35   2
       276    339.6710    437.6509 307.7803931  +6.4970879     928.5359     1543.423     2387.368     90.96519     181.7859     363.4996      1.853     4.76     1179.576     64.06635     129.0193         8     1.383     0.465 -50.93   3
       277    696.3683    437.2359 307.6320210  +6.5091489     801.2532     1932.816     1992.617     90.67596     181.4967     363.1743      2.395     8.02     1176.409     64.06635     117.1028        11     1.548     1.162 -26.51   0
       278    539.0045    428.5536 307.6977792  +6.5074945     582.2274     1136.675       1506.3     90.38579     181.4967     363.1019      1.969     6.84     1176.705     64.06635     91.88037         8     1.294     1.013 -30.06   0
       279    822.7083    426.5183 307.5798240  +6.5177760      918.747     1964.782     1933.897     90.82069     182.0747     363.5357      2.329     6.52     1173.516     64.06635     167.4794        12     1.392     0.900 -49.38   0
       280    808.6412    426.3791 307.5856808  +6.5173660     1075.518     2601.771     2355.815     90.67596      181.569     363.2466      2.255     8.46     1173.637     64.06635     118.8326        19     1.571     1.273 -44.85   0
       281    704.8393    424.1510 307.6289394  +6.5148346     7053.403     14588.72      16939.2     91.10947     181.7859      363.355      2.190     6.20     1175.533     64.06635     762.6361        41     1.991     1.144  85.23   3
       282    707.6895    423.3848 307.6277796  +6.5152459     6067.185     10127.16      11391.9     90.82069      181.569     363.2827      1.781     4.52     1175.406     64.06635     796.3656        21     1.490     0.844  76.47   3
       283    628.7944    420.1725 307.6607096  +6.5139468     1162.182     2032.814     2494.284     90.53099      181.569     363.2466      1.841     8.96     1176.181     64.06635     168.5325        17     2.047     1.096 -45.50   3
       284    626.3061    418.6112 307.6617976  +6.5145087      1157.15     2208.474     2864.867     90.82069     181.4243     363.2104      2.187     7.33     1176.125     64.06635     150.8617        15     1.666     0.903 -61.10   3
       285    599.4928    415.3665 307.6730620  +6.5149558     7534.239     21775.51     29991.37     91.25352     181.6414     363.5357      2.993     7.82     1175.772     64.06635      793.382        93     2.721     1.894  32.99   0
       286    801.1950    417.4842 307.5890790  +6.5207921      5658.35      5815.91     5477.568     90.53099     181.3519     363.1019      0.731     1.00     1173.068     64.06635     2096.818         6     0.505     0.456 -69.57   0
       287    931.3367    413.9970 307.5350547  +6.5265548     2588.823     5252.016     5584.635     90.38579      181.569     363.2104      2.124     5.16      1170.62     64.06635     262.1874        30     1.461     1.367 -30.81   0
       288    370.4782    410.1268 307.7685112  +6.5094834     12303.11     37442.73     44187.46     91.39733     182.0747     363.4996      2.676     7.02     1176.883     64.06635     1426.566        88     2.087     1.994 -61.02   0
       289    886.3918    409.5541 307.5539029  +6.5268975     993.1575     2454.321      3453.98     90.53099     181.6414     363.0657      3.029     8.42     1171.325     64.06635     114.5898        16     1.787     1.108  79.67   0
       290    116.8685    409.7350 307.8740245  +6.5011678     1302.211     3304.347     4039.422     91.10947     181.8582     363.4996      2.636     8.39     1185.228     64.06635     179.6974        24     1.739     1.344 -57.94   0
       291    900.0726    404.2657 307.5483898  +6.5295359      3238.13     6913.947      7189.31     91.10947     181.8582     363.4635      2.187     5.34     1170.587     64.06635     338.8142        39     1.652     1.478 -63.25   0
       292     51.5449    405.4738 307.9013430  +6.5007405     731.3716     1432.333     1451.892     90.96519     181.6414      363.355      2.063     3.69     1187.992     64.06635     121.1162         6     0.995     0.394 -70.52   0
       293    228.1604    400.8192 307.8280312  +6.5085727     5954.191     18026.68     20477.49     90.67595      181.569     363.1381      2.601     7.13     1180.023     64.06635      786.624        62     1.975     1.847 -74.43   0
       294    128.4073    389.5872 307.8699096  +6.5098745     2208.065     6641.035     7816.725     90.67596      181.569      363.355      2.645     7.04     1183.878     64.06635     350.6981        42     1.874     1.713 -66.04   0
       295    234.3733    387.7946 307.8258890  +6.5141592     739.2298     1674.841     1871.602     90.53099      181.569     363.2466      2.111     4.26      1179.09     64.06635      103.598         6     1.211     0.428 -57.79   0
       296    151.5429    385.5548 307.8604224  +6.5123140     1330.294     3190.239      4330.97     91.10947     181.7859     363.4996      3.025     9.84     1182.671     64.06635     174.6467        22     1.940     1.391 -52.15   2
       297    961.4270    380.1443 307.5236780  +6.5415344     745.3452     1527.935       2283.9     90.67596     181.8582     363.2827      2.400     6.07     1167.292     64.06635     131.0542         9     1.543     0.671 -71.75   0
       298    374.1275    380.0538 307.7680132  +6.5220248     786.4343     2299.519     2665.475     90.96519     181.6414     363.3912      2.503     9.17       1174.5     64.06635      108.954        14     1.871     1.256 -87.33   0
       299    427.6782    373.5563 307.7459557  +6.5264953     3182.384     9480.369     10911.12     90.96519     181.7859     363.4996      2.610     6.92     1173.043     64.06635       381.16        53     1.923     1.799 -63.83   0
       300     24.8490    374.3138 307.9135086  +6.5127145     1840.043     4168.495     5179.241     91.10947     181.7137     363.4996      2.528     5.98     1187.781     64.06635     227.4382        28     1.596     1.333  79.32   2
       301    767.0024    370.8340 307.6048801  +6.5389215     6068.205     12699.56     15110.33     90.24036      181.569     363.2104      2.224     6.05     1171.002     64.06635     647.3684        44     2.026     1.359  87.77   3
       302    769.6987    370.6249 307.6037654  +6.5390975     5500.839     8076.127     9501.247     91.25352     181.4967     363.2827      1.637     3.64     1170.985     64.06635     668.1744        16     1.301     0.853 -45.95   3
       303    760.1415    372.3064 307.6076847  +6.5380853     1137.991     2920.152     3085.697     90.96519     181.7859      363.608      2.370     8.79     1171.103     64.06635     119.9211        23     1.681     1.285  65.13   0
       304    173.7624    374.2516 307.8515634  +6.5177252      3288.92     3374.335      3019.99     90.82069     181.7859     363.4635      0.667     1.10     1181.197     64.06635     1608.092         5     0.502     0.423  80.62   0
       305   1011.8583    365.4746 307.5031911  +6.5492659     2754.134     4982.998     5184.778     91.10947     181.7859     363.4273      1.933     4.53     1164.683     64.06635      330.691        28     1.471     1.217  74.08   0
       306    447.0194    357.8533 307.7384417  +6.5336256     834.7325      2577.13     2902.454     90.53099     181.7859     363.2466      2.919     7.02      1171.68     64.06635     125.6486        13     1.803     0.766  83.24   2
       307    474.0000    356.5281 307.7272621  +6.5350728     1089.036     1931.232     1838.218     90.24036      181.207     363.2827      1.906     6.23     1171.249     64.06635     139.6844        11     1.641     0.664  83.44   3
       308    476.9986    356.5897 307.7260125  +6.5351474      1358.22     3018.896     3208.307     90.67596     181.4243     363.2466      2.275     9.34     1171.209     64.06635     158.3951        24     1.729     1.409 -75.92   3
       309    833.4962    353.5726 307.5777992  +6.5482604     19840.54     46045.33     52095.38     91.25352     181.4967     363.3912      2.349     5.64     1168.872     64.06635     1861.172        84     1.972     1.740 -72.73   0
       310    605.3643    346.2872 307.6729574  +6.5436802     1137.871     3609.964     3804.444     91.10947     181.6414     363.4635      2.590     9.85     1169.034     64.06635     148.3213        28     1.776     1.525  -1.66   0
       311    689.9448    339.6042 307.6379947  +6.5492559     38912.28     106315.2     121130.6     90.38579      181.569     363.1381      2.484     6.56     1168.763     64.06635      4007.63       108     1.995     1.924 -48.29   0
       312    846.7106    342.5409 307.5726739  +6.5532555     643.6981     1199.199     1518.808     90.96519     181.7859     363.5719      2.053     3.98     1167.848     64.06635     132.8943         6     1.069     0.423  55.18   0
       313    551.2153    337.9964 307.6957660  +6.5453002     1021.845     2468.884     3576.354     90.67596     181.3519     363.2827      2.814    10.32     1168.299     64.06635     133.8447        23     2.520     1.178  87.29   2
       314    554.4024    336.3268 307.6944965  +6.5460960     1115.834      2009.53     2740.925     90.53099     181.2795     363.3189      1.857     4.50     1168.113     64.06635     176.3582         9     1.139     0.575 -61.86   3
       315     89.8156    335.5467 307.8878017  +6.5308999     2818.215     8147.297     9130.484     90.38579     181.7859     363.1381      2.542     6.94     1183.734     64.06635     363.9648        50     1.915     1.724  74.33   0
       316    534.3690    334.0665 307.7029077  +6.5463618      2684.84     5056.966     6080.958     90.82069     181.7859     363.3912      2.146     7.18     1168.148     64.06635     327.3781        16     2.103     0.687  73.64   3
       317    537.5204    332.7012 307.7016429  +6.5470307     2967.607     6252.585     7563.822     90.96519     182.2189     363.4996      2.299     7.92     1167.976     64.06635     369.9696        33     1.865     1.330  63.34   3
       318    398.7410    327.8915 307.7595428  +6.5443884     10972.81     34225.37     40359.59     90.96519     181.7137      363.608      2.675     7.20     1170.421     64.06635     1317.663        82     2.064     1.986 -61.58   0
       319    264.9695    330.7475 307.8150983  +6.5387410     1130.479     3269.465     3894.837     90.96519     181.9304     363.3912      2.551     8.15     1174.634     64.06635     189.5428        25     1.668     1.479 -67.10   0
       320    577.8366    326.6782 307.6850737  +6.5508615     546.8195     919.4636     414.9456     90.96519     181.8582     363.4635      1.772     5.65     1167.276     64.06635      92.2572         6     1.371     0.655 -13.77   0
       321    487.6544    318.3263 307.7228760  +6.5513049     3731.331     11359.02     13432.22     90.96519     181.6414     363.3912      2.669     7.54     1167.674     64.06635     437.4365        55     1.937     1.811 -49.96   0
       322    756.8899    316.7326 307.6109156  +6.5609286       1622.6     4426.048      4494.16     91.25352     181.9304     363.4273      2.411     9.62     1167.354     64.06635     176.6506        34     1.703     1.560 -45.65   0
       323    911.8198    316.4200 307.5464668  +6.5662055     587.6454     898.1771     1503.213     90.82069     181.7137     363.3912      1.641     5.19     1165.401     64.06635     84.40759         5     1.070     0.712 -80.02   0
       324    151.5041    308.9301 307.8630436  +6.5439566     621.9527     1439.718     1774.744     90.96519     181.8582     363.4635      2.298     5.12     1180.594     64.06635     84.49609         6     0.978     0.759 -27.20   0
       325    377.6764    302.3940 307.7691713  +6.5542152     3040.812     9701.581     11395.86     90.67596      181.207     363.2827      2.666     7.58     1169.718     64.06635     418.1545        52     1.910     1.827 -51.12   0
       326    233.6898    303.0212 307.8290532  +6.5491457      738.365     2474.374     2797.341     91.10947      181.569      363.355      2.752    10.63     1174.651     64.06635      120.121        17     1.905     1.653 -48.68   0
       327    744.2912    298.2112 307.6167834  +6.5681587     25305.16     53586.78      59744.8     90.82069     181.4243     363.2466      2.172     6.37     1165.762     64.06635     2685.131        53     2.099     1.124  87.03   3
       328    747.0000    298.0136 307.6156631  +6.5683304     22275.96     36615.63     39715.65     90.53099     181.3519     363.2104      1.724     3.92     1165.816     64.06635     2653.278        34     1.527     1.060 -83.47   3
       329    415.9694    299.9819 307.7533217  +6.5564894     989.3909     1926.446     2864.021     90.67596      181.569     363.3189      2.587     6.66     1167.806     64.06635     139.2089        14     1.505     0.826  -3.60   2
       330    419.0082    297.6993 307.7521348  +6.5575335     836.0458     1322.091     1955.151     90.82069     181.3519     363.2827      1.629     4.25     1167.561     64.06635     154.8038         6     0.818     0.629  84.78   3
       331    979.4384    295.5404 307.5190375  +6.5770728     1075.092     1734.693      1306.95     91.10947     181.8582     363.4996      1.797     5.53      1162.17     64.06635     137.3307        10     1.291     0.733  85.19   0
       332    921.0737    294.4834 307.5433568  +6.5755724     1612.969     3125.795     3163.791     91.25351     182.1468     363.5357      2.056     6.19     1164.574     64.06635     178.4778        21     1.323     1.201 -79.78   0
       333    404.7143    293.9247 307.7582097  +6.5586153     1099.741      2534.27     3629.182     91.25352     182.1468     363.5357      3.188     7.60     1167.921     64.06635     128.7224        17     1.520     1.172 -37.72   2
       334    565.1618    293.7966 307.6914604  +6.5640188     505.1758      894.843     1305.949     90.09469      181.569     363.1743      1.697     5.45     1164.215     64.06635     90.88708         5     1.137     0.736  -5.80   0
       335    182.1326    284.7997 307.8511217  +6.5549465     1064.939     2453.048     3383.674     90.24036      181.207     363.1743      2.932     8.20      1177.94     64.06635     135.1263        15     1.496     1.257  69.43   2
       336    742.9727    284.4939 307.6177957  +6.5737799     2530.371     4233.933     6013.595     91.25351     181.4967     363.2827      2.284     7.22      1164.88     64.06635     326.0851        21     1.852     0.938  53.46   3
       337    745.6980    282.3338 307.6167348  +6.5747627     2666.184     4717.588     6031.112     91.10947     181.8582     363.4996      2.040     7.66     1164.864     64.06635     323.8052        21     1.745     0.941  32.44   3
       338    434.1896    284.0247 307.7462824  +6.5636874     625.0601     1651.567     1925.003     90.67596      181.569     363.3189      2.355     6.95     1166.307     64.06635     85.15747         8     1.745     0.775  24.26   0
       339    760.1820    280.8192 307.6107597  +6.5758699     1417.009     3435.481     3643.411     90.82069      181.569     363.3912      2.343     8.97     1165.082     64.06635     162.5001        25     1.671     1.345 -13.02   0
       340     77.4456    282.0948 307.8947664  +6.5525597     635.9797     1327.605     1589.744     90.96519     181.7137      363.608      2.407     4.63     1183.823     64.06635     99.47034         7     0.973     0.626   8.07   0
       341    349.6033    275.5558 307.7817614  +6.5643614     934.0103     2657.322     3082.709      90.3858     181.3519     363.0657      2.641     9.30     1169.812     64.06635     125.6652        19     1.810     1.335  85.53   0
       342    998.3763    271.5216 307.5119679  +6.5876207     4465.899      8160.26     8890.235     90.67596      181.569     363.4635      1.955     4.39      1159.81     64.06635     465.3571        36     1.478     1.404 -61.01   0
       343    475.4511    273.3215 307.7294783  +6.5694841     951.8198      2261.89      2887.15     91.10947     181.8582     363.4635      2.855     5.51     1164.432     64.06635     155.7572        12     1.233     0.906  80.85   2
       344    238.6911    269.6353 307.8281067  +6.5631005     2023.734     4196.634     5674.125     91.25352     181.6414     363.4996      2.556     9.47     1173.672     64.06635     255.2552        24     2.458     1.018  60.90   3
       345    241.0000    267.4604 307.8272200  +6.5640758     2558.821     4456.439     6369.967     90.24036     181.4967     363.0657      2.064     8.33     1173.589     64.06635     369.0521        25     2.248     1.006  55.61   3
       346    371.6276    257.4081 307.7732141  +6.5725915     611.1483     1510.546     1382.152     90.67596      181.569     363.2466      2.141     4.96      1167.87     64.06635      90.2605         5     1.125     0.618 -53.45   0
       347    144.2978    253.1593 307.8679380  +6.5667472     782.1463     1846.377     1982.706     91.10947     181.6414     363.7163      1.992     5.96     1180.701     64.06635     154.2606         9     1.629     0.709  55.08   2
       348    551.1349    249.7738 307.6987873  +6.5817321     885.7506     2533.477       3058.7     90.67596     181.7137      363.355      2.856     7.85     1160.986     64.06635     117.3771        14     1.795     0.961  74.64   2
       349    895.8802    247.9288 307.5554103  +6.5939626     978.2246     1976.184     1810.835     91.39733     182.0747     363.4996      1.990     6.79     1161.925     64.06635     157.5571        15     1.468     1.140  86.84   0
       350    655.8091    248.4742 307.6552797  +6.5857553     1055.356       2451.9     3822.841     90.67596     181.2795     363.2827      3.096     5.41     1161.323     64.06635     163.5323        12     1.197     0.999   6.76   2
       351    716.1443    247.0021 307.6302257  +6.5883712     2362.935     6569.737     7519.086     90.38579     181.4243     363.1019      2.484     7.48     1162.801     64.06635     237.6292        40     1.796     1.551 -40.34   0
       352    911.8163    238.6775 307.5490918  +6.5983124     835.9114     1454.264     1464.215     90.67596     181.4243     363.3189      1.824     5.94     1161.138     64.06635     114.9207         7     1.119     0.888   8.47   0
       353    216.6123    231.3861 307.8385921  +6.5781581     1034.304     2481.722     2559.958     90.96519     181.4243     363.3912      2.233     7.75     1174.801     64.06635     148.7744        17     1.855     0.905  53.74   2
       354    857.5040    231.6303 307.5719282  +6.5994190     809.7979     1978.863     2199.091     91.25352     181.4967     363.4996      2.292     5.71     1161.461     64.06635     122.4777         9     1.473     0.623  68.37   2
       355    747.4509    230.6709 307.6177519  +6.5961571     687.7875     1240.127     1820.509     90.96519     181.7859     363.4996      1.846     5.49     1162.988     64.06635      113.521         7     1.491     0.571  72.75   2
       356    750.3105    230.3202 307.6165739  +6.5963971      758.053     1657.824     1750.684     90.82069     182.0747     363.5719      2.076     4.58     1162.956     64.06635     120.3318         5     1.428     0.418 -83.66   2
       357    449.9771    222.0684 307.7418146  +6.5898009     9429.445     29854.97     35732.96     90.67596     181.7137     363.4273      2.720     7.75     1162.762     64.06635     1167.936        88     2.373     1.945 -41.87   0
       358    774.4391    221.5990 307.6068292  +6.6008012     6412.815     13254.66     14749.83      90.0947     181.4967     363.1381      2.114     6.58     1162.536     64.06635     718.9211        41     1.993     1.273 -86.27   3
       359    777.3302    221.3418 307.6056349  +6.6010035     5252.213     8373.701     9151.618     91.25352     181.7859     363.4273      1.738     4.25     1162.457     64.06635     631.5469        21     1.454     0.893 -67.00   3
       360    138.9825    215.8704 307.8714175  +6.5819685     1254.268     3125.216     3257.426     90.53099     181.6414      363.355      2.316     8.23     1181.006     64.06635     175.6346        21     1.860     1.017 -38.93   2
       361    113.2484    214.8678 307.8821583  +6.5815212     533.0515     1601.697     1473.526     91.10947     181.7137     363.4635      2.494     7.54     1182.343     64.06635      97.5282        10     1.600     0.995 -38.74   0
       362    911.6399    211.8603 307.5500703  +6.6093818     954.1295     2095.904     1988.808     91.10947     181.7859     363.5357      2.086     7.15     1159.225     64.06635     117.8093        14     1.334     1.073  66.19   0
       363    573.8333    207.9382 307.6907599  +6.5997658     1988.031     6214.249     6611.826     90.82069     181.8582     363.3912      2.510     8.23     1158.997     64.06635     245.9105        44     1.875     1.705 -12.62   0
       364    535.0397    209.3060 307.7068548  +6.5979081     770.8509      1694.43     2044.217     91.25351     181.7137     363.5719      2.341     4.96     1159.108     64.06635     135.6271         7     1.059     0.657  21.90   0
       365    538.8312    207.1230 307.7053512  +6.5989360     593.1457     1460.804     2004.331     90.96519     181.8582     363.4273      1.948     4.04     1158.974     64.06635     106.8075         5     1.354     0.345  83.61   2
       366    880.6962    204.3026 307.5632009  +6.6114754      6946.28        15615     17517.57     91.10947      182.435     363.2827      2.247     5.29     1159.159     64.06635      658.603        54     1.685     1.677 -53.12   0
       367    376.6059    206.5243 307.7728693  +6.5937715     568.0069      1190.31     1521.765     90.67596      181.207     363.2827      1.953     3.92     1165.704     64.06635     95.80054         5     1.036     0.425  75.24   0
       368    934.5504    204.7308 307.5407780  +6.6130868     1880.944     3625.288     4069.577     91.10947     181.7137     363.4996      2.020     5.98     1158.203     64.06635     192.0399        24     1.465     1.244 -12.41   0
       369      7.1610    201.3324 307.9267565  +6.5835573     12441.12      34868.6     41101.35     90.96519     181.7137      356.089      2.595     6.24     1185.675     64.06635     1627.077        82     2.096     1.874 -60.31  16
       370    967.3408    202.1735 307.5272202  +6.6152312     6806.175     13840.47     14447.84     90.67596     181.8582     363.2827      2.067     4.92     1156.921     64.06635     661.4841        43     1.579     1.468 -52.80   0
       371    677.6627    203.1772 307.6477194  +6.6051897     1214.865     2328.326     3570.687     90.67596     181.7859      363.355      2.364     7.34     1159.424     64.06635     150.5442        18     1.582     0.955  62.99   3
       372    680.3372    201.5519 307.6466616  +6.6059499     1187.432     2249.615     3438.927     90.96519     181.6414     363.5357      2.236     5.72     1159.468     64.06635     163.2567        11     1.545     0.597  48.04   3
       373    489.8087    197.2816 307.7260819  +6.6013659     767.2867     1532.307     2567.342     90.67596     181.3519     363.3189      2.710     6.62     1159.747     64.06635     113.8569        11     1.549     0.793 -58.70   2
       374    871.7417    191.9856 307.5673427  +6.6162648     1097.065     2789.722     3178.988     90.38579     181.6414     363.1381      2.423     6.92     1158.513     64.06635     144.8904        13     1.592     0.842  24.74   2
       375    819.3130    193.7596 307.5890983  +6.6137902     1255.201     2928.336     3060.539     91.10947     181.7859     363.4996      2.196     8.83     1159.835     64.06635      138.042        25     1.526     1.427  24.95   0
       376    730.9982    190.3112 307.6259621  +6.6122779     20296.87     53904.66     61362.32     90.24036     181.3519     363.2104      2.446     6.32     1160.191     64.06635      2124.06        86     1.952     1.855 -54.44   0
       377    498.2983    194.8648 307.7226314  +6.6026471      987.218      1728.38       2018.5     91.10947     181.8582     363.4996      1.986     5.74     1159.525     64.06635     116.0319        11     1.455     0.637  16.08   2
       378    501.2744    192.6280 307.7214690  +6.6036701     1011.014     1904.863     2116.615     90.96519     181.7137     363.3912      1.998     5.85     1159.405     64.06635     137.5093        12     1.253     0.770  52.82   2
       379    334.2647    189.9593 307.7910484  +6.5991985     3269.465     9728.764     13386.13     91.10947     181.7137      363.608      2.988     7.45     1168.491     64.06635     355.4143        72     2.458     1.839 -73.65   0
       380    964.3422    188.9720 307.5289133  +6.6205838     1960.497     3738.212     4622.989     90.67595     181.8582      363.355      2.131     5.22     1156.263     64.06635     252.0406        23     1.304     1.252 -50.70   0
       381    898.8423    187.4570 307.5562190  +6.6190352     4725.287      10298.4     10883.84     90.96519     181.7137     363.4635      2.194     5.22      1157.62     64.06635     489.4684        44     1.634     1.574 -32.69   0
       382   1003.0910    187.6865 307.5128331  +6.6224003     1124.506     2212.094     2184.386     90.82069      182.291      363.608      1.985     6.77     1155.232     64.06635     114.7211        17     1.345     1.040 -58.93   0
       383    443.3430    187.2882 307.7457541  +6.6039431     2126.521     4902.868     5549.187     91.10947     181.6414      363.608      2.295     9.13     1161.065     64.06635     261.2571        32     2.035     1.163 -31.65   3
       384    440.9030    185.2217 307.7468394  +6.6047150     1481.602     2299.496     2482.979     90.96519      181.569     363.2466      1.619     4.62     1161.019     64.06635     259.1204        12     1.266     0.654 -18.89   3
       385     99.9928    178.3696 307.8889151  +6.5961500     2306.525     6354.664      6958.76     90.53099      181.569     363.2104      2.507     6.52     1182.946     64.06635     298.7625        43     1.837     1.681 -40.52   0
       386    270.2336    174.8023 307.8182047  +6.6033184     14184.31     44645.79     52412.14     90.24036      181.569     363.2466      2.675     7.09     1173.819     64.06635     1900.568        86     2.062     2.003 -53.86   0
       387    245.5737    175.9093 307.8284274  +6.6020369     2764.804     8622.182     9987.386     91.25351     181.4967     363.2827      2.719     7.03     1175.084     64.06635     390.2609        53     1.975     1.823  -2.15   0
       388    394.2545    170.2680 307.7667562  +6.6093338      21041.4     65555.23     77658.32     91.10947     181.7137      363.355      2.696     7.15     1162.975     64.06635     2504.157       100     2.125     2.024 -40.88   0
       389    149.3916    173.6926 307.8685211  +6.5997350     1520.069     2932.487     3755.132     90.67596     181.4243     363.2466      2.189     6.56      1180.67     64.06635     204.6376        21     1.690     1.031  49.47   3
       390    151.9835    171.2723 307.8675251  +6.6008213      1787.35     3242.706     3884.753     90.53099     181.7137      363.355      1.991     7.89     1180.545     64.06635     235.0466        19     2.069     0.841  38.49   3
       391    732.3283    166.5668 307.6262116  +6.6221282     16326.75     33241.04     36614.53     90.96519     181.7859     363.4996      2.134     6.51     1158.698     64.06635     1676.417        48     2.101     1.126  88.64   3
       392    735.0000    166.0377 307.6251178  +6.6224356     13416.67     23087.45     23870.51     89.94879     181.4967     363.2104      1.808     4.71     1158.618     64.06635     1609.131        33     1.638     1.033 -85.76   3
       393    298.9557    168.0333 307.8064840  +6.6070737     8143.069     23713.15     31037.04     90.67596     181.7137     363.2827      2.921     7.68     1172.108     64.06635      1006.18        99     2.886     1.967  -3.72   0
       394    783.3912    167.5001 307.6049326  +6.6234410     735.3743     1268.775     1228.146     90.82069     181.3519     363.2827      1.587     3.30     1158.309     64.06635     125.7236         6     0.871     0.484 -84.99   0
       395     50.5446    163.8934 307.9099813  +6.6004720      4573.39     12563.02     14186.61     90.96519     181.7859     363.6802      2.513     6.23     1184.851     64.06635      601.278        58     1.916     1.780 -66.01   0
       396     85.1146    162.6607 307.8956399  +6.6021390     710.3667     1401.137     1460.901     91.25351     181.9304     363.5719      1.892     4.60     1183.527     64.06635     109.4072         6     1.251     0.480 -47.81   0
       397    991.7414    160.7989 307.5184626  +6.6331281     844.2313     1373.951     1615.015     90.38579     181.3519     363.1019      1.732     6.32      1154.37     64.06635      109.473        10     1.181     0.950 -13.18   0
       398    992.4504    146.7041 307.5186429  +6.6389726     1581.775     3080.796     3954.971     90.96519     181.7137     363.6802      2.245     6.08     1153.404     64.06635     180.5995        22     1.431     1.282  26.02   0
       399    269.1086    141.0984 307.8198177  +6.6171996     13102.04     41091.93     49159.52     91.10947      182.363     363.4273      2.701     7.06     1175.064     64.06635     1796.647        88     2.135     1.990 -52.21   0
       400    582.8763    144.0000 307.6891625  +6.6264724     605.8156     1379.531     2556.093     90.24036      181.062     363.2104      4.016     4.45     1157.804     64.06635     117.9828         5     1.472     0.383   3.89   3
       401    584.6990    141.7810 307.6884792  +6.6274496     966.2065     2365.682     2933.438     91.10947     181.6414     363.2104      2.504     7.41     1157.772     64.06635     128.2053        16     1.771     0.869  12.86   2
       402     14.4730    139.8390 307.9258084  +6.6091970     2247.885      6023.83     6902.016     90.96519     181.7137     363.5357      2.510     6.74     1186.173     64.06635     302.9268        41     1.901     1.529 -75.59   0
       403    700.6147    137.4598 307.6403922  +6.6330938      4212.07     10853.98     12345.13     90.53099     181.7137     363.1743      2.437     6.51     1157.853     64.06635     419.1991        50     1.788     1.666 -34.46   0
       404    111.6572    134.8127 307.8855438  +6.6145281     2318.549      6743.87     7818.651     90.38579     181.6414     363.1019      2.604     6.57     1181.527     64.06635     298.5919        48     1.923     1.709 -52.77   0
       405    384.0215    130.6599 307.7723579  +6.6253493     1593.698     3173.457     4032.159     90.67595     181.7137      363.355      2.491     7.58     1164.113     64.06635     213.4858        19     1.867     0.923  68.51   3
       406    346.7596    129.6411 307.7878970  +6.6245258     1556.198     4294.918     4675.745     90.82069     181.7859     363.3189      2.575    10.18     1168.589     64.06635     179.9764        36     1.762     1.639 -81.10   0
       407    381.0104    132.1319 307.7735609  +6.6246409     1556.264     3544.908     4698.953     90.53099      181.569     363.2827      2.461     9.36     1164.464     64.06635     189.8495        26     2.195     1.113  75.86   3
       408    993.1426    123.1563 307.5191491  +6.6487206     1216.813     2016.689     1934.144     90.96519     181.7137     363.4996      1.770     6.39     1151.728     64.06635     136.8197        13     1.179     0.972 -57.79   0
       409    199.1598    119.1710 307.8496675  +6.6239160     2467.478     6362.424     7651.479     90.67595     181.4967     363.3189      2.439     7.41     1178.377     64.06635      341.554        35     2.028     1.271 -43.49   2
       410    196.6866    116.9996 307.8507704  +6.6247300     1301.381     1958.814     2508.305     90.24036      181.207     363.0657      1.573     4.94     1178.475     64.06635     185.1783         9     1.205     0.572 -66.10   3
       411    659.2069    118.2181 307.6582735  +6.6396621     2889.309     5744.917     6729.719     90.67596     181.4243     363.2827      2.207     8.36     1157.358     64.06635     334.5946        29     1.938     1.050  77.23   3
       412    662.0000    117.0236 307.6571516  +6.6402484     2482.819     3869.728     4960.867     90.53099     181.3519     363.2104      1.694     3.66     1157.327     64.06635     337.0618        16     1.266     0.883  78.56   3
       413     81.0420    118.2901 307.8988444  +6.6203262     1003.893     2982.183     3656.833     91.10947     181.7859     363.4996      2.592    10.27     1182.151     64.06635     109.9993        28     1.889     1.555 -52.30   0
       414    612.3998    114.5191 307.6778758  +6.6396310     4245.162     12766.13     14686.39     90.24036      181.207     363.1381      2.608     7.27     1157.275     64.06635     556.7772        59     2.002     1.837 -73.96   3
       415    615.9179    106.0881 307.6766973  +6.6432300     25236.52     71426.72     82107.18     90.82069     182.0026     363.5719      2.535     6.76     1157.069     64.06635     2628.949        92     1.999     1.944 -39.08   3
       416     12.3939    113.9844 307.9275539  +6.6198043      621.343      1334.89     1378.771     90.67595     181.4967     363.2827      2.793     4.84     1186.058     64.06635     81.66125         5     1.018     0.651   0.58   0
       417    339.6480    110.4898 307.7915062  +6.6321972     1860.187     5254.237     6408.501     91.10947     181.6414     363.6441      2.724     8.12     1170.014     64.06635     230.8079        39     1.877     1.630 -41.47   0
       418    522.2263    109.3151 307.7155743  +6.6387752     616.4464     1648.948     1551.678     91.25352     181.4967     363.3189      2.448     6.75     1157.342     64.06635     122.1339         7     2.007     0.636 -65.45   0
       419    295.0889     99.8735 307.8104078  +6.6350927     1521.153     4682.465     5898.168     91.10947     182.0747     363.5357      2.809     8.88     1175.206     64.06635     169.7092        40     1.987     1.722  89.30   0
       420    667.8917     93.3794 307.6555001  +6.6502091     632.8175     1221.745     1556.003     90.96519      181.569     363.2827      1.949     4.88      1156.45     64.06635     105.2567         7     1.440     0.468 -51.90   0
       421    681.0488     89.2696 307.6501642  +6.6523444     1466.001     3922.444     4768.802     91.10947     181.7137     363.4996      2.602     8.37     1156.221     64.06635     162.1969        24     1.656     1.183  26.08   2
       422      2.3895     82.1470 307.9328010  +6.6326166     1926.731     4582.375     8724.119     90.09469     161.3455     292.5469      7.099    12.73     1185.103     64.06635     307.5978        54     3.460     1.566  87.30  24
       423    422.6906     81.6586 307.7579300  +6.6468765     1909.226     5128.628     6076.077     90.96519     181.7859      363.608      2.644     7.48     1160.444     64.06635     248.3358        30     1.821     1.229 -39.72   2
       424    876.5822     77.2606 307.5692026  +6.6638056     1273.799     2981.316     2675.079     90.67596     181.7137     363.2466      2.277     8.17      1151.84     64.06635     125.3187        22     1.406     1.328 -54.08   0
       425    894.3725     76.3597 307.5618297  +6.6647685      2614.96     5446.522     5304.431     90.67596      181.569     363.2827      2.111     5.41      1151.46     64.06635     274.7057        32     1.513     1.425 -64.23   0
       426    587.7160     75.1169 307.6894814  +6.6550811     842.5254      1921.99      1997.91     90.82069     182.0747     363.5719      2.261     5.91     1156.033     64.06635     125.4454         8     1.487     0.660 -25.04   0
       427    386.8027     72.4962 307.7731744  +6.6494623     898.9066     2187.337      2548.88     90.67596     181.4243     363.1019      2.790     7.26     1165.314     64.06635     120.9744        12     1.490     0.990  49.82   0
       428    133.7616     70.0528 307.8785497  +6.6420118     1464.203     4284.051     4169.487     90.82069     181.8582     363.4635      2.527     7.00     1179.699     64.06635     202.9313        33     1.790     1.639  63.46   0
       429    282.6557     69.8215 307.8166020  +6.6470878     901.0674       1773.9     3236.856     90.53099     181.7859     363.2466      2.064     5.77     1176.684     64.06635      126.858        10     1.549     0.605 -40.99   0
       430     15.3229     67.9260 307.9279039  +6.6389229     6379.797     17394.64     21520.36     91.39733     182.0747     363.4996      2.687     6.13     1183.186     64.06635     868.2184        66     1.994     1.833 -44.37   0
       431    816.8720     62.1489 307.5945607  +6.6680625     3663.821     8253.315      9372.03     91.10947     181.7859     363.4996      2.269     5.54     1152.348     64.06635     375.9716        41     1.594     1.556 -69.86   0
       432    761.9703     62.5590 307.6173936  +6.6660677     1818.406     4376.521     4644.247     90.67596     181.6414     363.3189      2.289     7.05     1154.063     64.06635     184.7408        33     1.619     1.481  27.25   0
       433     55.8455     59.9925 307.9113128  +6.6435570     1522.505     4231.877     4975.196     90.53099      181.569     363.0657      2.539     8.27     1181.041     64.06635     184.9829        33     1.807     1.521 -71.42   0
       434    757.4587     51.2049 307.6196550  +6.6706068      1107.13     2787.008     3625.775     90.38579     181.6414     363.2104      2.718     7.93     1153.533     64.06635     161.6445        16     1.635     1.074 -43.93   2
       435     83.4701     44.0871 307.9003596  +6.6510507     4603.873     12947.96     14521.19     91.25351     182.0747     363.4996      2.561     6.43     1179.579     64.06635     590.0188        58     1.881     1.860 -83.42   0
       436    412.8106     43.7330 307.7633279  +6.6622090     1168.908     3250.413     3882.158     90.53099      181.569     363.2827      2.677     8.75     1163.018     64.06635     157.1627        28     1.809     1.563  -2.31   0
       437    626.0241     35.7321 307.6748738  +6.6726223     9247.387     24987.92     28847.94     90.67596     181.6414     363.3912      2.494     6.17     1153.631     64.06635     955.0632        71     1.901     1.870 -85.35   0
       438    525.7438     31.8140 307.7167370  +6.6708987     2516.389      7080.88     8425.653     90.38579     181.6414     363.1381      2.626     6.78     1156.592     64.06635     273.1687        45     1.800     1.693 -81.84   0
       439    242.8558     34.2325 307.8343725  +6.6604544     692.7217      1241.56     3118.415     90.96519     181.7859     363.4273      2.909     3.97      1177.47     64.06635     113.0604         6     0.986     0.457  49.94   2
       440    245.5397     32.1433 307.8333267  +6.6614069     895.5361      1967.06     4227.093     91.25352     181.7859     363.4996      4.254     5.57     1177.487     64.06635     131.0004         8     1.141     0.766  67.77   3
       441    882.3082   1020.6231 307.5349884  +6.2743939     1676.276     2483.552     2810.951     91.10947     181.2795     323.9503      1.634     3.42     1205.418     64.06635     230.8401        14     1.079     0.843 -57.94  16
       442    252.0539     28.0684 307.8307545  +6.6633076     4093.562     12231.92     14799.31     91.10947     181.7137     363.3912      2.753     7.13     1177.533     64.06635     546.8127        57     1.961     1.790 -49.68   0
       443     17.9801     27.8261 307.9281640  +6.6555716     1266.193     2998.766     3432.322     90.53099      181.569      363.355      2.393     7.57     1179.659     64.06635     150.5396        22     1.546     1.162 -64.67   0
       444    908.5173     27.3396 307.5575985  +6.6854828     1337.638     2784.325      3320.59     91.25352     181.7859     363.4996      2.314     7.36     1148.772     64.06635     140.3716        19     1.329     1.254  17.25   0
       445    612.0949     25.8743 307.6810041  +6.6762294     1748.266     4590.396     5914.011     90.82069     182.0026     363.4635      2.637     7.92     1153.143     64.06635     219.2249        34     1.627     1.586  10.23   0
       446    240.4050     25.4269 307.8356916  +6.6640089     1308.002      3302.36     4909.823     90.53099      181.569     363.2827      3.263     9.17     1177.533     64.06635     221.7191        26     1.755     1.337 -30.70   2
       447    238.3605     21.9899 307.8366592  +6.6653599     749.1314     1016.583     1900.641     90.38579      181.569     363.1743      1.977     4.22     1177.546     64.06635     111.2106         5     1.016     0.677  31.29   3
       448    204.9967   1019.6614 307.8166512  +6.2522304     1764.179     3082.287     3369.358     90.38579     181.4967     336.7916      1.885     4.30     1208.255     64.06635     238.9348        21     1.259     1.197 -71.78  16
       449    969.0316   1019.0847 307.4989787  +6.2779070     685.1142     888.7747     1701.387     91.10947      181.569     343.7779      1.722     4.06     1204.415     64.06635     103.3221         6     0.992     0.475 -37.05  16
       450    708.0439   1016.2020 307.6075999  +6.2704295     6559.904     10725.81     11454.21     90.38579     181.2795     363.0657      1.750     3.51     1207.787     64.06635       875.95        34     1.327     1.283 -49.88  16
       451    423.0661   1016.4907 307.7260865  +6.2608200     3146.177     5907.577      6695.46     91.10947     181.9304     363.4996      2.084     4.25     1208.873     64.06635     379.7516        30     1.409     1.299 -89.36  16
       452    564.2518   1015.4324 307.6674165  +6.2659621     3581.951     6084.827     7206.527     90.96519     181.7859      363.355      1.881     3.86     1209.777     64.06635     414.3745        30     1.299     1.294 -46.77  16
       453    921.6123   1016.1653 307.5187952  +6.2775395     501.6138     594.9635     688.6784     90.53099      181.569     363.2827      1.230     3.47     1204.517     64.06635     81.51025         5     0.803     0.432 -70.57   0
       454    700.4464   1015.0268 307.6107988  +6.2706622     1112.521     1622.317     2355.156     90.67596     181.8582      363.355      1.573     3.58     1207.867     64.06635     171.5576        11     0.970     0.932  33.30   0
       455    740.3919   1011.5952 307.5943046  +6.2734077     1183.515     1890.136     2396.541     90.38579     181.4967     363.2827      1.619     3.57      1207.09     64.06635      172.071        10     0.926     0.771 -34.71   0
       456    947.6460   1005.7228 307.5083216  +6.2827160     7276.912      10208.3     10619.92     90.96519     181.8582     363.4635      1.487     2.85     1204.038     64.06635       974.58        32     1.248     1.155 -42.13   0
       457    232.3939   1005.6118 307.8057365  +6.2589481     1009.947     1643.055     1502.472     90.67596      181.569      363.355      1.814     4.58     1208.297     64.06635     149.6814        13     1.189     1.040   7.86   0
