#   1 NUMBER                 Running object number                                     
#   2 X_IMAGE                Object position along x                                    [pixel]
#   3 Y_IMAGE                Object position along y                                    [pixel]
#   4 ALPHA_J2000            Right ascension of barycenter (J2000)                      [deg]
#   5 DELTA_J2000            Declination of barycenter (J2000)                          [deg]
#   6 FLUX_APER              Flux vector within fixed circular aperture(s)              [count]
#   9 FLUXERR_APER           RMS error vector for aperture flux(es)                     [count]
#  12 FLUX_RADIUS            Fraction-of-light radii                                    [pixel]
#  13 FWHM_IMAGE             FWHM assuming a gaussian core                              [pixel]
#  14 BACKGROUND             Background at centroid position                            [count]
#  15 THRESHOLD              Detection threshold above background                       [count]
#  16 FLUX_MAX               Peak flux above background                                 [count]
#  17 ISOAREA_IMAGE          Isophotal area above Analysis threshold                    [pixel**2]
#  18 A_IMAGE                Profile RMS along major axis                               [pixel]
#  19 B_IMAGE                Profile RMS along minor axis                               [pixel]
#  20 THETA_IMAGE            Position angle (CCW/x)                                     [deg]
#  21 FLAGS                  Extraction flags                                          
         1    596.3878     21.6193 307.6805107  +6.6766228     2861.617     5261.441     6307.594      84.2206     168.3071     336.9495      2.059     4.86     984.7039     59.41055     363.7655        29     1.778     1.236 -31.23   2
         2    415.3428     23.6013 307.7556521  +6.6697502      19596.5     34447.06     36254.68     83.81731     168.2399     336.7818      1.857     4.75     993.1423     59.41055     2616.586        51     1.832     1.122 -31.58   0
         3    235.8605     24.0089 307.8301951  +6.6635688     7946.862     14187.08     15397.63     83.81731     168.4412     336.7818      1.898     4.69     1007.532     59.41055     1133.464        41     1.774     1.116 -31.55   0
         4    223.9533     20.8325 307.8352483  +6.6644812     2661.888     4693.909     5210.847      84.2206     168.5753      336.983      1.809     4.60      1007.66     59.41055      345.099        20     1.492     0.820 -33.66   0
         5    913.8883     13.7033 307.5488783  +6.6904815     920.6773     1368.578     1325.564      84.4884     169.0436     337.0835      1.680     4.95     976.8049     59.41055     139.5005        10     1.425     0.521 -33.82   0
         6    665.2278     13.2985 307.6521925  +6.6823580     1613.391     2633.803     2544.516     84.62198      168.307     337.0165      1.717     5.06     983.3717     59.41055     235.5115        17     1.521     0.751 -31.49   0
         7    176.6372      8.6338 307.8553141  +6.6679315     484.0589     1001.842     722.6711      84.2206     168.3071     336.8153      1.577     3.79     1007.251     59.41055     104.7539         5     1.313     0.314 -45.02  16
         8    153.4319      6.0080 307.8650420  +6.6682371     9146.389     16319.91     17338.55     83.95196     168.4412     319.7502      1.896     4.69     1007.514     59.41055     1324.023        41     1.775     1.096 -33.15  16
         9    899.0781      3.7686 307.5553635  +6.6940911     3886.004     6143.213     6427.968     84.35461     164.5747     292.2902      1.631     4.45     976.4797     59.41055     622.6465        25     1.516     0.905 -26.47  24
        10    497.7922      4.1543 307.7220555  +6.6805396     2468.866      4462.54     4574.239     83.95196     167.1623     297.4232      1.913     4.87     986.3989     59.41055     315.7471        26     1.572     1.022 -38.65  24
        11    435.8996      2.6418 307.7478174  +6.6790937     1674.886     2771.662     2775.404      84.4884     152.8318     275.9106      1.778     6.06     991.1986     59.41055     213.2227        20     1.536     0.896 -29.47  24
        12    700.1326      2.4808 307.6380550  +6.6879905     1697.697     2628.077     2523.651     84.62198     151.0477     273.0301      1.701     5.14     980.3579     59.41055     224.3917        15     1.368     0.781 -33.16  24
        13    962.7432      1.4780 307.5289912  +6.6971566      939.384     1366.679     1288.717     75.44906     136.3495     256.2131      1.392     5.66     971.4079     59.41055     176.4093        10     1.497     0.603   0.36  24
        14    414.5437   1001.0013 307.7231411  +6.2660861     1024.136     1751.337     1898.429     83.81731     168.2399     336.7147      1.856     5.67     1030.138     59.41055     176.9962        10     1.412     0.657 -39.47   0
        15    557.1536   1023.0480 307.6632068  +6.2617472     149388.8     206811.4     211126.7     80.79834     143.3753        264.2      1.428     4.67     1028.635     59.41055     26036.55        49     1.606     0.812 -20.53  27
        16    558.7480   1016.1242 307.6627771  +6.2646598     72461.42       114470     121805.7      84.4884     168.6423       337.05      1.690     4.72     1028.324     59.41055     12027.77        80     1.902     1.019 -32.28  19
        17    706.6635    999.3547 307.6019408  +6.2765213     1114.114     1551.323      1448.44      84.4884     168.5083     337.0835      1.553     4.41     1024.714     59.41055     185.7462        11     1.202     0.662 -29.50   0
        18    337.6031    997.9039 307.7551815  +6.2647912      1771.06      2938.17     3186.781      84.2206     168.2399     336.7147      1.820     5.30     1031.349     59.41055     280.2639        19     1.683     0.786 -36.80   0
        19    948.2118    995.4465 307.5018043  +6.2861806     679.2602     1189.953      797.056     83.95196     168.3741     336.7483      1.685     5.49     1016.014     59.41055     118.6047        10     1.558     0.545 -48.10   0
        20    588.5136    992.1484 307.6512255  +6.2755551      591.811     714.3904     717.8966      84.4884     168.4412      337.117      1.588     5.25     1025.873     59.41055     91.51379         6     1.594     0.488 -38.50   0
        21    724.5007    987.2602 307.5949414  +6.2821109     7861.762     12336.33     12635.82      84.2206     168.5083      337.184      1.681     4.97         1024     59.41055     1333.392        29     1.651     0.837 -29.72   0
        22    520.0319    987.8674 307.6797952  +6.2750360     4035.656     6519.205     6801.418     84.35461     168.5753     337.0165      1.675     4.86     1028.591     59.41055     623.5706        26     1.615     0.859 -31.27   0
        23    490.8883    989.0880 307.6918515  +6.2735582     984.4277     1491.024     1331.098      84.2206     169.1104     337.1505      1.577     5.38     1028.703     59.41055      143.146        11     1.454     0.562 -23.21   0
        24    270.2572    986.5755 307.7835159  +6.2672148     14516.79     23434.64     25650.05     84.08639     168.5753     336.8489      1.746     4.89     1031.975     59.41055     2295.856        48     1.992     0.909 -31.04   0
        25    394.7053    987.2819 307.7318363  +6.2710883     1038.879     1386.977     1152.473      84.2206     168.9099     337.1505      1.443     5.29     1030.289     59.41055     191.5232        10     1.349     0.585 -31.36   0
        26    785.9110    986.6119 307.5694715  +6.2844255     1091.342     1614.524     1245.908      84.2206     168.2399     336.9495      1.442     5.21     1021.881     59.41055     181.0308        10     1.384     0.569 -25.26   0
        27    241.4599    984.2079 307.7955486  +6.2672280     967.3817     1558.193     1540.651     83.81731     168.3741     336.7818      1.785     6.04      1031.98     59.41055     153.8976        13     1.563     0.656 -35.85   0
        28    885.8590    980.6432 307.5281820  +6.2902192     8860.783     14018.02     14868.48     84.35461     168.5753     337.1505      1.675     4.44     1017.999     59.41055      1334.49        33     1.630     0.893 -29.88   0
        29    517.2421    980.0843 307.6812143  +6.2781570     8133.624     13013.73      13709.3      84.4884     168.4412      336.983      1.648     4.60     1028.396     59.41055     1405.393        31     1.650     0.870 -30.48   0
        30    981.1572    976.2844 307.4887681  +6.2951902     4797.876     7635.185     7704.022      84.4884     168.5083     337.0165      1.693     4.50     1013.599     59.41055     760.4869        29     1.666     0.894 -30.36   0
        31    859.4228    976.8729 307.5392820  +6.2908962     12307.93     19622.98      20997.8     84.08639     168.3741     337.0165      1.667     4.68     1018.687     59.41055     1979.557        41     1.739     0.936 -27.91   0
        32    572.3159    977.3557 307.6584450  +6.2811234     1414.254     2155.212     2127.843      84.4884     168.5753     337.0835      1.623     5.39     1026.637     59.41055     209.2841        16     1.421     0.872 -40.74   0
        33    503.5520    975.8809 307.6870380  +6.2794355     4096.778     6587.705     7304.613      84.4884     168.5753     337.0835      1.742     4.96     1028.346     59.41055     694.8281        26     1.700     0.804 -23.92   0
        34    613.2185    975.3971 307.6415320  +6.2832977     1383.667     1999.596     2011.103     84.08639     168.1056     336.8153      1.479     4.46      1024.44     59.41055     243.0258        12     1.354     0.594 -32.97   0
        35     38.1382    974.7973 307.8802581  +6.2642964     748.8815     1290.694     1906.942     83.81731     168.3741     336.7483      1.822     4.74     1032.992     59.41055     182.2545         7     1.569     0.406 -24.81   0
        36    456.7699    972.3890 307.7065741  +6.2793141     2184.014     3200.343     3470.746     83.95196     168.3741     336.8824      1.576     4.72     1028.885     59.41055     346.5564        16     1.547     0.641 -27.39   0
        37    891.2033    964.4397 307.5265050  +6.2970889      43236.2     69031.62     72292.73     83.54737     168.3071     336.7483      1.678     4.48     1017.392     59.41055     7552.448        59     1.751     0.972 -27.76   0
        38    198.6943    962.6802 307.8140239  +6.2746853      1760.98      2886.26     2687.851      84.2206     168.8431      337.117      1.778     5.21     1031.842     59.41055     239.4716        18     1.635     0.848 -25.08   0
        39    597.8963    960.7800 307.6483822  +6.2888228     803.0407     1268.503     693.0776     84.35461     168.3741     336.8489      1.698     5.21     1024.931     59.41055     137.7672         8     1.209     0.634 -36.41   0
        40    737.3578    956.2325 307.5906429  +6.2953534     6472.708     10613.88     11608.69      84.2206     168.5753     336.8824      1.758     4.92     1021.537     59.41055     1101.607        33     1.684     1.000 -38.77   0
        41    789.3645    958.1321 307.5689907  +6.2963022     2147.711     3500.343      3289.34     84.35461     168.6423     337.1505      1.653     4.83     1019.953     59.41055     419.4215        21     1.693     0.846 -24.10   0
        42    206.6977    955.3432 307.8109487  +6.2779834     1404.711     2125.282     2158.116     84.35461     168.5753      337.251      1.743     5.31     1031.746     59.41055     261.5913        14     1.687     0.591 -21.50   0
        43    524.4796    955.0605 307.6790494  +6.2887330     857.3865     1590.619     1386.619     84.62198     168.5753       337.05      1.653     5.21     1027.714     59.41055     175.8711         9     1.444     0.530 -38.53   0
        44    171.8457    954.6667 307.8254379  +6.2770947     927.6091     1471.985     1448.481      84.4884     168.5083     337.0835      1.722     6.12     1031.859     59.41055     145.1849        14     1.723     0.796 -19.11   0
        45    925.5799    951.1921 307.5126773  +6.3037041     6986.468     10772.33     10782.67     84.08639      168.307     336.8489      1.650     4.95     1016.139     59.41055      1135.52        32     1.707     0.858 -26.75   0
        46     31.7203    953.2679 307.8836475  +6.2729718     2758.536     4389.472     4760.653     84.62198     168.8431       337.05      1.692     4.34     1033.057     59.41055     443.9558        23     1.550     0.891 -30.29   0
        47    608.1775    945.8557 307.6446146  +6.2953295     693.6639     1101.843     1083.085     84.08639     168.5753     336.8489      1.682     3.99      1024.26     59.41055     135.9224         7     0.920     0.496 -44.10   0
        48    899.3435    942.9145 307.5238452  +6.3062495      2016.38     2951.355     2349.438      84.4884     168.5753     337.2175      1.529     4.62      1016.62     59.41055     310.9012        17     1.576     0.675 -30.29   0
        49    758.8560    939.3954 307.5822822  +6.3030234     1384.069     2234.836     2322.698     83.81731     168.3741     336.7483      1.695     5.16     1019.607     59.41055     214.0542        13     1.393     0.661 -31.34   0
        50    619.8660    938.4238 307.6400116  +6.2987888     5220.113     8071.485     8596.509     84.08639     168.5753      336.983      1.716     7.10     1023.971     59.41055     1182.901        28     1.432     1.116 -32.07   0
        51    232.3158    939.1293 307.8008605  +6.2855377     4311.315     6780.156     6830.373     84.75535     168.8431     337.0835      1.652     4.89     1031.478     59.41055     698.9254        24     1.674     0.784 -30.74   0
        52    442.2471    937.1656 307.7137848  +6.2933749     1075.125     1540.048     1205.693     84.08639     168.5753      336.983      1.638     5.71      1028.67     59.41055     185.3247        12     1.418     0.648 -27.50   0
        53      1.8578    936.1769 307.8966187  +6.2790270     2087.475     2737.696     2251.607     79.81382     142.2681     262.4413      1.292     3.11     1033.481     59.41055     348.4613        12     1.043     0.688 -56.99  24
        54    852.2860    935.2825 307.5436350  +6.3078347     1045.804     1682.258     1929.791      84.2206     168.7762     337.1505      1.836     4.38     1017.425     59.41055       173.83        11     1.327     0.593 -31.00   0
        55    268.7267    932.5858 307.7859667  +6.2894596     754.0493     1354.722     1636.262     83.95196     168.3071     336.9159      1.863     4.64     1031.208     59.41055     147.5176         6     1.024     0.598 -26.38   0
        56    924.0262    932.1012 307.5139601  +6.3115367     702.9556     904.8425     390.1915     84.62198      168.307      336.983      1.528     4.91     1015.735     59.41055     132.3729         9     1.194     0.571 -24.48   0
        57    787.8107    932.2961 307.5705001  +6.3069203     2215.897     2219.766     2621.928      84.2206     168.1728     336.8153      0.929     3.05     1018.363     59.41055     966.8972         7     0.930     0.385  16.80   0
        58    544.7833    931.4787 307.6714121  +6.2991500      1751.24     2579.325      2426.73     84.08639     168.3071     336.9495      1.610     4.47     1026.914     59.41055     265.1824        18     1.482     0.804 -25.12   0
        59    977.0549    930.2405 307.4920085  +6.3140693     889.3787     1552.967     1933.928     84.35461     168.5753     337.0835      1.768     4.98     1012.546     59.41055     184.4509        10     1.448     0.485 -72.35   0
        60     34.1570    927.8632 307.8834924  +6.2835447     867.3635     1401.286     1943.217      84.4884     168.5083     337.0835      2.246     8.83     1032.996     59.41055     137.5889        12     2.357     0.925 -12.16   2
        61    584.0316    927.5429 307.6552516  +6.3020861     1168.266     1918.779     1689.272     84.35461     168.5753      336.983      1.610     5.69      1025.12     59.41055     209.2867        12     1.564     0.603 -24.95   0
        62    263.6141    925.5573 307.7883253  +6.2921909     1385.378     2374.202     2909.321     83.68245     168.3071     336.7818      1.896     4.76     1031.149     59.41055     242.4363        17     1.642     0.761 -25.98   0
        63    532.5859    923.3360 307.6767485  +6.3021054     712.5798     938.0095     930.1465     83.95196     168.3741     336.9159      1.468     4.01     1026.687     59.41055     105.3864         6     1.002     0.542 -54.78   0
        64    730.8642    921.7059 307.5944942  +6.3093957     1083.844     1677.491     1846.179     84.35461     168.6423     337.0835      1.590     5.59     1019.516     59.41055     181.8937        10     1.394     0.632 -35.14   0
        65    868.2289    918.1437 307.5375897  +6.3154436     6926.567     10904.07     10705.15     84.08639     168.6423     336.9495      1.622     4.64     1016.708     59.41055      1219.71        29     1.614     0.853 -27.26   0
        66    106.4586    919.4178 307.8537658  +6.2894585     490.0777     507.0864     490.3853     84.08639     168.4412     336.7818      1.261     3.84     1031.874     59.41055      100.614         5     0.942     0.507 -45.52   0
        67    404.2722    915.2411 307.7302845  +6.3011592     2146.822     3392.139     3720.781     84.35461     168.5753      337.117      1.681     4.12     1029.089     59.41055     389.8411        17     1.495     0.693 -20.24   0
        68    305.8496    913.7206 307.7711914  +6.2984935     9193.365     15061.89     15854.31      84.4884     168.6423       337.05      1.736     4.61     1030.644     59.41055     1453.379        35     1.724     0.945 -29.88   0
        69    225.9308    912.6069 307.8044031  +6.2962766      6722.85     11139.22     11757.73     83.95196     168.1728     336.9495      1.757     4.67     1031.207     59.41055     1029.811        32     1.670     0.913 -30.48   0
        70    553.9877    906.9985 307.6684122  +6.3095673     1186.086     1642.935     1143.625     84.08639     168.2399     336.8153      1.602     4.47     1025.434     59.41055     231.8861        14     1.356     0.748 -36.77   0
        71    738.2656    906.8271 307.5919198  +6.3157872     602.9221     1078.194     1328.609     84.08639     168.5083     336.9495      1.852     4.70     1018.654     59.41055     113.1542         7     1.239     0.506 -17.88   0
        72    883.8842    903.3493 307.5315852  +6.3220747     1100.773     1501.362     1570.372      84.4884     168.5083     337.1505      1.567     3.57     1015.836     59.41055     223.2523        11     1.269     0.670 -45.96   0
        73    840.2337    902.2288 307.5497435  +6.3210840     639.0178     913.6538     1135.915     83.95196     168.3071     336.8153      2.154     5.81     1016.756     59.41055     155.7761        10     1.870     0.644 -17.79   0
        74    951.3268    898.8310 307.5037382  +6.3261852      989.748      1694.89     2225.816     84.35461     168.5753       337.05      1.798     4.91     1012.902     59.41055     163.5784        10     1.578     0.433 -18.79   0
        75    813.7913    896.6134 307.5609084  +6.3225223     539.1386     822.8268     1048.297     84.08639     168.3071     336.9495      1.670     4.26     1017.005     59.41055     80.86481         5     0.933     0.554 -50.47   0
        76    720.4257    896.2032 307.5996813  +6.3195799      1664.09     2624.815     2758.967     83.95196     168.2399     336.8824      1.628     5.05     1019.048     59.41055     268.6304        14     1.418     0.669 -28.42   0
        77    544.9313    896.1408 307.6725358  +6.3137487     644.4583     890.6646     374.6071     84.62198     168.5083       337.05      1.619     3.65     1025.173     59.41055     123.1226         5     1.032     0.371 -33.07   0
        78    584.9913    892.7216 307.6560206  +6.3164986     711.6513     830.7809      644.123     84.08639     168.0384     336.8824      1.210     2.81     1023.948     59.41055     150.6279         6     0.873     0.445 -41.06   0
        79    505.5803    892.1658 307.6890046  +6.3140756     1144.339     1923.146     2600.813     83.95196     168.3741     336.8489      1.765     5.79     1026.015     59.41055     206.6466        13     1.623     0.582 -23.14   0
        80    951.5391    892.1104 307.5038745  +6.3289678     1255.978     1848.482     2003.373      84.4884     168.7092      337.117      1.480     4.93     1012.548     59.41055     226.0359        10     1.271     0.542 -23.67   0
        81    638.9807    889.5955 307.6337129  +6.3195919      2555.65     4099.214     3750.543     84.08639     168.1728     336.8489      1.594     4.03     1022.105     59.41055     476.6924        18     1.530     0.691 -29.43   0
        82    929.0378    887.9374 307.5133552  +6.3299425     599.9713     899.9943     901.8046      84.4884     168.6423       337.05      1.848     5.43     1013.758     59.41055     108.5455         8     1.505     0.553 -34.97   0
        83    799.7826    886.0009 307.5670790  +6.3264384     810.1324     1393.972      1308.15     84.08639     168.1056     336.7147      1.839     5.46     1016.971     59.41055     160.2974        11     1.539     0.691 -28.13   0
        84     35.5236    885.7223 307.8843456  +6.3009931     2793.082     4825.272     4976.487     84.75535     168.8431      337.117      1.810     4.80     1031.545     59.41055     430.8043        26     1.665     1.021 -40.17   0
        85     53.0211    885.0455 307.8771053  +6.3018599     1789.744     3117.534     3640.865     84.08639     168.5083     336.8824      1.758     6.01     1031.433     59.41055     246.1356        18     1.605     0.737 -39.83   0
        86    917.8054    884.9322 307.5181186  +6.3308098     820.8892     1056.119     64.14873     83.95196     168.2399     336.8489      1.188     2.91     1014.038     59.41055     163.1578         6     0.903     0.434 -36.36   0
        87    179.0307    884.6752 307.8248113  +6.3062396     2027.435     3315.903     3333.104     84.35461     168.6423       337.05      1.726     5.04     1031.277     59.41055     343.3032        19     1.560     0.837 -27.82   0
        88    633.4946    878.7775 307.6363529  +6.3238764     6904.521     10712.94     11148.83      84.4884     168.3741     336.8824      1.646     4.85     1021.963     59.41055     1050.022        31     1.677     0.854 -32.17   0
        89    213.4929    881.2565 307.8106209  +6.3088065     936.4291     1504.052     1648.595     84.35461     168.5753      337.251      1.725     4.32     1030.936     59.41055     188.4097         9     1.234     0.520 -25.88   0
        90    771.0875    879.6707 307.5792032  +6.3280964      779.178     1167.288     1245.948     84.62198     168.8431       337.05      1.485     4.57     1017.252     59.41055     150.4637         8     1.245     0.477 -21.45   0
        91    871.3710    874.9205 307.5377302  +6.3333988     2830.032     4273.057     3947.928     84.35461     168.5753     337.0165      1.553     4.29     1015.538     59.41055     472.4431        20     1.632     0.764 -30.63   0
        92      6.6413    875.2809 307.8966864  +6.3043352     1064.377     1945.329     2228.883      84.4884     168.5753     325.8732      1.837     6.04     1031.239     59.41055     163.0421        14     1.681     0.800 -28.17  16
        93    316.5746    871.9105 307.7681448  +6.3161189     15602.98     25041.32     26817.69     84.62198     168.3741     336.8824      1.729     4.80     1030.121     59.41055     2486.844        43     1.724     0.955 -29.51   0
        94     51.0757    873.0114 307.8783184  +6.3067643     1205.246     1976.291     2467.966     84.08639     168.2399     336.8489      1.586     5.97     1031.078     59.41055     220.1921        14     1.813     0.587 -25.17   0
        95    187.8373    871.1825 307.8216098  +6.3121069     1216.817     1877.561     1432.698     84.08639     168.4412     336.7818      1.576     5.21      1031.07     59.41055     177.7668        11     1.320     0.618 -25.82   0
        96     79.8923    862.6712 307.8667050  +6.3120014     1657.527     2768.348     2989.033     84.35461     168.7092     337.0835      1.809     5.07      1030.83     59.41055      258.006        16     1.502     0.823 -41.48   0
        97    395.3010    862.4395 307.7357821  +6.3226648     959.5456     1304.052     1321.041      84.4884     168.4412     337.2845      1.481     4.25     1028.021     59.41055     137.9225         7     1.003     0.514 -59.04   0
        98    648.3890    858.6938 307.6308426  +6.3326676     823.8979     1394.022     1540.815      84.2206     168.2399     336.8153      1.765     5.63     1020.386     59.41055     149.0164        11     1.595     0.567 -38.41   0
        99    474.8576    859.2974 307.7028614  +6.3266227     784.4692     1195.778     1520.579     84.35461     168.5083     337.2175      1.539     4.86     1026.074     59.41055     116.7091         8     1.118     0.659 -28.76   0
       100     63.1297    856.4140 307.8738741  +6.3140229     2243.574      4021.97     4558.956     83.95196     168.3741     336.9495      2.020     7.72     1030.823     59.41055     346.6262        28     2.258     0.782 -32.50   0
       101    861.8224    856.5645 307.5423080  +6.3406616      1996.85     2812.357     1988.703     83.95196      168.307     336.8153      1.525     4.29     1015.247     59.41055     380.8203        16     1.470     0.654 -29.83   0
       102    832.3775    856.2949 307.5545410  +6.3397923     2047.237      3298.46     3406.746      84.4884     168.3741     336.8824      1.707     5.09     1015.711     59.41055     373.5194        19     1.505     0.845 -29.42   0
       103    795.6129    855.7722 307.5698213  +6.3387834     3233.129     4913.884     5503.771     83.95196     168.3741     336.9495      1.670     5.03      1016.29     59.41055      506.916        20     1.525     0.767 -28.19   0
       104    531.6310    847.1426 307.6797007  +6.3335396     320340.6     511807.5     536773.8     84.35461     168.5753     336.9495      1.712     5.55     1023.787     59.41055     53562.84       144     1.845     1.107 -29.78   4
       105    425.9897    854.0373 307.7233245  +6.3271611     570.4421      908.718     1299.564     83.95196     168.3741     336.7147      1.883     4.62     1026.884     59.41055     108.1637         7     1.436     0.423 -27.08   0
       106    619.9847    850.0744 307.6429232  +6.3352793     1123.781     1709.595     1935.577     83.95196      168.307     336.9159      1.689     3.67     1021.134     59.41055     206.1264        10     1.193     0.540 -60.33   0
       107    375.8880    849.7395 307.7442675  +6.3272600     7408.261     11901.08     12161.29      84.4884     168.7762      337.117      1.696     4.49     1028.112     59.41055     1169.053        32     1.672     0.905 -29.32   0
       108    319.1891    848.1647 307.7678577  +6.3260127     11785.37     19678.88     20613.09     83.95196     168.3741     336.8153      1.759     4.58     1029.556     59.41055     1828.111        43     1.724     1.005 -31.79   0
       109    637.4615    844.4261 307.6358572  +6.3381952     3484.457     5346.228     5310.994     84.08639     168.5753      336.983      1.649     4.93     1020.007     59.41055     568.0566        22     1.534     0.861 -25.91   0
       110    869.8176    843.2631 307.5394335  +6.3464211     5376.837     8572.671     9054.366     84.08639     168.5083     336.8824      1.672     4.57     1014.356     59.41055      906.498        29     1.804     0.818 -20.90   0
       111    709.4299    840.7854 307.6061017  +6.3420997     751.4754     1321.781     1438.195     84.08639     168.3071      336.983      1.868     4.98     1017.326     59.41055     147.3555         8     1.374     0.512 -38.57   0
       112    612.2410    838.5794 307.6465233  +6.3397680     3199.911     5589.573     6132.875     84.08639     168.3741     336.8489      1.856     5.69     1020.706     59.41055     543.0719        27     1.695     0.939 -33.19   0
       113   1003.3522    837.4979 307.4841880  +6.3532454     4794.066     7185.469     7350.409      84.4884     168.5083     337.2175      1.613     4.53     1007.347     59.41055       792.15        26     1.669     0.795 -31.94   0
       114    800.8168    837.6139 307.5682684  +6.3464559     1622.055     2472.819     2699.014      84.2206     168.2399      336.983      1.700     5.27     1015.666     59.41055     231.3975        18     1.609     0.711 -31.40   0
       115    156.2074    837.6761 307.8358677  +6.3248834      492.774      734.721     551.0608     84.08639     168.0384     336.8824      1.534     3.83     1031.005     59.41055     123.3726         5     1.023     0.487 -57.23   0
       116    928.2215    836.2538 307.5154209  +6.3512599     753.8466     1076.421     682.8246     83.95196     168.5753     336.8489      1.531     4.60     1011.325     59.41055     122.9654         8     1.070     0.562 -55.49   0
       117    603.1603    837.1065 307.6503425  +6.3400731     943.5492     1344.014      1821.79     84.62198     168.5083     337.1505      1.541     4.02     1020.918     59.41055     176.3563         9     1.038     0.599 -62.44   3
       118    605.2567    832.9031 307.6496131  +6.3418790     2185.227     3706.823     4071.064     84.35461     168.5083     337.2845      1.627     4.69     1020.563     59.41055     386.4301        18     1.692     0.640 -28.97   2
       119    888.8705    831.0851 307.5319306  +6.3520848     3403.767     5110.406     5314.672     84.62198      168.843     337.0835      1.585     4.47     1012.923     59.41055     605.1033        23     1.602     0.737 -29.21   0
       120    299.5772    831.4478 307.7765611  +6.3322597     885.3534     1378.097     1350.908     84.08639     168.5753     336.9159      1.612     5.49     1029.815     59.41055     142.7952        11     1.277     0.665 -26.91   0
       121    346.9393    827.0182 307.7570485  +6.3356745     2338.274     3916.991     4360.053     84.08639     168.5083     336.8489      1.764     4.36     1027.799     59.41055     395.5964        22     1.627     0.807 -30.23   0
       122    483.3297    816.8384 307.7007694  +6.3444404     2813.299     4610.331     4441.046     84.35461     168.5753      337.117      1.697     4.61     1024.381     59.41055     426.7205        20     1.535     0.749 -27.71   0
       123    827.9618    815.7874 307.5577291  +6.3563742      914.364     1468.567     1245.391     84.08639     168.3741     336.7483      1.505     5.02     1014.313     59.41055     148.1853         9     1.320     0.540 -23.33   0
       124    547.9575    814.7477 307.6740095  +6.3474633     577.5974     827.7663     516.0325      84.4884     168.6423     337.0835      1.738     5.03      1022.73     59.41055     136.1619         8     1.469     0.487 -25.66   0
       125    529.9846    812.9661 307.6815307  +6.3475987     5673.374     9122.284     9828.495     84.08639      168.307     336.9159      1.734     4.58     1023.211     59.41055     853.6641        30     1.735     0.850 -28.84   0
       126    537.1489    812.1291 307.6785845  +6.3481837     1130.461     2026.561     1340.366     84.35461     168.5753     337.0835      1.762     5.62     1023.041     59.41055     166.6219        14     1.532     0.775 -19.17   1
       127    241.8513    812.9458 307.8011472  +6.3379669     731.5873     1172.745     866.5023     84.62198     168.5083     337.0835      1.609     6.00     1030.139     59.41055     126.0831        10     1.642     0.616 -29.67   0
       128    448.0704    811.6279 307.7155820  +6.3454135     1449.329     2284.818     2249.972      84.2206     168.5753      336.983      1.597     5.14     1025.068     59.41055     250.5797        13     1.429     0.732 -30.35   0
       129     89.7157    810.9674 307.8643694  +6.3336828     1260.568     2346.745     2478.995      84.4884     168.3741      336.983      2.060     6.47     1030.706     59.41055     199.6383        16     1.578     0.745 -35.85   0
       130    866.0638    811.0245 307.5420698  +6.3596102     1384.908     1829.434     1761.883     84.08639     168.5753      336.983      1.425     5.20     1013.141     59.41055     227.4365        13     1.368     0.651 -28.47   0
       131    665.8723    809.6434 307.6252278  +6.3535078     744.1019     1213.072     1086.069     84.35461     168.6423     337.0835      1.655     5.19     1017.125     59.41055     118.3568         9     1.298     0.586 -37.02   0
       132    500.7377    806.8332 307.6938783  +6.3491542     18439.53     29939.99     30764.14      84.2206     168.6423      336.983      1.707     4.55     1023.669     59.41055     2867.521        44     1.725     0.960 -29.56   0
       133    342.3283    808.1663 307.7595963  +6.3433055     676.8356     1141.463     1642.775     84.35461     168.5753       337.05      1.957     5.29     1027.155     59.41055     142.4501        10     1.488     0.599 -41.22   0
       134    914.3355    805.0797 307.5222276  +6.3636723     3802.433     5905.419     5855.021     84.75534     168.6423     337.0165      1.597     4.81     1010.456     59.41055     720.5378        24     1.604     0.777 -28.99   0
       135    387.8048    802.0466 307.7409228  +6.3473546     645.2452     883.4116     758.8367     83.81731     168.3741     336.7147      1.395     4.04     1025.856     59.41055     93.11707         6     0.948     0.493 -52.13   0
       136    293.4878    795.5293 307.7802968  +6.3468890     3223.531     5279.605     5507.544     84.62198     168.8431       337.05      1.738     4.38     1029.476     59.41055     491.1199        26     1.609     0.938 -32.12   0
       137     11.2094    797.2686 307.8974207  +6.3367046     1408.126     2154.811     2270.237     83.95196     168.3741     336.9159      1.627     4.27     1030.822     59.41055     209.0029        18     1.402     0.841 -34.89   0
       138    758.8934    791.4025 307.5872198  +6.3641432      54132.8      84062.9     86995.41     84.08639     168.2399     336.7147      1.649     4.51     1014.715     59.41055     9098.886        55     1.713     0.928 -29.13   0
       139    216.1090    789.2822 307.8126299  +6.3468766     4730.888     8307.948     10241.13      84.2206     168.8431      337.117      1.954     4.59     1030.026     59.41055     729.9215        30     1.662     0.966 -32.70   0
       140    403.0688    789.8432 307.7349959  +6.3529049     723.3732     1239.659     1294.426      84.4884     168.5083      337.117      1.891     4.17     1025.346     59.41055     127.9159         7     0.954     0.519 -44.54   0
       141    884.2459    786.5415 307.5353397  +6.3703267     8421.527     12862.76     13457.97      84.4884     168.5753     337.1505      1.590     4.34     1011.129     59.41055     1538.939        30     1.669     0.785 -28.03   0
       142    687.1473    786.0024 307.6171872  +6.3639809     20110.63     32843.88     35916.67     83.81731      168.307     336.6141      1.698     4.63     1015.827     59.41055     3306.012        47     1.782     0.960 -26.83   3
       143    680.8359    782.4645 307.6199261  +6.3652314     84577.06     133915.1     141297.2     84.35461     168.5083     337.0835      1.676     4.57     1015.805     59.41055     13509.01        75     1.775     1.011 -29.61   3
       144    325.7342    783.3535 307.7673193  +6.3529970     19075.41     31610.12     33358.52      84.4884     168.5083       337.05      1.786     4.60      1027.03     59.41055     2670.103        49     1.792     1.035 -30.67   0
       145    375.3288    783.3530 307.7467302  +6.3546571     1196.962     1970.463     2121.492      84.4884     168.5753       337.05      1.793     4.59     1025.478     59.41055     218.4897        10     1.308     0.535 -29.88   0
       146    215.5315    767.7315 307.8135950  +6.3557570     757391.5      1828749      2028902      84.4884     168.7092     337.0165      2.373     7.56     1029.863     59.41055      63479.5       509     2.457     1.904 -36.01   4
       147    614.8569    782.8013 307.6473070  +6.3628905     723.4445      1188.05     1306.815     83.81731     168.2399     336.7483      1.715     5.27     1017.385     59.41055     101.3943         9     1.140     0.689 -52.31   0
       148    387.6493    781.1954 307.7416878  +6.3559604     19971.55     33322.13     35657.04     83.81731     168.3741     336.6812      1.779     4.52     1025.268     59.41055     3190.096        51     1.766     1.075 -31.69   0
       149    924.7910    780.2548 307.5187165  +6.3742726     2071.167     3227.252      3231.59     83.81731     168.5083     336.7483      1.611     4.33     1008.888     59.41055      377.798        18     1.489     0.762 -34.45   0
       150    881.0587    778.0771 307.5369459  +6.3737162     6489.872      10019.7      10739.1     84.62198     168.5753     337.0165      1.586     4.54     1010.844     59.41055     1127.602        28     1.619     0.801 -29.71   0
       151    854.6062    778.6617 307.5479088  +6.3725940     787.5591     1060.324     938.9172     83.81731     168.3741     336.8153      1.522     3.08     1011.881     59.41055     147.7881         6     0.827     0.516 -39.64   0
       152    621.6222    777.1031 307.6446892  +6.3654696     6080.845     9648.729     9542.747      84.4884     168.3741     336.8489      1.694     4.51     1017.037     59.41055      1028.74        31     1.645     0.923 -30.83   0
       153    410.4041    775.0312 307.7324482  +6.3592673      1545.77     2417.876     2462.231     83.95196     168.4412     336.8153      1.627     5.41     1024.824     59.41055     221.9338        12     1.342     0.615 -30.72   0
       154    135.9494    774.4608 307.8464062  +6.3503098     689.7001     1079.773     1337.937      84.4884     168.5083       337.05      1.646     5.14     1030.365     59.41055     109.2406         9     1.655     0.451 -17.26   0
       155   1004.4022    769.3539 307.4860275  +6.3814229     852.9742     1248.971     1728.324     83.81731     168.2399     336.6476      1.648     5.25     1005.127     59.41055      146.979        10     1.355     0.575 -29.25   0
       156    574.6875    769.1326 307.6644422  +6.3671941     787.9418     1349.019     1787.081     84.62198     168.7762     337.0835      2.213     5.24     1018.858     59.41055     126.3643        10     1.639     0.472 -37.08   0
       157    246.1121    765.9693 307.8009589  +6.3575095     866.9094     2276.203     4722.322     84.62198     168.3741      336.983      5.930     8.23     1029.063     59.41055     111.3947        14     1.717     1.102 -73.90   2
       158    656.8046    767.2367 307.6304133  +6.3707184     2369.043     3658.173     3967.297     83.54737     168.3071     336.8489      1.677     4.42     1015.874     59.41055     346.2246        19     1.560     0.722 -34.78   0
       159    126.1524    767.8968 307.8506944  +6.3526919       939.17     1463.879     1663.152      84.4884     168.4412     337.2175      1.627     5.98     1030.283     59.41055     143.6687        13     1.389     0.723 -25.11   0
       160    390.5740    763.9040 307.7410546  +6.3631991     49535.95     81680.16     86270.77     84.62198      168.307     336.9159      1.775     4.57     1024.761     59.41055     7440.396        66     1.824     1.060 -30.75   0
       161    934.3674    764.9446 307.5152521  +6.3809142     621.3208     715.8942     883.4455     84.35461     168.5753     337.0165      1.023     3.32     1007.927     59.41055     127.2496         5     0.771     0.415 -67.81   0
       162    508.3240    762.9125 307.6922027  +6.3675459     6388.903     10422.16     10937.15      84.4884     168.9099     337.1505      1.725     4.66     1021.413     59.41055     977.4009        31     1.728     0.884 -28.86   0
       163     43.9802    764.8574 307.8849094  +6.3511895     416.6895     646.7848     1511.371     84.08639     168.5083     336.8489      2.769     4.68      1030.26     59.41055     69.83899         5     1.229     0.505 -69.01   0
       164    425.2879    761.5154 307.7267230  +6.3653468     4114.237     6719.612       7996.5      84.2206     168.7762      337.117      1.852     4.60     1024.106     59.41055     612.6744        32     2.041     0.892 -20.28   0
       165    260.4940    763.1394 307.7950834  +6.3591600      671.418     1502.686      2927.23     84.35461     168.5753     337.0835      2.859     4.89     1028.466     59.41055     114.7313         8     1.111     0.609 -33.18   0
       166    753.4766    759.5034 307.5905365  +6.3771364     11104.46     17414.76     18185.28     84.08639     168.7762      337.117      1.670     4.64     1013.735     59.41055     1881.673        37     1.697     0.872 -28.13   0
       167    849.8763    768.7935 307.5502026  +6.3765119     798.2386     1356.946     1053.544     84.08639     168.0384     336.8824      1.573     4.32     1011.477     59.41055     131.1185         7     1.090     0.488 -24.06   0
       168    421.9147    754.8924 307.7283459  +6.3679691     2006.679     3165.255     3711.036      84.2206     169.0436     337.1505      1.740     4.33     1023.981     59.41055     329.9937        19     1.534     0.793 -25.29   0
       169    775.2371    753.5975 307.5816997  +6.3803008     1196.992     1707.136     1644.253     83.54737     168.3741     336.8489      1.560     4.04     1012.709     59.41055     217.7872        11     1.388     0.531 -30.31   0
       170    119.2578    751.8117 307.8540984  +6.3591031     2729.411     4751.691     5057.944     83.81731     168.5083     336.7483      1.843     4.82     1030.083     59.41055      450.751        25     1.691     0.919 -26.58   3
       171    111.2565    751.4989 307.8574306  +6.3589639     10522.53     17821.39     19473.25      84.2206     168.5753      337.251      1.828     4.63     1030.052     59.41055       1560.7        41     1.726     1.039 -27.13   3
       172    103.5224    748.8734 307.8607299  +6.3597886     2609.345     4785.962     5560.061     84.75534     168.8431     337.0835      2.112     4.43     1030.011     59.41055     387.2819        28     1.567     1.116 -39.07   3
       173    103.7151    742.3787 307.8608687  +6.3624772     1830.151     3088.468     3653.325      84.2206     168.2399      336.983      1.969     4.99     1029.923     59.41055     280.5173        17     1.407     0.932 -29.15   2
       174    948.1274    748.0071 307.5101051  +6.3883670     1569.135     2438.855     2622.078     84.08639     168.1056     336.9495      1.596     5.34     1006.769     59.41055     249.4065        17     1.399     0.829 -36.49   0
       175    898.9811    748.0329 307.5305092  +6.3867207     6172.696     9997.812     10567.25     83.95196     168.3741     336.8489      1.675     4.73     1008.693     59.41055     981.5131        30     1.668     0.860 -27.46   0
       176    654.6145    745.6873 307.6320447  +6.3795448     1674.691     2632.407     2228.623     84.08639     168.3741     336.9495      1.634     5.06     1015.288     59.41055     266.6162        17     1.492     0.741 -24.55   0
       177    541.4480    744.9480 307.6790534  +6.3760716     2130.952      3610.85     3400.975     84.62198     168.4412       337.05      1.713     4.91     1018.842     59.41055     385.1484        22     1.673     0.817 -29.51   0
       178    389.3471    744.4965 307.7422160  +6.3711729     988.6303     1781.588     2522.846     84.35461     168.5753      337.318      2.391     4.62     1024.238     59.41055     161.4681        11     1.224     0.724 -27.40   0
       179    893.1870    740.1427 307.5331786  +6.3897864     2805.445     4456.147     5358.002     83.81731     168.4412     336.7147      1.642     4.90     1008.572     59.41055     538.5375        21     1.621     0.713 -27.86   0
       180    953.5776    739.3489 307.5081315  +6.3921240     1917.902     2799.343     2756.542     83.95196     168.6423     336.9159      1.494     4.70     1006.244     59.41055     318.1642        15     1.570     0.669 -35.94   0
       181    922.6683    739.6404 307.5209551  +6.3909751     2891.187     4653.859     4434.041     84.35461     168.5083     337.1505      1.625     4.48     1007.419     59.41055     519.2992        20     1.594     0.725 -31.03   0
       182    645.5869    739.2646 307.6360080  +6.3818960     1302.929     2101.027     2012.759     83.95196     168.3741     336.9495      1.725     4.91     1015.304     59.41055     225.7797        14     1.562     0.649 -28.83   0
       183    792.8217    737.5817 307.5749348  +6.3875011     838.9113     1314.469     1698.842      84.2206     168.4412      336.983      1.830     5.30     1011.167     59.41055     152.4018        10     1.606     0.494 -28.96   0
       184    218.1962    734.4207 307.8136098  +6.3696026     1679.749     3098.764     3566.126     84.08639     168.2399     336.8153      2.011     5.56     1029.419     59.41055     228.8442        24     1.735     0.979 -36.75   0
       185    868.2173    735.1082 307.5437141  +6.3910342     744.1713     1333.021     1402.481      84.2206      168.307     336.9159      1.990     5.50     1009.307     59.41055      142.139         9     1.543     0.552 -16.22   0
       186    911.1489    729.8677 307.5260645  +6.3946277     1115.687     1824.522     2374.201     84.35461     168.4412      336.983      1.921     5.93     1007.501     59.41055     172.4146        16     1.559     0.779 -31.96   0
       187    655.3932    731.2062 307.6322066  +6.3855512     638.3544     840.7944     664.9081     83.81731     168.3741     336.8824      1.486     3.29     1014.752     59.41055     138.2831         5     1.184     0.265 -33.86   0
       188    239.2540    729.3877 307.8050369  +6.3723867     802.1937     1151.323     1620.929     83.81731     168.5083     336.7483      1.485     4.54     1028.272     59.41055     118.5208         8     1.012     0.580 -67.12   0
       189    937.4885    727.5711 307.5152051  +6.3964528     2328.031     3483.021     3552.054     84.62198     168.3071     336.9159      1.602     5.73     1006.422     59.41055     401.2911        18     1.502     0.749 -26.88   0
       190    885.0663    728.4547 307.5369410  +6.3943430     1165.484     1875.538     1790.211      84.4884     168.5083     337.0165      1.603     4.65     1008.404     59.41055     160.2454        11     1.264     0.677 -35.31   0
       191    657.2598    726.6682 307.6315837  +6.3874876     1072.602     1516.501     1392.648     84.62198     168.5083       337.05      1.418     3.96     1014.518     59.41055     184.1313        10     1.214     0.554 -14.54   0
       192   1011.4999    721.3546 307.4846834  +6.4014820     7600.863     11957.58     12240.08      84.4884     168.5753     337.2845      1.672     4.73     1002.761     59.41055     1348.524        31     1.621     0.888 -27.19   0
       193    979.3582    720.7677 307.4980482  +6.4006555      1727.08     2544.012     2627.831     84.08639     168.5753     336.8824      1.644     4.85      1004.22     59.41055     281.8037        16     1.528     0.691 -23.64   0
       194    606.1779    719.9398 307.6530177  +6.3885613     617.9094     871.6987     849.8456     84.08639     168.5083      336.983      1.468     3.96     1015.803     59.41055     116.7837         5     0.880     0.511 -37.74   0
       195    780.5759    719.2222 307.5806336  +6.3946752     1057.605     1670.525     1516.614     84.08639     168.3741     337.0165      1.455     5.47     1011.091     59.41055     151.7208        11     1.338     0.631 -21.48   0
       196    866.8937    716.6910 307.5448796  +6.3985962     1389.571     2172.415     2234.772      84.4884     169.1104       337.05      1.711     6.46     1008.665     59.41055     227.8036        17     1.807     0.688 -25.46   0
       197    841.4362    712.0638 307.5556042  +6.3996592     851.1985     1325.999     1466.153     84.35461     168.5753     337.0835      1.391     5.10     1009.163     59.41055     137.4191         9     1.294     0.568 -23.38   0
       198    628.5613    710.6107 307.6440371  +6.3931612     524.3731     858.1991     1015.135     83.81731     168.3741     336.7483      1.906     3.37     1014.776     59.41055     116.6754         5     1.045     0.314 -21.97   0
       199    824.1298    707.7079 307.5629355  +6.4008817     1461.894     2168.469     1589.418      84.4884     168.7092     337.0835      1.584     5.57     1009.485     59.41055     221.6636        15     1.613     0.636 -33.69   0
       200     87.7485    705.8885 307.8687269  +6.3770105     666.6268     1475.135     1701.791      84.4884     168.3741     337.1505      2.617     7.02      1029.17     59.41055     112.8864        10     1.706     0.809  78.84   0
       201     22.9940    706.8483 307.8955775  +6.3744403     2222.298     3892.098     4441.854     83.95196     168.3741     336.6476      1.993     4.59     1029.322     59.41055     313.3247        22     1.516     0.922 -36.43   0
       202    635.6278    695.4009 307.6416130  +6.3996784     5935.896     9463.188     10663.21     83.95196     168.3071     336.8489      1.728     4.43     1013.939     59.41055      969.649        30     1.642     0.905 -29.17   0
       203    582.1592    694.7631 307.6638342  +6.3981567      1184.04     1888.595     1772.628      84.2206     168.5753     336.9159      1.593     6.08      1015.79     59.41055     196.4537        14     1.618     0.658 -30.36   0
       204    503.9167    695.1603 307.6963063  +6.3953787     624.0722     1184.907      1269.87      84.4884     168.5083     337.0165      2.128     5.14     1018.859     59.41055     87.00848         7     1.232     0.605 -31.79   0
       205    494.1840    694.7611 307.7003605  +6.3952182     648.3657     939.9669     303.4924     84.08639     168.3741     336.8153      1.585     3.08     1019.354     59.41055     114.8243         5     0.706     0.698  62.98   0
       206    609.4795    691.1222 307.6526130  +6.4005725     1913.956     3111.765     2787.671     84.75534     168.8431     337.2175      1.633     4.23     1014.923     59.41055     339.6304        20     1.536     0.780 -30.13   0
       207    285.2684    691.4917 307.7872081  +6.3895782     650.5102     759.1719     983.0539      84.4884     168.7092       337.05      1.289     4.38     1025.341     59.41055     102.6022         7     0.997     0.547 -58.50   0
       208     98.6217    691.3409 307.8647030  +6.3833830     3339.886     5608.647     5684.412     84.08639     168.5083     336.8824      1.778     4.79     1028.781     59.41055     482.3132        23     1.622     0.867 -29.46   0
       209    972.6408    690.5525 307.5018467  +6.4129105     2581.933     3917.999     4500.824     84.35461     168.5753     336.9159      1.581     4.66     1002.615     59.41055     395.1265        20     1.642     0.718 -27.26   0
       210    221.7073    690.6249 307.8136261  +6.3878065     637.5635     779.2505     1278.583     84.62198     168.3071     336.8824      1.320     4.02     1026.622     59.41055     88.46289         6     0.880     0.524 -42.39   0
       211    752.4708    687.5379 307.5933634  +6.4068234     19363.48     30276.61     31939.67     84.62198     168.5753      337.117      1.688     4.64     1010.806     59.41055     3197.548        43     1.697     0.935 -29.66   0
       212    882.4612    687.2638 307.5393999  +6.4112675     3727.931     5910.133     5873.911      84.4884     168.5753     337.0835      1.688     5.53     1006.987     59.41055     637.6214        25     1.618     0.861 -31.76   0
       213    480.3313    687.4963 307.7063559  +6.3977554     914.3674     1288.417     584.1708     84.35461     168.7092     337.0835      1.496     5.07     1019.734     59.41055     159.4065         9     1.321     0.550 -27.87   0
       214    451.9019    687.7917 307.7181495  +6.3966829     1347.837     1995.667     1458.146      84.2206     168.1728     336.8153      1.526     4.78     1020.638     59.41055     203.3302        15     1.451     0.688 -32.90   0
       215    253.7368    687.0511 307.8004486  +6.3903557     514.6475     691.1364     1081.716      84.4884     168.5083     337.0165      1.483     4.22     1025.823     59.41055      117.776         5     0.874     0.582  -5.11   0
       216    633.0775    680.3229 307.6431773  +6.4058202     6311.256     10207.94     10578.62     84.75534     168.8431      337.117      1.726     4.61      1013.52     59.41055     945.7168        32     1.681     0.929 -30.22   0
       217    226.1295    681.1204 307.8121100  +6.3918798     5380.829     9044.823     9695.705     84.75534      168.843     337.0165      1.793     4.76     1025.913     59.41055      795.485        29     1.687     0.923 -29.73   0
       218    615.5236    681.0947 307.6504397  +6.4049155     906.6402     1272.219     463.0447      84.2206     168.7092     337.0835      1.589     4.46     1014.331     59.41055     134.7402         8     0.914     0.663 -37.25   0
       219    328.1787    680.0073 307.7697789  +6.3957578     587.2812     1060.276     1246.216     83.95196     168.3741     336.8489      1.598     4.02     1023.509     59.41055     91.94385         6     1.503     0.307 -30.66   0
       220    892.7767    672.9457 307.5355956  +6.4175241     1177.362     1837.593     1801.308     83.95196     168.5753     336.8489      1.620     5.19      1006.07     59.41055     190.2244        13     1.639     0.523 -29.53   0
       221    704.8387    668.6713 307.6137723  +6.4130266     3277.639     5562.535      6024.79     84.35461     168.5753      337.117      1.847     4.24     1010.755     59.41055     535.3706        28     1.666     0.927 -30.29   0
       222    659.8349    669.1701 307.6324414  +6.4113191     972.6526      1494.62     1266.174     84.08639      168.307     336.8489      1.658     5.62     1011.853     59.41055     163.8236        12     1.672     0.532 -25.93   0
       223    971.0620    665.3398 307.5033445  +6.4232705     8777.008     14156.32     15207.17      84.4884     168.5753     337.0835      1.687     4.87     1001.564     59.41055     1526.674        33     1.614     0.919 -30.48   0
       224    909.6599    665.7018 307.5288276  +6.4210778      2390.92     3447.657     3501.521      84.2206     168.5083      337.184      1.516     4.59      1005.29     59.41055     390.7268        18     1.572     0.671 -30.44   0
       225    406.9908    663.9233 307.7375977  +6.4050377     592.4733     913.4805     917.1687     84.08639     168.0384     336.8489      1.856     4.74     1020.979     59.41055     101.3333         5     1.430     0.446 -19.85   0
       226    509.7081    661.1487 307.6950432  +6.4096182     1855.711      3024.71     2990.342     84.35461     168.4412      337.251      1.733     5.43     1017.419     59.41055     299.1417        19     1.616     0.817 -23.96   0
       227     48.4291    660.1643 307.8865920  +6.3945730     22867.51     39065.78     40750.12     84.08639      168.307     336.8489      1.822     4.58     1028.537     59.41055     3402.541        51     1.791     1.089 -30.97   0
       228    478.6813    658.3691 307.7080188  +6.4097290     1156.069     1916.658     2025.762     84.35461     168.4412     337.0165      1.825     6.15     1018.662     59.41055     179.9884        15     1.551     0.883 -40.89   0
       229    899.6204    657.4573 307.5332718  +6.4241484     1039.114     1533.024     1126.752     84.08639     168.4412     336.8489      1.520     4.84     1005.419     59.41055     177.1472        15     1.532     0.693 -17.66   0
       230    519.2357    654.8715 307.6912980  +6.4125290     927.3882     1388.246      1191.94     84.35461     168.5753       337.05      1.577     4.17     1016.822     59.41055     152.0063         9     1.110     0.599 -27.09   0
       231    694.2920    652.4909 307.6186934  +6.4193569     3213.055     5477.178     5793.731      84.4884     169.1104      337.117      1.805     4.95     1010.498     59.41055     493.2424        25     1.778     0.805 -33.98   0
       232    716.4237    650.7602 307.6095620  +6.4208099     4000.195     6597.563     7243.569     84.08639     168.3071     336.8153      1.735     4.86     1010.043     59.41055      638.807        28     1.675     0.885 -27.13   0
       233    547.8242    648.6428 307.6796370  +6.4160565     2913.478     5085.415     5226.465     84.08639     168.4412     336.8824      1.817     5.96     1015.414     59.41055     399.1625        25     1.824     0.858 -33.05   0
       234    384.0692    649.0004 307.7476161  +6.4104336     1212.147     1942.118      2324.39     83.95196     168.0384     336.8489      1.830     4.47     1020.657     59.41055     195.8669        13     1.355     0.704 -44.33   0
       235    292.4473    647.3886 307.7857110  +6.4080318     1321.019     2144.404     2123.411     83.95196     168.4412     336.7147      1.831     5.17     1023.784     59.41055     199.2871        15     1.476     0.743 -31.44   0
       236    208.5216    648.1472 307.8205303  +6.4049065     1643.913     2760.808     3170.593      84.4884     168.5753       337.05      1.874     4.33     1025.369     59.41055     283.9342        19     1.514     0.817 -33.87   0
       237    989.3169    646.8596 307.4963820  +6.4315098     4956.171     7846.182     8403.906     84.62198     168.6423     337.0835      1.665     5.02      1000.21     59.41055     748.7787        28     1.696     0.877 -28.69   0
       238    954.7131    645.6675 307.5107902  +6.4308510     7895.159      11993.7     13101.59     84.62198     168.8431     337.0835      1.646     4.54     1002.446     59.41055     1272.845        27     1.641     0.791 -30.89   0
       239    509.4678    645.9442 307.6956533  +6.4158893     508.3843     888.7667     994.4866     84.62198     168.4412      336.983      2.303     4.55     1016.951     59.41055     115.3746         5     0.860     0.683 -53.92   0
       240   1004.3882    644.0883 307.4902166  +6.4331555     952.8895     1473.026     1812.963     84.08639     168.2399     336.8824      1.590     3.95      999.223     59.41055     178.1348         9     1.236     0.607 -40.72   0
       241    675.1516    643.8848 307.6269291  +6.4222725     906.2084     1507.104     1616.205      84.4884     168.5753     337.0835      1.785     4.22     1010.697     59.41055      136.438         9     1.071     0.736 -31.34   0
       242     66.2769    642.9968 307.8797609  +6.4022618     725.1649     1188.867     807.2148     83.95196     168.0384     336.8824      1.573     4.03     1028.115     59.41055     120.1376         6     1.132     0.411 -59.59   0
       243    400.0332    639.9852 307.7412908  +6.4146907     2459.462     4285.946     4831.069     84.08639      168.307     336.9159      1.908     4.63     1020.152     59.41055     349.1382        26     1.724     0.940 -39.15   0
       244    113.2028    639.1008 307.8604096  +6.4054455     21035.53     36645.38     38639.79      84.2206      168.307     336.7147      1.824     4.59     1027.113     59.41055     3139.238        51     1.787     1.109 -28.94   0
       245    781.8489    639.7115 307.5827664  +6.4275542     1098.591     1661.851     1533.952      84.4884     168.4412     337.1505      1.610     5.29     1008.456     59.41055     183.7421        12     1.531     0.653 -35.13   0
       246    575.0142    634.1975 307.6688321  +6.4229303      545.017     807.6986     1187.427     84.08639     168.2399     336.8824      1.895     4.82     1013.855     59.41055     91.39917         7     1.088     0.604 -21.22   0
       247    949.6808    628.6798 307.5134474  +6.4376992     6722.479     11194.38     12283.42     84.75535     168.8431     337.2175      1.801     4.48     1002.503     59.41055     1088.996        35     1.651     1.058 -22.83   0
       248   1004.9413    623.7878 307.4906649  +6.4415578     90870.48     141445.3     147116.4     83.81731     168.5083     336.7483      1.615     4.48     999.2021     59.41055     15048.69        80     1.724     0.999 -28.33   0
       249    543.1555    623.9078 307.6824054  +6.4261155     42406.06     72008.98     76927.16      84.4884     168.5083      337.184      1.799     4.52     1014.911     59.41055     6208.741        68     1.833     1.111 -28.85   0
       250    186.6548    624.4790 307.8304060  +6.4139475     718.3824     1101.744     1251.187     84.62198     168.5753     337.0835      1.755     3.79     1025.338     59.41055     101.1101         5     1.002     0.412 -74.98   0
       251    473.6045    620.7878 307.7113885  +6.4250794     645.6124     1173.168     1091.318     84.08639     168.3071     336.9159      1.609     4.20     1017.388     59.41055     119.0809         6     1.127     0.507 -42.58   0
       252    150.8954    620.5605 307.8453849  +6.4143665     2519.892     4059.058     4096.333      84.4884     168.4412      337.184      1.721     4.87     1025.852     59.41055     340.4271        23     1.660     0.882 -28.36   0
       253     43.7379    614.8617 307.8900672  +6.4131238     1255.306     2079.138     2364.044      84.4884     168.5753     337.0835      1.932     5.96     1028.333     59.41055     167.0172        13     1.356     0.773 -22.22   0
       254    440.4390    607.7170 307.7255981  +6.4293683     55223.77     93804.68     99092.46      84.4884     168.5083     337.0165      1.838     4.50     1018.099     59.41055     7254.689        71     1.844     1.145 -31.02   0
       255   1018.7352    606.9386 307.4855000  +6.4489750     3395.434     5408.961     5277.121      84.4884     168.5753     322.4586      1.634     4.98      998.426     59.41055     604.0451        21     1.650     0.724 -30.18  16
       256    627.0277    604.4720 307.6482320  +6.4369431     777.6273     1189.544     831.4524      84.2206     168.5083     336.9495      1.482     4.57      1010.67     59.41055     119.9551         8     0.986     0.755  22.19   0
       257    114.7245    602.8625 307.8609989  +6.4204617     1558.666     2816.674     3111.298     84.75535     168.5753       337.05      1.855     6.71      1026.21     59.41055     193.9427        19     1.856     0.709 -33.07   0
       258    395.7736    600.2821 307.7443935  +6.4309445     572.3215     1083.146      953.439     84.35461     168.3741     337.0165      2.017     5.12     1018.611     59.41055     93.24298         7     1.025     0.723 -47.56   2
       259    586.4534    599.1729 307.6652571  +6.4377768      890.353     1284.424     1404.273      84.2206     168.7092      336.983      1.526     5.08     1011.882     59.41055      121.699        10     1.296     0.564 -23.80   0
       260    286.0107    597.1619 307.7900730  +6.4285583      1783.95     3142.976     3646.636     83.81731     168.3741     336.7483      1.989     5.15      1021.53     59.41055     241.8923        19     1.544     0.861 -33.37   0
       261    438.1639    595.6009 307.7269497  +6.4342958     750.4592     1227.274     1535.881     83.54737     168.3741     336.8489      1.819     5.23     1017.707     59.41055     107.5468         8     1.142     0.775 -25.36   0
       262    712.5001    591.2322 307.6131852  +6.4452630     4900.821     7800.057      8331.27      84.4884     168.4412     337.2175      1.737     4.55     1008.491     59.41055     732.7512        27     1.646     0.884 -29.20   0
       263    766.0638    586.5201 307.5911015  +6.4489951     12961.67     20839.17     21734.25     84.75534     168.6423     337.0165      1.720     4.50     1007.136     59.41055     2044.032        46     1.763     0.994 -27.46   0
       264    508.3616    586.5701 307.6981055  +6.4403724     1015.987      1843.95     2218.489     84.08639     168.3071     336.9159      1.948     6.32     1014.744     59.41055     129.8881        12     1.544     0.726 -36.71   0
       265   1005.7747    585.4114 307.4916007  +6.4574345     2056.994     3265.854     3082.203     84.08639     168.3741      336.983      1.677     4.39     998.3904     59.41055      339.723        19     1.564     0.787 -24.53   0
       266    983.3896    587.0995 307.5008396  +6.4559928     818.1852     1009.397     789.5995      84.2206     168.1728     336.8153      1.348     4.72     999.5535     59.41055     144.7549         8     1.400     0.452 -28.39   0
       267    589.8107    584.6380 307.6643506  +6.4438915     2556.812     4395.757     4712.508     83.81731     168.3741     336.7483      1.829     4.94     1011.084     59.41055     367.2029        25     1.708     0.898 -34.48   0
       268     11.4926    585.8961 307.9044319  +6.4240025     570.7479     832.3911     850.4297      84.4884     169.1104     337.0165      1.517     5.06     1029.476     59.41055     97.98535         6     1.107     0.655 -34.55   0
       269    906.8897    580.8559 307.5328145  +6.4560257     1011.161      1622.01     1384.505     84.35461     168.5083      337.184      1.593     6.14     1002.713     59.41055     173.2393        14     1.584     0.670 -21.69   0
       270    202.0736    578.2714 307.8255599  +6.4335466     1133.965     2234.229     2918.815     84.75535     168.7092     337.0835      2.209     6.71     1024.051     59.41055     148.8682        15     1.609     0.785 -36.84   0
       271    348.5726    578.1519 307.7647359  +6.4385039     787.8217     1333.125     1828.651     84.08639     168.6423      336.983      1.795     4.92     1017.997     59.41055     114.2974         7     1.032     0.663 -37.84   0
       272    841.9272    569.8056 307.5601594  +6.4584260     2477.716     4021.706     4226.994     84.08639     168.1056     336.9495      1.633     5.15     1004.772     59.41055     407.0768        17     1.644     0.678 -27.79   0
       273    138.4482    569.4810 307.8522736  +6.4350430     652.0975     826.5651    -256.9985      84.4884     168.5753     337.0835      1.334     3.79      1025.36     59.41055     106.5988         6     0.900     0.707  81.82   0
       274    800.9598    567.1309 307.5772604  +6.4581656     2315.303     3912.701      4213.86     84.35461     168.5753     337.1505      1.718     4.19     1005.901     59.41055     405.9126        21     1.529     0.894 -33.85   0
       275    771.7663    563.0898 307.5895181  +6.4588615     2368.016     3623.087     4161.021     84.62198     168.4412       337.05      1.586     4.69     1006.446     59.41055     355.3893        18     1.464     0.765 -32.34   1
       276    228.9937    562.1159 307.8149263  +6.4411207     6630.485     11536.69      12250.3     84.08639     168.2399     336.9159      1.846     4.61     1022.593     59.41055     963.6404        35     1.727     1.009 -29.54   0
       277    781.4239    558.3846 307.5856653  +6.4611266     145372.3       236416       248897      84.2206     168.3741      336.983      1.752     4.50     1006.122     59.41055     23512.58       110     1.832     1.130 -29.76   0
       278    163.0835    556.7197 307.8424748  +6.4411393     50185.72     87732.45     93093.52     84.35461     168.8431      337.117      1.865     4.53     1024.897     59.41055     6528.308        71     1.862     1.173 -31.05   0
       279    710.9184    558.8239 307.6149277  +6.4585942     506.4406     935.2653     2281.465      84.2206      168.307      336.983      4.601     7.17     1007.878     59.41055     106.7283         9     1.774     0.812 -12.81   0
       280     87.0738    552.9619 307.8741613  +6.4401408     5555.079     9490.307     10190.31     84.35461     168.6423      337.117      1.825     4.58     1026.044     59.41055     796.9542        33     1.657     1.030 -27.19   0
       281    952.3109    550.2108 307.5149777  +6.4701934     1241.353       1917.7     1878.215      84.2206     168.3071     336.8489      1.472     5.34     999.2772     59.41055     213.1425        11     1.299     0.619 -31.19   0
       282    973.4291    548.9934 307.5062489  +6.4713988     705.9717     950.5868      865.774     83.95196     168.3741     336.8489      1.366     4.63     998.4417     59.41055     153.3876         9     1.307     0.518 -24.13   0
       283    202.1676    548.1147 307.8265363  +6.4460035     654.1172     1188.619      1231.03      84.4884     168.3741      336.983      2.052     5.60     1023.223     59.41055     98.96295         8     1.235     0.716 -13.88   0
       284    818.0452    545.6627 307.5708842  +6.4676010     3899.715      6299.98     6587.482     84.35461     168.5083     337.0835      1.762     4.65     1004.814     59.41055     642.4218        20     1.610     0.718 -26.97   0
       285    336.4590    543.7653 307.7709219  +6.4522990     14688.79     25520.55     27170.77     84.35461     168.5753     337.0165      1.870     4.47      1016.99     59.41055     2064.797        54     1.819     1.190 -32.67   0
       286    427.0954    544.0264 307.7332782  +6.4552245     671.3416     1024.909     1032.108     84.62198      168.307     336.9159      1.658     3.79     1016.021     59.41055     113.5004         6     1.462     0.281 -31.00   0
       287    138.3017    543.0490 307.8532250  +6.4459535      1674.44     3095.821      3806.76      84.4884     168.5083      337.251      2.307     6.65     1024.999     59.41055     225.9637        23     1.911     0.848 -30.44   2
       288    213.6253    541.0387 307.8220171  +6.4493098      771.657     1248.734     1129.688     84.08639     168.3741     336.8489      1.674     6.42     1022.384     59.41055     134.0521         9     1.458     0.795 -26.50   0
       289    771.9670    539.0462 307.5902398  +6.4687978     5349.592     8787.437     9333.498      84.2206     168.5753      336.983      1.704     4.47     1005.632     59.41055     791.4791        31     1.639     0.924 -29.30   0
       290     75.5752    540.4426 307.8793576  +6.4449248     617.8517     1007.569     1634.599     84.08639     168.5083     336.8153      1.983     5.63     1026.327     59.41055     100.4567         8     1.693     0.528 -29.69   0
       291    502.7819    538.7178 307.7020288  +6.4599477     5649.421     9688.813     10069.88     84.08639     168.2399      336.983      1.821     4.62     1012.838     59.41055      740.668        36     1.771     1.007 -28.64   0
       292    361.1924    535.1541 307.7609414  +6.4566832     1299.823     2151.609     2612.814     83.95196     168.4412     336.6812      1.901     5.50     1016.094     59.41055     179.5858        15     1.470     0.731 -18.47   0
       293    149.8574    531.8753 307.8488033  +6.4509555     5646.249     9960.548     10163.69     84.62198     168.5083     337.0165      1.867     4.97     1024.479     59.41055     753.7163        35     1.737     1.029 -27.81   0
       294    547.5711    531.8694 307.6836603  +6.4642727     2144.659     3758.542     4218.368      84.2206     168.5753      336.983      2.047     5.98      1010.24     59.41055     263.4591        22     1.691     0.808 -27.68   0
       295    788.6113    531.4102 307.5835838  +6.4725061     1316.598     1866.606     1628.534      84.2206     168.3741     337.0165      1.617     4.72     1004.734     59.41055     220.5751        11     1.308     0.721 -32.02   0
       296    245.0652    528.3444 307.8093899  +6.4556059     72617.04       128902     137369.2     84.62198     168.4412       337.05      1.905     4.59     1019.858     59.41055     9961.949        86     1.898     1.237 -30.09   0
       297     21.4316    530.5623 307.9021717  +6.4471869     4329.373     7719.958     8143.853     84.08639     168.3071     336.8489      1.913     4.71     1028.279     59.41055      579.824        33     1.787     1.007 -34.61   0
       298    831.1748    531.6213 307.5659020  +6.4738373     557.7806      806.692     915.8215     84.08639     168.3741      336.983      1.293     3.45     1003.646     59.41055     98.94971         5     0.810     0.425 -19.90   0
       299    534.1399    525.6819 307.6894452  +6.4663792     652.0105     1252.803     1537.644     84.62198     168.5753     337.0835      2.228     6.57     1010.656     59.41055     107.6715         9     1.732     0.700 -25.40   0
       300    228.9136    523.3414 307.8162648  +6.4571306     1076.761     1971.913     2070.088      84.4884     168.5753      337.184      1.926     6.11     1020.475     59.41055     150.5161        13     1.552     0.676 -16.30   0
       301    944.6777    521.9774 307.5190911  +6.4815993     1392.023     2246.711     2024.849     84.08639     168.3741      336.983      1.665     4.98     998.3535     59.41055     259.2289        15     1.625     0.701 -23.98   0
       302    768.2210    520.7905 307.5924066  +6.4762122     14573.63     24066.53     24545.25     84.08639     168.2399     336.8489      1.720     4.70     1004.551     59.41055     2203.339        39     1.706     0.960 -29.34   0
       303    471.8093    519.1832 307.7155458  +6.4669795     34038.92     64354.88     70331.53      84.2206      168.307     336.9495      2.002     4.85      1013.07     59.41055     4506.091        77     1.998     1.289 -23.95   0
       304    622.5902    517.4796 307.6529915  +6.4727209     834.1209     1224.685     1439.472     84.08639     168.2399     336.8824      1.634     3.73      1007.98     59.41055      125.801         6     1.029     0.388 -19.31   0
       305    184.4110    515.6650 307.8350019  +6.4588087     1496.365     2641.506     2487.166     83.95196     168.3741     336.8824      1.836     4.73     1022.419     59.41055     193.5692        17     1.391     0.856 -26.88   0
       306     70.8874    516.1125 307.8821243  +6.4548148     575.4335     946.6061     1027.021      84.2206     168.9768     337.1505      1.620     3.94     1025.799     59.41055     90.63074         5     1.015     0.438 -45.00   0
       307     20.1915    515.7477 307.9031864  +6.4532631     988.8846      1544.89     1900.701     83.95196     168.4412     336.7483      1.601     5.57      1027.27     59.41055     150.4806        12     1.249     0.754 -45.63   0
       308    693.9196    513.1620 307.6235164  +6.4768846     1179.537     2083.446     1857.279     84.35461     168.6423     337.0165      1.726     5.89     1006.388     59.41055     195.9703        14     1.520     0.802 -29.31   0
       309    642.1846    514.3568 307.6449596  +6.4746648     1337.724     2003.125     2190.057     83.81731     168.3741     336.8153      1.627     5.16     1007.663     59.41055     187.1555        15     1.344     0.818 -22.63   0
       310    631.8604    514.0969 307.6492555  +6.4744274     2558.149     4247.174     4928.587      84.2206     168.5753     337.1505      1.789     4.59     1007.787     59.41055     392.5272        22     1.671     0.813 -36.74   0
       311    369.7699    509.8197 307.7582315  +6.4674327     1609.005     2518.631     2743.059     83.95196     168.3741     336.9159      1.643     5.26     1014.712     59.41055     183.3977        15     1.258     0.862 -24.08   0
       312    116.1376    506.7231 307.8636520  +6.4602111     22182.24     38705.07      40535.5     84.75535     168.5753       337.05      1.886     4.66     1024.441     59.41055     2943.698        54     1.803     1.152 -32.24   0
       313    301.1732    508.1632 307.7867712  +6.4658199     3245.892      5498.38     5403.931     84.08639     168.3741     336.8489      1.832     4.44     1016.003     59.41055     431.9538        27     1.626     0.963 -24.46   0
       314   1019.4453    507.2317 307.4885352  +6.4901762     1206.926     1635.364     1721.598      84.2206     168.6423     314.9095      1.371     5.17     994.2536     59.41055     240.8724        10     1.449     0.522 -30.25  16
       315    481.0653    507.3957 307.7120981  +6.4721570     1750.658     3091.813     3156.313     83.68245     168.2399     336.7818      1.842     5.06     1011.978     59.41055     281.1677        22     1.695     0.812 -27.72   0
       316    844.3358    506.6199 307.5612733  +6.4846009     1497.297     2123.774     2363.047     84.08639     168.5753     336.8824      1.653     5.15     1001.911     59.41055     224.8029        13     1.374     0.682 -28.84   0
       317     81.5384    504.8178 307.8780826  +6.4598367     2451.145     4030.652     3758.814     84.08639     168.5083     336.8824      1.727     4.49     1025.224     59.41055     321.2832        24     1.557     0.952 -30.54   0
       318    318.4562    503.1298 307.7797639  +6.4684774     924.9202     1509.996     1714.657     84.62198     168.5083     337.0165      1.807     5.87      1015.31     59.41055     110.0942        12     1.160     0.837 -16.35   0
       319    941.6976    501.3036 307.5210197  +6.4900381      4880.33      7821.26     8152.478      84.4884     169.1772     336.8824      1.674     4.68     997.6402     59.41055     886.5404        24     1.575     0.809 -29.93   0
       320    514.7928    494.0222 307.6985417  +6.4788073     1347.252     2526.515     2490.792     83.95196     168.3741     336.8824      2.129     6.09     1010.041     59.41055     166.1487        17     1.704     0.770 -20.14   0
       321    621.2032    487.5557 307.6545709  +6.4850326     10472.49     18013.57     19146.44     83.81731     168.1728     336.6812      1.838     4.53      1007.24     59.41055       1506.7        39     1.749     1.033 -34.23   0
       322    413.1528    487.8727 307.7409546  +6.4779480     35750.78     63329.64     67587.33      84.4884     168.6423       337.05      1.891     4.74     1013.434     59.41055     4710.408        66     1.867     1.183 -31.27   0
       323    261.5237    488.0681 307.8039113  +6.4727902     738.2975     1306.357     1131.716     84.62198     168.7092     337.0165      2.002     4.89     1016.635     59.41055     127.6005         8     1.149     0.589 -55.40   0
       324    178.3464    485.4583 307.8385375  +6.4710796      16041.4      29629.6     31744.76     84.62198     168.5753       337.05      1.982     4.70     1021.227     59.41055     1844.679        58     1.879     1.277 -29.73   0
       325    955.1733    485.9195 307.5159378  +6.4968400      1225.04     1926.542      2251.42     84.35461     168.3741     337.0835      1.560     4.80     996.3498     59.41055     212.8583        13     1.461     0.660 -31.22   0
       326    144.1922    486.4686 307.8526855  +6.4695168     1423.136     2389.784     2357.649     83.95196     168.2399     336.9495      1.814     5.04     1022.986     59.41055     188.4296        15     1.444     0.815 -26.28   0
       327    795.2596    485.4029 307.5823632  +6.4917279     867.9401     1578.737     1642.386     83.81731     168.3071     336.7483      1.889     5.57     1001.757     59.41055     136.0354         9     1.201     0.727 -35.19   0
       328    884.6753    485.0382 307.5452434  +6.4948573     745.5666     1049.244     1237.758     84.35461     168.6423     337.1505      1.418     2.88     999.4584     59.41055     138.3946         5     0.792     0.479 -33.51   0
       329    542.7839    484.2158 307.6872474  +6.4837926     2288.429     4064.097     4526.477      84.2206     168.2399      336.983      1.915     5.31     1008.792     59.41055     327.0806        26     1.733     1.066 -21.80   0
       330    916.8235    481.4081 307.5320144  +6.4974268     4388.356     7049.129     6841.563     84.08639     168.3741     336.8824      1.668     4.95     998.0166     59.41055     753.8551        23     1.612     0.783 -30.57   0
       331    589.9102    479.8773 307.6678233  +6.4871586     5477.463     9566.358     10734.92      84.2206      168.843      337.117      1.899     4.95     1007.658     59.41055     703.3035        35     1.755     1.011 -27.26   0
       332     77.5827    480.3991 307.8805484  +6.4697878     1144.814     1988.023     1805.168     84.08639     168.1056     336.7147      1.879     5.36     1024.638     59.41055     164.0323        13     1.454     0.788 -40.21   0
       333    939.2736    473.7325 307.5229480  +6.5013439     3034.723     4735.039     4647.497     84.62198     168.7092     337.0165      1.614     4.73     996.6093     59.41055     473.3802        21     1.642     0.749 -28.31   0
       334    502.2051    471.0829 307.7045390  +6.4878599     6250.796     11002.77     11469.07     83.95196     168.1728     336.7818      1.873     4.59     1008.937     59.41055     886.6058        35     1.738     1.047 -31.11   0
       335    348.2136    471.4082 307.7684741  +6.4825739     2130.093     4006.978     4210.481     84.08639     168.3071     336.9159      2.018     5.40     1012.786     59.41055     291.5289        28     1.763     1.027 -33.47   0
       336    858.7471    466.9718 307.5566152  +6.5014549     3011.932     4614.041     4916.917      84.2206     168.7092     336.9495      1.642     4.56     999.5988     59.41055     510.2702        21     1.568     0.750 -31.90   0
       337    512.1821    467.5621 307.7005142  +6.4896474     734.5853     1215.909     1474.988     84.08639     168.4412     336.7818      1.471     4.30     1008.464     59.41055     140.3677         7     1.257     0.418 -37.77   0
       338    866.1605    461.3810 307.5537236  +6.5040107     1895.863     2907.471     3058.912     84.08639     168.3741     336.7818      1.613     4.82     999.1339     59.41055     324.6555        16     1.457     0.687 -29.36   0
       339    905.7464    460.6647 307.5373082  +6.5056247     1252.533     1654.868     1374.615      84.4884     168.5083     337.0165      1.492     5.85     997.3954     59.41055     168.4882        14     1.447     0.665 -32.42   0
       340     85.8838    460.3187 307.8777785  +6.4783589     588.8541     957.0034     628.2048      84.2206     168.8431      337.117      2.515     3.93      1023.87     59.41055     125.2922         5     0.878     0.503 -52.49   0
       341    689.8810    457.2503 307.6270671  +6.4998403     2686.619     4390.899      4600.76      84.4884     168.6423       337.05      1.764     4.61     1003.489     59.41055      378.137        23     1.671     0.832 -35.51   0
       342     51.8346    456.6688 307.8920400  +6.4787230     1578.341     2794.272     3020.562     84.35461     168.6423     337.1505      1.814     5.49     1024.379     59.41055     209.8995        17     1.559     0.748 -26.07   0
       343    401.5969    455.8259 307.7468302  +6.4907957     847.2121     1419.291     1566.442     83.95196     168.2399     336.8489      2.141     4.94     1010.826     59.41055     142.0592         9     1.622     0.427 -50.50   0
       344    360.9734    455.4130 307.7637133  +6.4896066     3274.008     5664.016     6071.356      84.2206     168.3741      336.983      1.845     4.45     1011.596     59.41055     424.4456        28     1.616     0.996 -28.25   0
       345    751.6038    448.3911 307.6017318  +6.5055577     14694.68     24144.44     27223.52     83.81731     168.2399     336.8824      1.829     4.68     1001.252     59.41055     2126.991        57     2.241     1.028 -39.59   0
       346    271.2331    448.9612 307.8011956  +6.4892654     2320.602     4202.685     4305.405      84.2206     168.3741     336.8153      1.870     5.20     1014.283     59.41055     280.1575        27     1.685     1.037 -34.20   0
       347    394.5338    448.5789 307.7500068  +6.4935522      644.501     1009.813     961.6357     84.08639     168.5753     336.9495      1.887     5.23     1010.369     59.41055      90.7804         6     1.163     0.664 -41.66   0
       348    780.5856    445.7293 307.5897853  +6.5076232     1374.792     2322.786     2880.016     83.95196     168.4412     336.9495      1.782     4.59     1000.885     59.41055     206.0089        16     1.413     0.792 -26.78   0
       349    354.1596    445.6226 307.7668720  +6.4934216     1502.603      2504.91     3421.026     84.08639     168.3741     336.8153      1.818     4.57     1011.245     59.41055     190.7925        16     1.324     0.851 -38.10   0
       350    588.6633    452.0990 307.6692729  +6.4985887     8456.359     14150.89     15329.58     84.35461     168.6423     337.0835      1.771     4.44     1005.819     59.41055     1185.027        37     1.710     1.002 -32.93   0
       351    936.6758    443.6290 307.5250332  +6.5136897     1948.981     2723.835     2697.466     84.35461     168.6423      337.117      1.474     4.30     995.0267     59.41055     357.9317        16     1.503     0.631 -25.57   0
       352     88.8461    440.6839 307.8772104  +6.4865668     3647.542     6610.059     7123.208      84.4884     168.5753     337.0835      1.972     4.86     1023.079     59.41055     465.8828        33     1.742     1.053 -25.34   0
       353    726.8240    439.5201 307.6123196  +6.5083949      2036.14     3544.901     3879.108     84.08639     168.2399     337.0165      1.874     4.50     1001.444     59.41055     259.1144        23     1.536     0.982 -26.31   0
       354    990.5198    438.3730 307.5028479  +6.5176519       3793.5     6706.809     6993.661     84.35461     168.3741     337.0835      1.892     4.98     992.0905     59.41055     422.6428        32     1.678     1.085 -17.37   0
       355    246.8162    437.7349 307.8117127  +6.4930833     1069.285     2057.357     2099.386     83.95196     168.4412     336.9495      1.992     7.08     1014.911     59.41055     131.9971        16     1.397     1.006 -39.22   0
       356    324.8744    435.5217 307.7793728  +6.4966124     2791.039      4631.27     4731.694     84.75534     168.8431     337.0835      1.739     4.78     1011.622     59.41055     336.1732        27     1.745     0.892 -28.34   0
       357    680.7540    433.0868 307.6316673  +6.5095148     1395.925     2297.039     2597.032      84.4884     168.4412       337.05      1.848     5.67     1002.256     59.41055     221.4384        14     1.472     0.720 -32.68   0
       358    955.1624    431.9594 307.5177460  +6.5191243     638.0882      831.472     1637.912      84.2206     168.5753     336.9159      1.433     3.89     993.5006     59.41055     110.4886         6     0.989     0.438 -52.33   0
       359    522.1728    426.0945 307.6977575  +6.5071064     780.9275     1374.122     1411.357     84.62198      168.307     336.8824      1.984     6.19      1005.01     59.41055     119.6316        12     1.497     0.720  -8.95   0
       360    444.3018    424.3977 307.7301523  +6.5052034     1123.472     2067.002     2368.584     83.95196     168.3071     336.7147      1.962     5.93     1006.432     59.41055     148.1954        15     1.654     0.774 -37.27   0
       361    807.0665    423.2701 307.5795400  +6.5177811     1427.987     2112.985     2009.932      84.4884     168.6423       337.05      1.547     3.68     999.9341     59.41055     250.7078        13     1.256     0.650 -26.35   0
       362    792.4261    422.0074 307.5856623  +6.5178146     1746.346     2926.102     2753.871     83.95196     168.4412     336.8824      1.721     4.94     1000.227     59.41055     300.8253        17     1.538     0.766 -27.37   0
       363    689.8333    420.3756 307.6283228  +6.5150671      12859.9     21794.63     23110.23     83.95196     168.3741     336.8489      1.776     4.62     1001.264     59.41055     1782.231        47     1.800     1.055 -33.41   0
       364    610.6974    416.2421 307.6613255  +6.5141326     2228.274     3626.771     4160.819      84.4884     168.4412     337.2845      1.869     5.57     1003.081     59.41055     293.5354        24     1.657     1.135  -5.84   0
       365    586.5725    413.3108 307.6714425  +6.5145375     4717.116     7557.069     8721.416     84.62198     168.3071     336.9159      1.769     5.45     1003.242     59.41055     592.6318        26     1.700     0.884 -35.05   3
       366    582.4408    410.9429 307.6732378  +6.5153774     12571.08     22263.05     24385.08      84.4884     168.5753     337.0835      1.911     4.50     1003.173     59.41055     1703.222        48     1.824     1.128 -30.48   3
       367    914.8870    410.3821 307.5351937  +6.5266949     3449.608     5521.057     5336.129      84.2206      168.307     336.9159      1.710     5.03     994.2749     59.41055     593.0598        26     1.779     0.774 -29.65   0
       368    354.2431    406.2260 307.7681622  +6.5096940     23990.54     43027.43     46086.41     84.08639     168.5753     336.9495      1.927     4.69     1008.839     59.41055     3215.241        62     1.877     1.219 -29.41   0
       369    870.5434    405.9585 307.5537576  +6.5270452     1383.059     2405.515     3318.299     84.35461     168.5753     337.0835      1.762     6.23     996.2785     59.41055     231.5688        18     1.696     0.798 -32.19   0
       370    100.5497    405.8051 307.8735264  +6.5013632      2109.79     3537.889     3926.144     83.81731     168.3741     336.6476      1.844     4.97     1021.231     59.41055     243.9811        20     1.389     0.960 -35.51   0
       371    883.9719    400.6870 307.5483571  +6.5296694     4760.382     7590.329     7684.193     84.62198     168.3071     336.9159      1.668     4.62     995.3553     59.41055     790.4606        31     1.657     0.921 -32.94   0
       372     33.8653    401.2809 307.9013700  +6.5009924     1450.855     2637.639     2819.431     84.75535     168.7092     337.0165      1.980     5.36     1023.871     59.41055     205.0439        17     1.427     0.943 -27.98   0
       373    774.1897    399.0040 307.5940061  +6.5267066     470.1891     824.8856     1001.528     83.95196     168.2399     336.9495      2.195     3.44     999.4698     59.41055     88.93445         5     0.802     0.496 -34.27   0
       374    211.7966    396.8103 307.8276329  +6.5088098     11449.23     20617.86     21921.24     83.95196     168.2399     336.9495      1.896     4.76     1014.921     59.41055     1438.008        48     1.844     1.148 -32.30   0
       375     47.6842    390.9930 307.8959786  +6.5057050     803.4574     1310.805      1209.96     84.08639     168.2399     336.8824      1.711     6.01     1022.889     59.41055     110.1976        11     1.590     0.639 -38.69   0
       376    706.4516    390.3463 307.6224277  +6.5280230     649.9299     816.5137     1036.927     84.62198     168.5083     337.0835      1.716     5.98     999.7687     59.41055     94.74316         8     1.536     0.654 -33.10   0
       377    935.0645    389.0447 307.5275274  +6.5361785      937.613     1577.275     1688.917      84.4884     168.5083       337.05      1.803     5.05      992.403     59.41055     158.9353         9     1.437     0.502 -36.26   0
       378   1016.5705    387.4189 307.4937314  +6.5395616     8581.789      13011.5     13910.67     84.08639     168.3741      336.983      1.635     4.45     988.9441     59.41055     1473.985        32     1.669     0.808 -28.02  16
       379    674.9468    389.5148 307.6355395  +6.5273152     668.2926     1029.415     1002.297      84.4884     168.5083     337.2175      1.502     3.72      1000.14     59.41055     89.47662         6     0.798     0.499  -1.80   0
       380    324.8305    386.5391 307.7810387  +6.5168392     1045.406     1992.805     2114.583      84.2206     168.5753     337.0165      2.061     6.56     1008.948     59.41055     121.8891        16     1.662     0.727 -28.85   0
       381    157.8100    387.0013 307.8503821  +6.5110499     651.8945     1210.879     1483.563     83.95196     168.2399     336.8153      1.784     3.87     1017.818     59.41055     91.37317         6     0.933     0.461 -50.34   0
       382    112.0071    385.3474 307.8694582  +6.5101960      4286.83     7911.651     8257.432     83.95196     168.3741     336.7147      1.895     4.98     1020.067     59.41055      549.306        33     1.701     1.094 -29.57   0
       383    218.2395    383.8683 307.8253931  +6.5143704     957.5859      1414.81      1546.35     84.35461     168.5753     337.1505      1.498     3.65     1014.073     59.41055     159.9054         5     0.997     0.385 -59.56   3
       384    215.6639    384.6611 307.8264360  +6.5139566     839.4091     1562.135     1711.293      84.4884     168.5753     337.0835      2.050     4.76     1014.236     59.41055     114.5865         8     1.123     0.672 -62.65   2
       385    134.1433    381.2675 307.8604033  +6.5126237      2034.74     3709.138     3684.456     84.62198     168.5083     337.0165      1.886     5.56     1018.896     59.41055     239.1458        25     1.734     1.046 -38.31   0
       386    798.4667    381.9488 307.5844949  +6.5345593      819.077     1310.057     1141.253     84.35461     168.5083       337.05      1.811     5.09     998.5429     59.41055      129.317         9     1.518     0.483 -36.72   0
       387    530.1202    380.0310 307.6960034  +6.5263951     784.7314     1274.567      811.941     84.35461     168.5083     337.0165      1.804     4.58     1001.673     59.41055      125.954         8     0.992     0.659 -60.99   0
       388    946.2166    375.3387 307.5233541  +6.5422100     855.0066     1714.997     2736.224     83.95196     168.5083     336.8489      2.689     6.55      991.371     59.41055     151.6418        14     1.681     0.884 -61.49   0
       389    357.6764    376.1967 307.7677462  +6.5222101     1654.621     2857.929      3061.31     83.95196     168.0384     336.9159      1.781     5.65     1006.537     59.41055     208.8033        18     1.606     0.761 -32.30   0
       390    245.4412    376.2872 307.8143522  +6.5184130     640.4576     1170.286     865.3105      84.4884     168.5753     337.0835      1.933     3.63     1012.409     59.41055     111.0603         5     0.816     0.669 -50.04   0
       391    411.3811    369.6780 307.7456625  +6.5266997     6145.442      11022.2     11733.14     83.95196     168.2399     337.0165      1.901     4.68     1004.704     59.41055     771.4906        36     1.784     1.062 -32.63   0
       392      8.2237    370.5763 307.9130537  +6.5128107      2852.91     5917.618     6452.204     83.95196     168.3741     336.4127      2.207     9.79     1023.445     59.41055     698.0039        37     1.904     1.404 -40.76  16
       393    743.9879    368.6231 307.6075666  +6.5382463     1701.673     2911.654     2911.707     84.08639     168.3741     336.9495      1.774     4.84     998.5061     59.41055     264.2254        20     1.580     0.844 -34.14   1
       394    752.0594    366.8921 307.6042725  +6.5392303     11272.63      18796.7     20163.93     84.35461     168.5083     337.2175      1.762     4.46     998.3465     59.41055     1629.529        42     1.777     0.995 -31.64   0
       395    315.5844    365.6626 307.7855807  +6.5251508     947.6221     1536.319     1561.107     83.95196     168.5083     336.8489      1.843     4.83     1008.363     59.41055     125.0392        12     1.177     0.813 -41.04   0
       396    995.8582    362.0398 307.5031816  +6.5493539     3388.285     5446.285     5118.601      84.4884     168.6423      337.117      1.633     4.46     988.9412     59.41055     582.5994        23     1.643     0.805 -32.55   0
       397    926.8047    358.4950 307.5319793  +6.5485201     589.2805      847.057     1188.249      84.2206     168.2399     336.8153      1.378     3.41     991.3806     59.41055     114.1489         5     0.752     0.447 -21.65   0
       398    160.9601    357.5003 307.8500680  +6.5233384     759.8857     1316.428     922.8716      84.4884     168.4412     337.2845      1.895     4.70     1017.282     59.41055     126.9567         8     1.220     0.763 -48.80   0
       399    459.6830    353.2853 307.7261539  +6.5350853      2610.24     4414.095     4204.984      84.2206     168.7762     337.1505      1.821     4.29     1001.199     59.41055     347.4451        26     1.649     0.922 -32.88   0
       400    431.8533    353.8241 307.7376934  +6.5339318     1927.871       3367.7     3359.524     83.95196     168.5753     336.8489      1.803     5.52     1002.953     59.41055     257.2091        20     1.558     0.860 -26.53   0
       401    888.3141    353.2570 307.5481404  +6.5494018     695.0923      1401.48     1123.562      84.4884     168.5753     337.2175      1.875     5.71     992.5651     59.41055     109.6266        10     1.354     0.678 -28.21   0
       402    817.3767    349.8772 307.5777151  +6.5484345      29187.6     50083.59     52878.75     84.08639     168.4412      336.983      1.810     4.55     996.0793     59.41055     4328.488        57     1.803     1.110 -36.52   0
       403    962.5770    349.9481 307.5174081  +6.5532403     517.5933     880.5702     1090.303     83.95196     168.5753     336.9159      1.723     3.71     989.7273     59.41055     89.72485         6     1.183     0.334 -39.15   0
       404   1011.2244    347.4218 307.4972881  +6.5559020     644.1263     980.8947     611.0838     84.08639     168.3741       337.05      1.595     4.70     987.8423     59.41055     113.0457         8     1.171     0.540 -22.42   0
       405    309.6945    345.6442 307.7887002  +6.5332205     724.5295      1226.78     853.4382      84.4884     168.5753      337.184      1.891     5.36     1007.763     59.41055     102.4697         8     1.247     0.649 -32.13   0
       406    589.2706    342.2227 307.6727072  +6.5439852     2389.798     3815.138     4002.117     84.08639     168.4412     337.0165      1.712     4.94     998.0483     59.41055     327.7156        21     1.454     0.871 -35.40   0
       407    673.8210    335.8345 307.6378066  +6.5494464      68413.7     117093.1     123865.4     83.95196     168.3741     336.8153      1.810     4.59     997.2324     59.41055     9500.344        82     1.862     1.165 -31.19   0
       408    832.2837    337.4383 307.5719403  +6.5540682     1044.643     1894.883     2209.027      84.4884     168.5083      336.983      2.055     5.84     994.4711     59.41055     180.1824        12     1.361     0.706 -29.28   0
       409     53.5350    335.5383 307.8954195  +6.5288019     1243.982     2348.641     1946.994      84.4884     168.5753     337.0835      1.826     5.69     1021.099     59.41055     198.7684        16     1.751     0.620 -27.90   0
       410     73.6992    331.4110 307.8871850  +6.5311835     5232.296     9212.396     10001.71      84.2206     168.1728     336.8153      1.923     4.55     1020.417     59.41055     661.2527        38     1.825     1.089 -36.53   0
       411    915.5217    332.6562 307.5375295  +6.5588155      784.015     1384.105     1373.733      84.4884     168.5753       337.05      1.950     5.36     990.8256     59.41055     125.0547        10     1.474     0.551 -29.74   0
       412    536.3954    332.5086 307.6949927  +6.5462303     2336.344     3882.083     4582.271     84.08639     168.2399     336.8153      1.833     4.63      998.044     59.41055     297.2546        20     1.532     0.840 -26.73   0
       413    519.6024    328.7003 307.7020949  +6.5472417     5988.326      10540.9     11105.71     83.95196     168.3071     336.7483      1.903     4.64     997.8462     59.41055     771.1663        40     1.826     1.076 -31.36   0
       414    248.7525    326.5079 307.8146530  +6.5390810     2269.635     3910.687     4215.794      84.4884     168.5083      337.184      1.870     5.27     1010.492     59.41055     287.1973        22     1.692     0.843 -32.94   0
       415    382.4894    323.9714 307.7591977  +6.5446082     21611.21      38902.2     41375.45     84.62198      168.307     336.9495      1.946     4.86      1003.37     59.41055      2787.09        58     1.866     1.217 -31.32   0
       416    649.0576    322.4400 307.6485404  +6.5541514     528.4611     660.1144     798.3999      84.4884     168.6423     337.0835      1.521     5.98     996.1287     59.41055     96.18298         7     1.102     0.912   9.10   0
       417    490.4663    322.5986 307.7144003  +6.5487875     1219.578     2239.087      2391.72     83.81731     168.1728     336.8153      1.966     6.69     997.6815     59.41055     158.8651        18     1.543     0.949 -30.53   0
       418    362.8701    321.8042 307.7674185  +6.5448464     1044.376     1672.807     2367.281     83.81731     168.1728     336.8824      1.841     6.11     1004.036     59.41055     133.7874        12     1.345     0.781 -33.69   0
       419    462.1476    319.1502 307.7262772  +6.5492646     978.6362     1789.887     2050.898     84.62198     168.4412       337.05      2.193     5.66     998.7569     59.41055     137.9238        11     1.395     0.646 -46.75   0
       420    471.5496    314.3081 307.7225351  +6.5515786     7330.001     12979.04     13892.81     84.35461     168.4412      337.251      1.915     4.71     997.7431     59.41055     928.8191        43     1.848     1.122 -31.31   0
       421    359.4339    316.8878 307.7690109  +6.5467617     690.6072     1084.571     1537.259      84.4884     168.4412       337.05      1.559     4.38      1004.08     59.41055     100.3853         7     1.143     0.477 -40.09   0
       422    777.8979    315.8696 307.5952503  +6.5611631     856.3154     1319.173     735.4984     84.35461     168.7092       337.05      1.554     4.28     994.7314     59.41055     112.3519         8     0.953     0.723 -63.55   0
       423    740.7404    312.9706 307.6107799  +6.5611213     2718.707     4859.731     5304.013      84.2206     168.5753     337.0165      1.783     5.39     994.9943     59.41055     395.0238        25     1.785     0.860 -36.84   0
       424    896.6074    312.7670 307.5460505  +6.5663996     843.4502     1260.399     1352.326     83.95196     168.4412     336.8489      1.411     5.31     990.7867     59.41055     147.1317         9     1.364     0.583 -18.74   0
       425    298.4553    311.4318 307.7945190  +6.5469725      1004.91     1567.996     1302.357     84.35461     168.5753      336.983      1.609     5.24     1006.275     59.41055     141.2673        10     1.195     0.650 -45.84   0
       426    133.9237    305.1433 307.8630603  +6.5440526     924.8033      1573.01     1357.993      84.4884     168.5083      336.983      1.601     5.12     1017.677     59.41055      144.202        11     1.299     0.659 -42.34   0
       427    217.3951    299.1721 307.8285961  +6.5493185     1778.223     3182.422      3683.64     83.95196     168.3741     336.8489      1.952     5.74     1012.447     59.41055      205.067        23     1.745     0.885 -33.91   0
       428    361.4413    298.5604 307.7687936  +6.5543975     6246.857     11116.67     11536.35      84.2206     168.6423     336.9159      1.914     4.54     1003.567     59.41055     794.2495        38     1.783     1.096 -32.23   0
       429    729.2978    294.3957 307.6161547  +6.5684106     47628.04     79660.92     83869.69      84.2206     168.2399     336.7147      1.804     4.42     993.6979     59.41055     7106.951        66     1.802     1.116 -30.34   0
       430    400.8863    293.7636 307.7525729  +6.5576988     2043.134     3571.875     3613.487      84.4884     168.5083       337.05      1.903     5.22     1001.146     59.41055     238.6296        26     1.657     1.022 -37.24   0
       431    964.1587    291.4562 307.5187065  +6.5774490     1603.168     2423.809     2015.575     84.35461     168.5753     337.0835      1.525     4.37     987.4577     59.41055     310.8994        13     1.501     0.558 -26.88   0
       432    904.8968    290.6430 307.5433477  +6.5758124     2012.494     3318.279     3138.615      84.4884     168.5083     337.2175      1.686     4.37     989.6933     59.41055     339.4999        19     1.570     0.759 -27.11   0
       433    547.3094    291.3084 307.6918431  +6.5636095     1039.774      1810.52     1619.553      84.4884     169.1104     337.1505      1.817     5.42     994.2118     59.41055      153.126        13     1.472     0.857 -30.71   0
       434    437.9143    290.1907 307.7373147  +6.5604133     951.5538     1709.976     2172.783     84.08639     168.2399     336.8824      2.039     5.58     998.4865     59.41055     134.4086        11     1.440     0.610 -43.07   0
       435    387.9526    289.3577 307.7580926  +6.5590854     1599.285     2962.938     3011.194      84.4884     168.5083     336.9495      1.920     5.31     1001.686     59.41055     216.7302        23     1.620     1.027 -31.60   0
       436    269.1086    288.3661 307.8074832  +6.5555145     625.5168     1148.057     1496.111     84.62198     168.4412       337.05      2.082     5.51     1007.129     59.41055     74.66248         6     1.267     0.675 -38.73   0
       437    808.6580    283.9884 307.5835422  +6.5753547     1071.429     1791.214     1603.092     83.81731     168.5083     336.7483      1.797     6.87     992.0504     59.41055     143.5146        15     1.656     0.800 -40.94   0
       438    164.3177    280.8625 307.8512560  +6.5550994     1826.405     3503.016     3876.586     84.62198     168.5753     337.0165      2.012     5.35     1015.685     59.41055       233.67        22     1.570     1.010 -35.13   0
       439    727.7607    278.9633 307.6173103  +6.5747325     5352.467     9012.406     9602.107      84.2206     168.4412     336.9159      1.756     4.34     992.8802     59.41055     795.2689        35     1.724     1.006 -32.09   0
       440    418.3564    280.6419 307.7457584  +6.5637023     1004.099     1979.388     2311.272      84.2206     168.5753     336.9159      2.054     7.00     999.2784     59.41055     136.9337        15     1.340     1.025 -52.79   0
       441    199.6976    278.7828 307.8366327  +6.5571450     613.5144     842.6177     704.9958     84.35461     168.3741     336.8153      1.548     4.90     1013.364     59.41055     79.13489         7     1.067     0.637 -70.98   0
       442     60.7712    278.1187 307.8943513  +6.5527568     1049.732     1885.479     2072.314     84.35461     168.3741     337.0165      1.874     5.49     1020.557     59.41055     146.3815        13     1.397     0.850 -31.91   0
       443    744.1288    276.8581 307.6105825  +6.5761479     2266.379     3808.378     3642.748     84.62198     168.5753     337.0165      1.673     4.92     992.6791     59.41055     322.4471        21     1.645     0.835 -30.73   0
       444    333.7715    271.9055 307.7811818  +6.5644785     1398.972     2883.207      2928.22     84.62198      168.307     336.9495      2.288     6.04     1003.563     59.41055      210.891        26     1.946     1.000 -20.15   0
       445     47.4150    272.5779 307.9000850  +6.5545963     1105.113     1806.824     1895.858      84.2206     168.3741      336.983      1.797     5.36     1021.117     59.41055     161.0356        15     1.347     0.992 -25.83   0
       446    982.2497    267.9308 307.5119789  +6.5877666     5626.774     8876.369     9095.124     84.35461     168.5083     337.0835      1.619     4.85     985.2481     59.41055      993.476        28     1.638     0.833 -30.83   0
       447    460.6420    267.6265 307.7286336  +6.5704919       1662.1     3117.912     3296.906     84.08639     168.5083     336.8824      1.961     5.51     995.2839     59.41055     226.3987        25     1.679     1.100 -31.28   0
       448    223.1293    263.3477 307.8274212  +6.5643048      4813.79     8721.771     9746.389     84.35461     168.5083       337.05      1.963     4.72     1011.861     59.41055     653.6765        34     1.754     1.045 -38.06   0
       449    787.9442    262.0450 307.5928804  +6.5837264     578.6019     824.8422     1349.248      84.4884     168.5753       337.05      2.185     5.32     991.6555     59.41055     92.98206         8     1.627     0.491 -48.48   0
       450    891.0094    261.6244 307.5500866  +6.5873340     667.3956      1047.99     365.3417     84.08639     168.3741     336.9159      1.333     3.44     988.4275     59.41055      132.989         5     0.791     0.431  19.36   0
       451    743.0954    256.4789 307.6116946  +6.5845296     728.6548     950.5524     714.1494      84.2206     168.8431     337.0835      1.385     5.00     991.7655     59.41055     102.2941         8     1.349     0.524 -32.63   0
       452    357.5632    253.9939 307.7719031  +6.5726721      1343.17     2307.924     2269.942     83.54737      168.307     336.8153      1.909     5.61     1001.686     59.41055     188.8167        16     1.629     0.751 -46.88   0
       453    943.8986    252.8943 307.5284109  +6.5927001     882.4476     1402.642     1679.724      84.4884     169.1772     336.8824      1.701     5.63     985.6679     59.41055     134.1259        10     1.585     0.563 -36.08   0
       454    279.4107    249.9868 307.8044965  +6.5717090     1042.019     2202.587     2248.609      84.2206     168.3071     337.0165      1.932     7.12     1006.048     59.41055     155.5386        15     1.959     0.726 -39.82   0
       455    127.0974    250.0999 307.8677507  +6.5665542     1521.376     2405.064     2210.409      84.4884     169.0436     336.8824      1.687     5.52      1016.72     59.41055     224.3142        16     1.459     0.786 -36.25   0
       456    536.7388    245.4858 307.6977718  +6.5821797     1768.281     3063.941     2995.855     84.62198     168.7092     337.0835      1.854     5.19     991.7555     59.41055     215.1492        20     1.501     0.926 -32.89   0
       457    879.9410    244.5618 307.5552548  +6.5940119     1484.642     3038.882     3078.269      84.4884     168.6423      337.117      2.062     4.94     987.8362     59.41055      257.639        18     1.536     1.166  -7.05   0
       458    700.2546    243.1418 307.6299353  +6.5886083     4534.033     7688.917     8126.726     84.62198     168.6423     337.0835      1.775     4.65     991.3394     59.41055     649.6481        31     1.694     0.980 -28.59   0
       459    641.2849    242.9597 307.6544343  +6.5867153      1768.71     2876.326     3308.172      84.4884     168.5083     337.0165      1.763     4.71     991.1871     59.41055     251.1217        20     1.629     0.886 -33.39   0
       460    938.1874    242.8746 307.5311181  +6.5966480     627.6917     1064.527     1143.568     83.95196     168.2399     336.8489      1.601     3.74     985.2033     59.41055     141.2281         6     1.327     0.303 -24.06   0
       461    896.5876    235.5616 307.5486416  +6.5982832     971.0233     1540.851     1458.369     83.95196     168.3741     336.7483      1.625     4.58     986.5112     59.41055      176.712        12     1.287     0.751 -52.39   0
       462    356.6785    236.5835 307.7728562  +6.5798324     679.2513     1151.147     664.5692     84.08639     168.3071     336.9159      1.756     5.23     1000.877     59.41055     103.9313         8     1.157     0.669 -40.24   0
       463    199.7370    228.4769 307.8383110  +6.5779207     1925.284     3366.851     3385.545     84.75535     168.5753     337.0165      1.895     5.44     1012.666     59.41055     246.2277        24     1.719     0.954 -34.11   0
       464    842.5491    227.3879 307.5713606  +6.5998588     1709.274     2554.379     2756.805     83.81731     168.4412     336.7483      1.678     4.11     988.4751     59.41055     277.2238        18     1.430     0.743 -27.96   0
       465    732.9976    226.8519 307.6168815  +6.5964280     1433.115     2589.659      3058.14     83.81731     168.2399     336.6141      1.963     4.79      990.504     59.41055     248.1683        18     1.542     0.829 -19.31   0
       466    433.6469    218.2458 307.7415051  +6.5899815     18898.65     34384.93     37574.83      84.4884     168.4412     337.0835      1.973     4.79     993.8108     59.41055      2258.14        57     1.884     1.225 -30.81   2
       467    439.7224    212.4443 307.7391767  +6.5925806     1359.052     2410.716     2614.782     84.35461     168.5753       337.05      1.929     6.02     993.1422     59.41055     159.4233        17     1.441     0.899 -26.57   3
       468    759.6469    217.4297 307.6061283  +6.6012079     12151.47     20367.75     22203.13     84.08639     168.6423     336.9495      1.836     4.50     989.9885     59.41055     1747.839        48     1.890     1.039 -28.17   0
       469    699.5689    212.6608 307.6312419  +6.6011734     587.7417     868.3325     1167.524      84.2206     168.6423      336.983      1.536     3.40     990.0725     59.41055      94.2843         5     1.029     0.326 -67.52   0
       470    121.8217    211.5778 307.8712405  +6.5822851     1979.389     3325.245     3330.069      84.2206     168.3741     337.0165      1.824     4.90     1015.809     59.41055     254.1301        22     1.578     0.929 -41.75   0
       471     96.9426    210.5781 307.8816071  +6.5818627     966.5469     1551.043     1368.066     84.08639     168.5083     336.8489      1.663     5.27     1017.161     59.41055     170.2637        12     1.518     0.705 -32.13   0
       472    896.2167    207.6387 307.5497299  +6.6098024     1366.416      2080.87     2538.235     84.08639     168.4412     336.8153      1.591     4.43     984.9094     59.41055     223.8065        12     1.409     0.636 -32.18   0
       473    557.6077    203.9523 307.6904984  +6.6000293     3947.292     7108.759     7493.013     83.95196     168.4412     336.6476      1.907     4.83     989.8192     59.41055     550.6546        30     1.688     1.022 -27.02   0
       474    520.6351    203.9316 307.7058558  +6.5988021     1707.402     2953.161     2737.643     84.35461     168.6423     337.1505      1.859     4.85     990.0813     59.41055     252.8118        21     1.641     0.828 -36.66   0
       475    278.3257    205.0639 307.8064593  +6.5902241     939.8269     1518.258     1685.392     84.62198     168.5753     337.0165      1.845     5.34     1006.933     59.41055     120.5835        11     1.230     0.653 -26.46   0
       476    362.5474    203.2756 307.7715390  +6.5937839      1238.14     2188.949     1668.495      84.4884     168.6423       337.05      1.710     6.05     999.5693     59.41055     168.0291        16     1.645     0.748 -35.53   0
       477    918.4719    201.1000 307.5407045  +6.6132438     2432.946     3811.671     3354.376      84.2206     168.7092     337.0835      1.657     4.64     983.4948     59.41055     399.4549        19     1.528     0.782 -32.41   0
       478    864.6671    200.5939 307.5630704  +6.6116610     10633.85     17070.96      18426.7     83.95196     168.3071     336.8489      1.730     4.63     985.9675     59.41055     1569.034        38     1.715     0.942 -30.52   0
       479    292.4393    201.3748 307.8007216  +6.5922205     883.6197     1450.462     1696.373     84.08639     168.3741     336.8489      1.722     5.53      1005.97     59.41055     119.5004        10     1.340     0.643 -53.66   0
       480    540.6134    200.7571 307.6976644  +6.6007809     760.6618     1062.488     959.0389     83.81731     168.3741     336.7818      1.604     3.83     989.8522     59.41055     116.2133         8     0.979     0.592 -15.14   0
       481    183.9121    201.0966 307.8458060  +6.5886969     673.8653     1183.816     916.5871      84.4884     168.9768     337.0835      1.541     4.91     1012.495     59.41055     108.7055         6     1.286     0.531 -39.76   0
       482    951.3359    198.4720 307.5271416  +6.6154230     9477.596     14711.01     14901.04      84.4884     168.5753     337.0835      1.668     4.37     982.2113     59.41055     1578.793        33     1.624     0.888 -29.02   0
       483    662.9013    198.2169 307.6469565  +6.6059145     2504.086     4135.718     4425.504      84.4884     168.3741     336.8489      1.745     4.69     989.5899     59.41055     353.1942        25     1.684     0.899 -33.13   0
       484    238.1969    198.1384 307.8233594  +6.5917390     829.9344     1098.216     1124.073     83.81731     168.3741     336.7483      1.248     2.87     1010.194     59.41055     156.2991         7     0.760     0.725  25.93   2
       485    235.6877    198.6464 307.8243845  +6.5914451      682.848     1198.688     771.3989      84.4884     168.4412     337.0835      1.699     3.83     1010.349     59.41055     104.2414         5     0.949     0.442  76.16   3
       486    471.4828    193.5200 307.7266210  +6.6014582     1671.594     2697.545      2621.52      84.4884     168.8431      337.117      1.795     5.26     990.6735     59.41055     195.5976        20     1.598     0.827 -24.52   0
       487    803.1980    190.1283 307.5889532  +6.6139348     1865.404      2907.11     2650.276     83.95196     168.1056     336.8824      1.584     4.02       987.83     59.41055      276.306        18     1.456     0.757 -34.02   0
       488    855.3714    189.1906 307.5673132  +6.6160606     1831.772     2978.663     3220.353     84.08639     168.3741     336.8824      1.707     4.67     985.6908     59.41055     268.7963        20     1.590     0.827 -22.39   0
       489    483.5896    189.2942 307.7217344  +6.6036082     2225.466     3779.385     3855.197     84.08639     168.1728     336.8489      1.840     5.02     989.9984     59.41055       278.03        19     1.555     0.752 -32.48   0
       490    714.8873    186.5905 307.6257532  +6.6124508     35441.81     59473.62     62420.64     84.08639     168.2399     336.8824      1.785     4.55     989.0016     59.41055     4855.757        63     1.814     1.108 -29.71   0
       491    318.0028    185.9241 307.7906241  +6.5994576     4926.677     11192.74      12994.1     83.95196     168.0384     336.9495      2.339     6.60     1004.095     59.41055     555.9521        51     2.162     1.338 -58.26   0
       492    948.6188    185.4415 307.5287060  +6.6207139     2588.172     4322.341     4595.538     83.95196     168.3741     336.7818      1.710     4.67     981.6512     59.41055     414.8022        21     1.605     0.795 -30.67   0
       493    986.9250    183.9842 307.5128431  +6.6225904     1575.219     2661.624      2710.99     83.95196      168.307     336.9495      1.582     4.94     980.7516     59.41055     244.1775        16     1.530     0.691 -28.68   0
       494    882.7974    183.7330 307.5561038  +6.6192280     7047.374     11134.26     11425.51     83.81731     168.2399     336.8489      1.653     4.34     984.1796     59.41055     1095.567        30     1.666     0.852 -31.87   0
       495    426.1467    182.7522 307.7458133  +6.6043882     4191.497     7558.115     8484.898      84.4884     168.5753     337.0835      1.955     5.24     992.5361     59.41055     550.9755        36     1.868     1.055 -31.51   0
       496    201.2448    179.7778 307.8393255  +6.5980820     555.7469     1206.931     1050.491     83.95196     168.4412     336.8824      1.965     4.93     1011.422     59.41055     91.49121         7     1.828     0.376 -47.33   0
       497     83.8065    174.0819 307.8882937  +6.5964929     3973.605     6974.373     7616.032     84.08639     168.1056     336.8489      1.864     4.93     1016.656     59.41055     531.2248        30     1.787     0.951 -31.39   0
       498    903.1830    173.1437 307.5479904  +6.6242800     859.5093     1468.432     2382.068     83.95196     168.5083     336.7818      1.898     4.54     982.6466     59.41055     151.6331        10     1.336     0.686 -34.74   0
       499    229.3393    171.8867 307.8279225  +6.6022829     5494.844     9866.583     10390.19     84.62198     168.7092     337.1505      1.911     4.95     1010.512     59.41055     755.3817        36     1.726     1.097 -33.33   0
       500    254.0107    170.7390 307.8177141  +6.6035840     27629.73     51186.48     54789.28     83.81731     168.4412     336.7483      1.947     5.01     1009.366     59.41055     3777.878        61     1.889     1.220 -32.54   0
       501    579.8577    172.7860 307.6823029  +6.6136435     563.5707     1019.124     1250.008     83.81731     168.4412     336.7483      1.616     3.71     988.7526     59.41055     86.37341         5     1.158     0.342 -11.78   0
       502    683.7701    169.9951 307.6392347  +6.6182659     681.1881     1211.261     1396.304     83.95196     168.3741     336.8489      1.904     3.84     988.5694     59.41055      90.6908         5     0.829     0.510  34.10   0
       503    134.1499    167.6002 307.8676029  +6.6008597     3347.242     5993.924     6404.224     83.68245     168.0384     336.5805      1.901     4.50     1013.471     59.41055     457.8197        33     1.734     1.129 -32.38   0
       504    378.0812    166.2409 307.7663327  +6.6095980     41422.12     74774.11     79442.35      84.4884     168.5753      336.983      1.920     4.78       997.23     59.41055     5446.086        66     1.882     1.204 -32.28   0
       505    395.5798    166.7213 307.7590484  +6.6099854     1193.109     2160.203     2163.119     84.08639     168.2399     337.0165      1.845     7.19     994.8552     59.41055     139.6497        18     1.675     0.865 -42.64   0
       506    282.0905    163.9454 307.8062799  +6.6073306     15052.32     27179.22     29612.69     84.35461     168.3741      337.184      1.935     4.93     1008.404     59.41055     2044.552        55     1.879     1.206 -32.21   3
       507    289.5284    163.7914 307.8031958  +6.6076435     1787.736     3549.268     4248.307     83.95196     168.1056     336.9159      2.221     6.89     1008.022     59.41055     255.2515        27     2.007     1.053 -56.73   3
       508    717.2960    162.4729 307.6255611  +6.6224911     29486.24     49240.05     51231.02     84.35461     168.7092     337.0165      1.797     4.34     988.0173     59.41055     4291.347        57     1.779     1.080 -29.46   0
       509    666.1494    164.3600 307.6467428  +6.6200049     704.3443     1377.767     1049.925      84.4884     168.5753     337.0165      1.989     5.10     988.4318     59.41055     123.8655         9     1.323     0.555 -49.39   0
       510    765.5328    163.1129 307.6055033  +6.6238357     1071.239     1660.975     1722.961     84.62198     168.7762     337.0835      1.648     5.07     987.0344     59.41055     181.3739        10     1.383     0.525 -25.63   0
       511     34.1428    159.7205 307.9094052  +6.6007554     7764.872     13716.97     14420.99      84.4884     168.5753       337.05      1.883     5.06     1019.427     59.41055     1054.971        43     1.856     1.083 -32.94   0
       512      5.5571    162.7272 307.9211762  +6.5985532      660.522     818.3599     829.2675     84.35461     168.6423     314.9454      1.434     3.82     1021.372     59.41055      102.713         6     0.941     0.445   1.08  16
       513     68.1462    157.9373 307.8953426  +6.6026340     1289.556     2356.425     2028.437      84.4884     168.5083     337.0165      1.877     4.56      1017.12     59.41055     214.2412        15     1.336     0.779 -33.74   0
       514    975.6867    156.7755 307.5184210  +6.6334531     1033.267     1389.927      1655.08      84.4884     168.3741     336.8824      1.493     5.62     979.9356     59.41055     164.1417        12     1.448     0.615 -26.60   0
       515    551.5617    147.1983 307.6949152  +6.6232649     577.1429     1071.497     1474.757     83.54737      168.307     336.8153      2.933     6.16     988.1541     59.41055     89.13678        10     1.768     0.603 -31.87   0
       516    976.7570    143.0252 307.5184362  +6.6391673     1929.713     2888.591     3312.366     84.08639     168.5753     336.9159      1.530     4.30     979.2072     59.41055     320.8401        18     1.477     0.722 -31.86   0
       517    559.7706    140.5656 307.6917281  +6.6262784     881.3162     1596.276     1823.968     83.95196     168.3071     336.8489      2.241     6.03     987.9921     59.41055     138.0951        10     1.541     0.664 -13.58   0
       518    312.5669    139.1924 307.7944546  +6.6185739     951.4689     1803.623     1521.282     83.95196     168.4412     336.8489      2.014     6.40     1005.165     59.41055      152.813        10     1.259     0.940 -64.21   0
       519    568.1750    138.7074 307.6882996  +6.6273266     1698.598     2853.573     2987.139     84.62198     168.3071     336.8824      1.830     5.21     987.9246     59.41055     235.6262        17     1.432     0.828 -34.65   0
       520    252.9019    137.0489 307.8193091  +6.6174595     25260.09     46455.01     50244.19      84.4884     168.5083      337.251      1.946     4.90     1009.219     59.41055     3468.477        60     1.896     1.207 -30.87   0
       521    162.6443    134.5065 307.8568836  +6.6154822     711.0629     1014.652     969.8198     84.35461     168.5083      337.184      1.690     4.57     1011.491     59.41055     116.7385         6     1.233     0.480 -45.31   0
       522    684.5867    133.6143 307.6401154  +6.6333174      7466.52     12364.81     13430.98     84.35461     168.2399      336.983      1.779     4.31     986.8454     59.41055     1020.901        38     1.689     1.047 -28.56   0
       523     95.3825    130.7195 307.8849484  +6.6147883     4064.014     7207.948     7311.077     84.08639     168.2399     336.9495      1.882     4.97     1014.365     59.41055     572.9011        31     1.704     1.033 -30.65   0
       524    557.3793    128.4624 307.6931278  +6.6311967     732.1178     1137.274     940.1591     84.08639     168.5753     336.9159      1.704     4.71     987.6938     59.41055     95.50629         8     1.200     0.524 -40.85   0
       525    434.7878    127.9843 307.7440653  +6.6272946     1039.128     1975.815      1231.57     84.35461     168.2399      336.983      1.909     6.75     990.8984     59.41055     116.9922        16     1.462     0.875 -32.75   0
       526    366.0617    126.8144 307.7726513  +6.6254773     3198.756     6260.756     6346.587     83.95196     168.5083     336.8489      2.020     4.96     998.2686     59.41055     375.3323        32     1.658     1.217 -42.81   0
       527    623.3961    127.3637 307.6657426  +6.6338559     608.8737     955.6174     980.0269     83.54737     168.4412     336.8489      1.670     5.31     987.3489     59.41055     98.27051         7     1.288     0.618 -51.21   0
       528    330.5198    125.7012 307.7874516  +6.6247466     2634.186     4695.232      5019.97     84.35461     168.9768     337.0835      1.913     4.94     1002.727     59.41055     336.7988        27     1.705     0.949 -33.58   0
       529     85.1226    125.5057 307.8893856  +6.6165969     1567.055     2785.932     2535.167      84.2206     168.7762      337.117      1.846     5.52      1014.78     59.41055      205.699        22     1.720     0.894 -28.75   0
       530    646.7579    123.1948 307.6561784  +6.6363576     765.3526     1355.819     1578.015     83.81731     168.2399     336.7483      2.006     4.04     986.8621     59.41055     124.9554         8     0.985     0.807 -37.61   0
       531    977.3916    119.7178 307.5189518  +6.6488139     1594.826     2454.074     2419.555     84.08639     168.1728     336.8824      1.605     4.66     978.0362     59.41055     249.0265        17     1.416     0.834 -26.10   0
       532    182.3392    114.6485 307.8493725  +6.6243435     4798.253     8492.353     8823.979      84.4884     168.5083      337.117      1.940     4.91     1010.858     59.41055     654.1686        39     1.828     1.139 -35.52   0
       533    644.0230    113.4341 307.6576418  +6.6402972      5344.07     9145.842     9581.605     83.95196      168.307     336.8153      1.821     4.73      986.535     59.41055     743.2861        34     1.718     0.994 -28.97   0
       534     65.6105    114.3778 307.8978654  +6.6205369     1575.802     2794.324     2963.404     84.08639     168.3071     336.9159      1.946     4.61     1015.423     59.41055     235.5044        18     1.640     0.848 -32.48   0
       535    596.2823    110.6983 307.6775645  +6.6398325     8228.763     14199.82     15513.53      84.4884     168.9768     337.1505      1.859     4.54     987.2036     59.41055     1077.263        42     1.791     1.105 -31.61   3
       536    599.8254    102.1705 307.6763790  +6.6434726     46898.96     80374.77     84890.55     83.95196     168.3741     336.9159      1.800     4.49     986.9858     59.41055     6201.481        73     1.830     1.170 -30.24   2
       537    792.4346    112.9818 307.5960081  +6.6454355     1003.763     1341.061     1184.541     83.95196     168.3741     336.8489      1.605     3.46     984.1186     59.41055     169.5068        10     1.040     0.616 -26.53   0
       538    323.5302    106.3334 307.7910067  +6.6325106     3290.328     5847.755     6496.504      84.4884     168.6423       337.05      1.966     4.42      1003.36     59.41055     399.5706        38     1.955     1.116 -36.49   0
       539   1019.7310    106.8942 307.5017926  +6.6555182     848.6204     1250.426     1031.501     84.35461     168.6423     311.8459      1.561     3.45      975.789     59.41055     156.0693         9     0.913     0.809 -47.05  16
       540    505.1948    105.5373 307.7155742  +6.6389196     1461.321     2521.374     2774.639     83.81731      168.307     336.8153      1.890     5.20     987.9432     59.41055     202.8413        19     1.574     0.888 -36.05   0
       541    969.4089    105.3450 307.5227485  +6.6544839     735.5408     1071.635     756.1136     83.81731     168.5083     336.7483      1.719     5.87     977.5743     59.41055     120.4511        10     1.539     0.630  -9.67   0
       542    279.0208     95.7317 307.8098515  +6.6353973     2976.772     5683.058     5891.677     84.08639     168.5083     336.9495      2.000     5.13     1008.113     59.41055      381.621        33     1.753     1.110 -29.94   0
       543    679.3739     90.4811 307.6437273  +6.6509562     922.5884     1334.843      1450.14     84.35461     168.3741     337.0835      1.637     5.73     984.8707     59.41055      119.229        11     1.444     0.640 -43.62   0
       544    650.3344     89.0913 307.6558368  +6.6505608     1214.918     2110.741     2023.198     84.35461     168.7762       337.05      1.843     6.07     985.5633     59.41055      180.729        13     1.404     0.737 -34.27   0
       545    664.2017     86.1946 307.6501735  +6.6522200     2692.406     4661.876     4481.572     83.81731     168.2399     336.8153      1.761     4.13      985.149     59.41055     434.0925        27     1.693     0.912 -29.57   0
       546    406.0420     77.2354 307.7577120  +6.6472901     3602.039     6312.247     6669.264      84.2206     168.5753     336.8824      1.892     4.80     993.3108     59.41055     483.5442        28     1.624     1.006 -28.56   0
       547    860.6166     73.4127 307.5690101  +6.6640488     1975.257     2998.041     2611.365      84.2206     168.2399     336.9495      1.591     4.17     979.2156     59.41055     333.9413        17     1.418     0.764 -32.52   0
       548     15.8184     72.9031 307.9199465  +6.6359909     617.7789      1454.44     3282.547     84.35461     168.4412     336.7818      3.891     6.33     1016.053     59.41055     82.08374         7     1.494     0.752  57.03   0
       549    878.4357     72.5967 307.5616352  +6.6649794     3655.261     5784.413     5703.732     83.54737     168.3741     336.8153      1.663     4.39     978.9002     59.41055     572.9598        24     1.594     0.819 -24.27   0
       550    570.7394     71.0243 307.6895067  +6.6553632      1607.95     2494.267     2069.678     84.08639     168.5083     336.9495      1.638     5.19     986.5213     59.41055     244.3639        19     1.565     0.821 -30.51   0
       551    369.5095     68.9336 307.7731663  +6.6494953     1712.867     2888.949     2837.985     84.62198     168.7092     337.0835      1.782     4.78     997.4628     59.41055     257.3898        20     1.547     0.876 -44.38   0
       552    217.1987     70.0066 307.8363973  +6.6439480     825.8654     1100.538     1711.375     83.81731     168.2399     336.8489      1.984     4.60     1008.886     59.41055     124.2987         9     1.069     0.932   4.98   0
       553    117.3533     66.0583 307.8780034  +6.6422281     2705.105     4714.771       5417.2      84.4884     168.5753      337.184      1.938     4.90     1011.494     59.41055     390.1082        25     1.696     0.959 -37.79   0
       554    266.0316     64.3630 307.8163032  +6.6479159     1242.008     2030.647     2390.758     84.08639     168.3071     336.8153      1.868     4.98     1007.778     59.41055      159.489        16     1.383     0.894 -31.12   0
       555      1.3090     63.0068 307.9263072  +6.6395899     3948.609     4742.419     5659.971     72.70453     133.0796     253.0192      1.042     2.51     1016.069     59.41055     1141.752        11     0.996     0.534 -88.95  24
       556    538.9153     63.6673 307.7029734  +6.6573378     684.8689     1093.697     650.6074     84.75534     168.8431     337.0835      1.607     4.51     986.9749     59.41055     94.47607         6     1.300     0.445  -7.27   0
       557    920.7373     62.1792 307.5444110  +6.6706903      594.753     879.2256     1320.108     84.08639     168.5753     336.9159      1.351     3.30     978.0674     59.41055     114.6785         5     0.921     0.349  42.15   0
       558    800.7520     58.3548 307.5943829  +6.6682723     5715.208     9415.359     9962.144      84.4884     168.4412       337.05      1.772     4.30     980.2889     59.41055     832.7775        33     1.668     1.018 -24.34   0
       559    745.9186     58.7100 307.6171495  +6.6662971     3085.618     5006.962      5478.56      84.2206     168.7762      337.117      1.686     4.58     980.9233     59.41055     456.4238        23     1.576     0.871 -28.39   0
       560    391.0277     59.4830 307.7645458  +6.6541185     869.8817     1542.223     987.5415     84.35461     168.3741      336.983      1.759     5.45     995.2051     59.41055     125.6562        10     1.401     0.598 -41.79   0
       561    508.6980     56.6509 307.7157613  +6.6592251     970.6343     1596.394     1532.889     84.35461     168.5753      337.251      1.734     5.25     987.1681     59.41055     137.7954        12     1.218     0.688 -44.11   0
       562     39.5205     55.6336 307.9106844  +6.6439189     2888.609     4889.151     5371.475     84.35461     168.5753       337.05      1.861     4.79     1014.125     59.41055     389.4097        27     1.700     0.945 -35.00   0
       563     24.2066     57.0053 307.9169990  +6.6428378     914.3036     1512.536     1926.018     83.81731      168.307     336.8824      1.891     5.19     1014.789     59.41055     120.7452        10     1.145     0.664 -26.16   0
       564    400.3111     55.5746 307.7608210  +6.6560433     877.1123     1358.732     1328.802     84.62198     168.3741     336.8824      1.879     6.30     994.2553     59.41055      131.679        11     1.416     0.789 -17.97   0
       565    563.4471     52.3144 307.6931641  +6.6628461     1080.549     1848.763     1029.466      84.4884     168.5083       337.05      1.863     5.96     986.4268     59.41055     167.6569        13     1.526     0.656 -29.83   0
       566     54.7511     47.0612 307.9046474  +6.6479705     659.5803     966.1849     922.4241      84.4884     168.5083      337.117      1.551     4.14     1013.168     59.41055     96.80865         6     1.223     0.401 -55.30   0
       567    740.7979     46.1346 307.6196982  +6.6713196     1762.516     2787.236     3489.609     83.81731     168.1728     336.8153      1.691     3.84     979.9777     59.41055     280.2706        16     1.365     0.777 -38.39   0
       568    381.5438     46.2770 307.7689295  +6.6592546     1145.406     1632.746      2003.16      84.4884     168.5753     337.0165      1.691     4.59     996.2905     59.41055     164.1991        11     1.086     0.732 -42.16   0
       569     79.2497     44.9739 307.8945418  +6.6496554     810.3973     1289.857      1365.29     84.08639     168.6423     336.9495      1.743     5.07     1012.283     59.41055     126.1744         9     1.147     0.633 -29.84   0
       570     67.2672     39.9077 307.8996900  +6.6513450     8264.743     14427.23     15200.69     84.35461     168.7092     337.0835      1.879     4.67     1012.492     59.41055     1228.042        39     1.764     1.088 -32.92   0
       571    396.4188     39.6616 307.7629730  +6.6624845     2193.175     3625.893     3436.213     84.08639     168.5083     336.9159      1.782     4.79     994.8709     59.41055     264.7504        21     1.592     0.828 -33.64   0
       572    218.1926     39.4248 307.8370148  +6.6566103     545.1573     951.7473      570.733     83.95196     168.4412     336.8824      1.457     4.08     1008.109     59.41055     80.99701         5     1.175     0.406 -14.85   0
       573    234.0019     34.0252 307.8306297  +6.6593702     1258.948     2151.342     2812.281     84.08639     168.2399     336.8489      1.958     6.35     1007.776     59.41055     161.3461        17     1.644     0.901 -41.28   0
       574    609.9571     31.9095 307.6745285  +6.6728266     16380.48     27817.78     29113.85      84.4884     168.5753      337.117      1.779     4.45     984.5088     59.41055     2344.753        46     1.772     1.056 -30.24   0
       575    509.7472     27.9965 307.7162881  +6.6710934     4411.903      7910.75      7757.86     83.81731     168.3741     336.6141      1.868     4.84      986.798     59.41055     584.7456        36     1.740     1.098 -28.12   0
       576    228.0164     28.5688 307.8332998  +6.6614228     1560.831     2961.799     4449.831     84.08639      168.307     336.9495      1.976     6.55     1007.777     59.41055     200.3054        17     1.637     0.736 -30.95   1
       577    598.0374     25.6493 307.6796902  +6.6750137     837.0352     1174.171     1976.171      84.2206     168.5083     336.9159      1.366     3.41     984.7408     59.41055     127.4271         5     0.809     0.416 -23.31   2
       578    767.9781   1020.2012 307.5757917  +6.2699561      6772.27     10426.68     10666.51     84.08639     168.2399     305.8484      1.620     4.51     1024.892     59.41055     1065.134        28     1.640     0.833 -28.81  16
       579    865.7175   1017.0326 307.5353266  +6.2745204     1607.202     2466.482     2583.127      84.4884     168.4412     335.2018      1.590     4.95     1019.645     59.41055      255.561        16     1.592     0.703 -22.38  16
       580    188.5417   1015.5781 307.8164579  +6.2525000     2159.475     3305.941     3846.538     84.08639     168.5753     336.8489      1.685     4.56     1032.286     59.41055     363.5814        16     1.513     0.710 -36.94  16
       581    893.0118     23.9443 307.5572084  +6.6855570      1707.16     2887.051     3026.329     83.81731     168.5083     336.7147      1.734     5.24     977.1128     59.41055     296.5017        16     1.522     0.710 -30.46   0
       582    295.8701     24.6288 307.8052466  +6.6653246     877.5139     1652.634     1743.501      84.2206     168.5753      336.983      2.066     5.38     1005.835     59.41055     142.9496        11     1.543     0.530 -28.17   0
       583      2.0952     23.1888 307.9273251  +6.6560591     2042.958     2645.968     2559.878     81.63277     145.4091     266.4137      1.346     3.44     1013.398     59.41055     299.5922        14     1.092     0.813 -52.88  24
       584    529.4461     22.8762 307.7082770  +6.6738666     459.1779     646.0437     455.9176     84.35461     168.6423     337.0835      1.858     4.99     986.7859     59.41055     86.75928         6     1.358     0.519 -50.24   0
       585    691.6669   1012.5891 307.6077226  +6.2705556     7269.048     11446.17     12209.63     83.95196     168.4412     336.8824      1.683     4.86     1025.182     59.41055     1110.085        29     1.641     0.854 -28.15   0
       586    547.8328   1011.7553 307.6674543  +6.2660995     4110.609     6650.048     7451.412     84.08639     168.6423     336.9159      1.687     4.65     1028.983     59.41055     625.0459        26     1.666     0.858 -37.78   0
       587    406.5641   1012.8484 307.7260554  +6.2609267      3874.17     6066.502     7051.841      84.2206     168.5083      336.983      1.687     4.89     1030.414     59.41055     643.8359        21     1.597     0.752 -31.62   0
       588    684.1184   1011.6707 307.6108867  +6.2706831     1040.715     1846.464     2481.668     84.75535     168.9099     337.0835      2.002     4.89     1025.013     59.41055     195.8362        12     1.457     0.578 -31.23   0
       589    276.7885     18.7320 307.8133715  +6.6671201     793.9507     1432.284     1167.046     83.95196     168.3741     336.9159      1.999     6.62     1006.727     59.41055      122.384        11     1.512     0.813 -29.41   0
       590    723.8286   1007.8050 307.5945327  +6.2736038      1399.15     2150.876     2279.386     83.95196     168.3741     336.8489      1.519     4.85     1025.399     59.41055     229.1858        15     1.434     0.699 -27.35   0
       591    931.2075   1002.2171 307.5086367  +6.2828188     6694.893     10853.52     11495.53     84.08639     168.3071     336.8824      1.697     4.38     1017.146     59.41055     1064.724        29     1.618     0.947 -27.84   0
       592    689.7162   1000.8314 307.6089260  +6.2753463     2197.171     4571.677     6221.815      84.4884     168.3741     336.9159      2.464     8.69     1024.701     59.41055     472.9194        30     2.871     0.735 -28.01   0
       593    216.4100   1002.2054 307.8053407  +6.2589563     1308.408      1800.53     1327.642     83.95196     168.3071     336.9159      1.410     3.19     1032.196     59.41055     219.3998        13     1.056     0.830 -54.76   2
       594    213.0111   1003.2661 307.8067158  +6.2584045     459.0432     459.4143     288.1527     83.95196     168.3741     336.9159      0.866     3.49     1032.203     59.41055     102.5365         5     0.769     0.459  19.64   3
