#   1 NUMBER                 Running object number                                     
#   2 X_IMAGE                Object position along x                                    [pixel]
#   3 Y_IMAGE                Object position along y                                    [pixel]
#   4 ALPHA_J2000            Right ascension of barycenter (J2000)                      [deg]
#   5 DELTA_J2000            Declination of barycenter (J2000)                          [deg]
#   6 FLUX_APER              Flux vector within fixed circular aperture(s)              [count]
#   9 FLUXERR_APER           RMS error vector for aperture flux(es)                     [count]
#  12 FLUX_RADIUS            Fraction-of-light radii                                    [pixel]
#  13 FWHM_IMAGE             FWHM assuming a gaussian core                              [pixel]
#  14 BACKGROUND             Background at centroid position                            [count]
#  15 THRESHOLD              Detection threshold above background                       [count]
#  16 FLUX_MAX               Peak flux above background                                 [count]
#  17 ISOAREA_IMAGE          Isophotal area above Analysis threshold                    [pixel**2]
#  18 A_IMAGE                Profile RMS along major axis                               [pixel]
#  19 B_IMAGE                Profile RMS along minor axis                               [pixel]
#  20 THETA_IMAGE            Position angle (CCW/x)                                     [deg]
#  21 FLAGS                  Extraction flags                                          
         1    261.7205     45.1714 307.8299228  +6.6634382     7247.153     14141.62     16278.32     79.39828     158.6074     317.2148      2.110     6.14     863.4559     55.91983     827.0278        49     2.000     1.119  38.64   0
         2    179.2944     27.1528 307.8647768  +6.6681021     8435.712     16171.97     17315.24     79.39828     158.6074     317.3725      2.028     6.38     863.1113     55.91983     1041.108        46     1.991     1.046  36.02   0
         3    709.0744     17.7474 307.6449777  +6.6897865       5709.5     10939.82     11682.32     79.52421     158.7335     317.2463      1.988     6.56     847.1257     55.91983     804.9635        33     1.840     0.931  35.95   0
         4    629.0764     16.9296 307.6782445  +6.6874425     2976.268     5707.179     5849.163     79.77547     158.8596     317.2463      2.016     7.29     848.2537     55.91983     450.2778        29     1.907     0.941  33.14   0
         5    429.4486     13.2321 307.7613131  +6.6822674     4982.468     9367.801     9921.493     79.27216     158.6705     317.1833      2.001     6.14      855.441     55.91983      626.272        35     1.956     0.933  36.32   0
         6     30.3768     12.7353 307.9271341  +6.6690336     6742.325     13015.28     13959.66     79.14582     158.6705     317.1517      2.024     6.15     864.5411     55.91983     871.7007        42     1.969     1.014  35.28  16
         7    676.7235     12.1975 307.6586062  +6.6909939     666.2208     1134.365     1021.571     79.01929     158.1652     317.1201      1.876     5.17     847.3025     55.91983     123.2977         8     1.410     0.536  33.18   0
         8    325.9675      8.0748 307.8044820  +6.6809174     10271.55     19828.07     22066.54     79.39828     158.6705     316.0455      2.046     6.17     861.0591     55.91983     1255.941        51     1.997     1.088  34.25  16
         9    504.7318     10.1972 307.7301359  +6.6860495     793.8082     1343.304     1717.367     78.89256     158.2916     317.0255      2.016     5.10      850.293     55.91983     109.0851        10     1.387     0.531  24.84   0
        10     99.6699      8.2831 307.8984960  +6.6732093     1866.512     3819.191     3583.854     79.77547     158.9225      316.836      2.026     6.29     862.1592     55.91983      268.677        24     1.897     0.844  35.14  16
        11     90.7525      7.1938 307.9022377  +6.6733584     1229.101     2525.679     2596.014     79.01929     158.4812     310.7452      2.111     7.19     862.2682     55.91983     175.9837        21     1.907     0.952  43.58  16
        12    793.8134      6.5844 307.6101432  +6.6972341     637.2242      1002.07     1061.759     79.27216     158.3548     306.2038      1.478     4.53     845.9029     55.91983     107.3544         6     1.352     0.431  25.58  16
        13    392.0782      5.9543 307.7770855  +6.6840163     1808.968     3364.792     2889.095     79.39828     158.7335     300.4638      1.862     6.78     857.6841     55.91983     252.5322        22     1.724     0.869  33.52  16
        14    653.2219      2.1449 307.6687093  +6.6943569     8111.595     13073.25     13854.21     77.22607     137.6673     251.6765      1.731     7.17      847.183     55.91983     1226.793        29     1.722     0.837  22.67  24
        15    818.3578      1.8451 307.6001038  +6.7000127     1270.823     1724.344     1904.097     75.12429     133.8343     246.9809      1.408     4.56     845.3168     55.91983     216.9653        12     1.430     0.620  28.68  24
        16    530.9990      1.7833 307.7195053  +6.6904056     900.4752     1370.698      1374.49     73.91578     132.3305     245.6402      1.610     5.78     849.0907     55.91983      153.645        12     1.585     0.593  19.79  24
        17    254.3100      1.1237 307.8344890  +6.6813758     602.6276     848.7303     719.9376     66.35401     123.0033     235.1507      1.030     3.29     863.0633     55.91983     166.2532         5     1.309     0.240 -10.09  24
        18    640.5475    997.5511 307.6405161  +6.2829108     901.0912      1421.16     1958.453     79.64994     158.5443     317.2463      1.703     3.10     879.6212     55.91983     172.1743         7     0.830     0.646  -3.20   3
        19    956.7263   1022.9352 307.5083948  +6.2830070     4556.775     7345.564     7497.631     77.35554     136.7191     250.6406      1.712     6.19     874.4204     55.91983     568.8938        27     1.750     0.892  18.87  24
        20    716.8898   1021.6420 307.6080121  +6.2755202     2148.006     4377.343     5013.919     79.52421     151.5087     269.6055      2.193     6.19     879.2104     55.91983      268.192        29     1.964     0.921  31.51  24
        21    710.6494   1023.1545 307.6105522  +6.2746868     693.1702      935.853     1428.465     75.25737     133.8343     247.1833      1.505     5.73     879.1973     55.91983     126.6332         9     1.127     0.819  48.17  25
        22    241.2679   1023.2589 307.8054150  +6.2588910     924.6887     1505.638     1459.343     74.05103     132.1034     245.3141      1.606     5.28     884.0964     55.91983     143.0858        10     1.304     0.604  23.37  24
        23    637.7189    995.6953 307.6417528  +6.2835824     808.0887     1349.263      1446.94     79.27216     158.9225      317.341      1.709     3.40     879.6722     55.91983     144.0579         7     0.779     0.668 -79.10   3
        24     64.1596    995.5810 307.8798738  +6.2643568     537.6337     1009.976     1494.465     79.14582     158.4812     316.9623      2.275     5.95      882.351     55.91983     88.18866         7     1.611     0.619  56.14   0
        25    482.7754    994.0024 307.7061376  +6.2790855     1662.337     3176.811     3665.052     79.14582     158.3548      317.057      1.946     6.30     882.7492     55.91983     210.4866        24     1.659     0.966  29.75   0
        26    916.9736    985.9138 307.5261393  +6.2969660     33095.19     65281.28     72956.55     79.64994      158.418     317.1201      2.118     5.58     874.6334     55.91983     3903.905        83     2.120     1.260  34.68   0
        27    224.1834    983.9911 307.8138318  +6.2745302     1505.368     2904.942     2387.871     79.27216      158.418     317.0886      1.974     6.73     883.0109     55.91983     189.4077        20     1.792     0.757  31.92   0
        28    623.7077    982.2067 307.6480230  +6.2886825     699.5345     1290.429     1072.978     79.14582     158.3548      317.057      1.858     5.70     879.8516     55.91983     88.17822        10     1.301     0.704  48.11   0
        29    815.1910    979.6782 307.5686073  +6.2961379      1742.57     3415.651     3745.396     79.14582     158.1652     317.0886      1.998     6.66     876.8066     55.91983     223.0093        26     2.038     0.854  29.21   0
        30    763.2126    977.5436 307.5902596  +6.2952802      5288.15     10369.27     11948.47     78.89256     158.6074     316.9308      2.093     5.82      877.883     55.91983     646.1083        39     2.002     1.014  35.62   0
        31    549.8748    977.1349 307.6788471  +6.2883015     830.7607     1583.489     1601.859     79.64994     158.6705     317.2148      2.047     5.94     881.9666     55.91983       112.78         9     1.340     0.741  35.84   0
        32    232.8382    976.7190 307.8104840  +6.2778241     1183.545     2078.978     1931.699     79.52421     158.7335     317.1833      1.929     6.75     882.9965     55.91983     155.5849        17     1.765     0.725  39.33   0
        33     57.5344    974.6292 307.8833319  +6.2727845     2163.458     4133.249      4104.11     79.27216     158.6705     317.1833      1.882     5.88      882.069     55.91983     310.2781        28     1.818     0.960  38.17   0
        34    951.5054    972.6179 307.5122472  +6.3036100     5229.617     10196.33     11162.13     79.39828     158.4812     317.1201      2.061     5.79     873.6257     55.91983     587.9485        41     1.981     1.061  31.50   0
        35    925.0404    964.2216 307.5235166  +6.3061929     1624.078      3310.96      3298.76     79.14582     158.4812      317.057      2.072     7.14     873.9111     55.91983     219.5032        27     1.897     0.995  30.33   0
        36    784.7708    960.8441 307.5818691  +6.3028972     1132.169     2180.192     2562.664     79.14582     158.7335     317.1517      1.987     5.09     876.8442     55.91983      155.355        16     1.434     0.851  33.95   0
        37    645.8229    960.2103 307.6395800  +6.2985064     3648.211     7004.159      7233.04     79.14582     158.4812     317.0886      2.010     6.06     879.2593     55.91983     480.7516        32     1.854     0.949  35.53   0
        38    258.0739    960.4154 307.8005569  +6.2854049     3431.692     6636.902     7025.737     79.01929      158.418     317.1517      1.980     6.09     883.0846     55.91983     472.6601        31     1.875     0.953  34.46   0
        39    468.3068    958.5535 307.7133371  +6.2932374     847.1008     1592.709     1532.591     79.39828     158.6074     317.3725      2.029     6.30     882.5839     55.91983     145.4829        12     1.609     0.694  47.38   0
        40     26.9421    957.7127 307.8966037  +6.2787383     1660.361     3146.174     2791.372     79.52421     158.6705     317.3725      1.919     6.92     881.8305     55.91983     217.5128        21     1.760     0.798  38.44   0
        41    877.2651    956.8659 307.5435992  +6.3076335     844.0447     1560.166     1543.186     79.52421     158.6705     317.2779      2.044     4.90      874.642     55.91983     123.4027         9     1.128     0.704  33.17   0
        42    969.4856    954.6427 307.5053838  +6.3116331     528.5238     1033.837     729.3435     79.52422     158.5443     317.2463      1.844     4.29     873.0321     55.91983     85.34955         5     0.975     0.537  46.61   0
        43    293.9581    954.4228 307.7858610  +6.2890860     596.2189     1045.771     1368.348     79.14582     158.5443     317.0255      2.056     5.80     883.5381     55.91983     124.7756         8     1.729     0.548  29.41   0
        44    950.3700    954.3707 307.5133297  +6.3111069     560.8492     837.0236     630.1389     79.01929      158.418     316.9939      1.739     4.16      873.259     55.91983     77.66486         5     1.234     0.400  37.11   0
        45    570.6874    952.7980 307.6710242  +6.2990486     1455.121     2624.731     2564.833     78.89256     158.2916     316.9623      1.805     6.88     880.6501     55.91983     197.8192        19     1.791     0.741  37.95   0
        46    608.5318    948.4906 307.6554565  +6.3020960     873.2936     1442.271     1714.714     79.64994     158.7966     317.2463      2.149     4.94     879.7957     55.91983     141.3264        10     1.173     0.741  22.42   2
        47     58.4039    949.0299 307.8838357  +6.2833839     675.2376     1203.423     1379.132     79.01929     158.5443     317.0886      1.975     5.11     881.7197     55.91983     88.99261         6     0.968     0.764 -20.02   0
        48    289.7425    946.5978 307.7878749  +6.2921753     1191.679      2279.49     2939.856     78.89256     158.3548     316.9939      2.374     6.17     883.4406     55.91983     161.3403        20     1.708     1.008  44.31   0
        49    556.1652    944.5916 307.6773295  +6.3019502     508.9009     817.0295     1047.832     79.01929     158.4812      317.057      1.836     5.08     880.6964     55.91983     69.60089         5     1.084     0.674  66.08   0
        50    756.7167    943.0225 307.5941148  +6.3093173     733.3036     1215.504     805.9512     79.39828     158.3548     317.1517      1.577     4.69     876.9632     55.91983     114.5403         9     1.548     0.404  27.48   0
        51    894.1140    939.4832 307.5371860  +6.3153745     5438.448     10497.28      11242.7     79.27216     158.8596     317.3094      2.024     5.82     874.0103     55.91983     665.7633        37     1.885     1.022  33.98   0
        52    430.0464    936.5574 307.7299623  +6.3010355     1676.422     3303.903     3489.151     79.52421     158.6705     317.1833      2.043     6.40     882.4805     55.91983     254.8734        21     1.701     0.873  40.60   0
        53    331.5922    935.0212 307.7708902  +6.2983623     7404.577     14296.57     15339.58     79.01929     158.4812     317.0255      2.019     6.60     883.0013     55.91983     960.0172        43     1.941     1.050  33.39   0
        54    251.7166    933.9434 307.8040888  +6.2961216     5603.466     10795.53     11391.82     79.52421     158.6705      317.341      2.021     6.49     882.4573     55.91983     711.3444        38     1.922     0.992  33.56   0
        55    579.9495    928.5947 307.6679922  +6.3093532     1032.662     1705.957     1465.384     78.89256     158.4812     316.8676      1.802     5.32     879.9017     55.91983     162.3602        11     1.536     0.520  31.45   0
        56    910.2582    924.7957 307.5309749  +6.3219789      890.964     1582.043     2230.155     78.89256     158.5443     317.0255      2.041     6.39     873.2562     55.91983     110.7834        14     1.506     0.761  32.09   0
        57    864.9818    923.0276 307.5498334  +6.3211955      726.096     1295.067     1342.822     79.14582     158.4812     317.1517      1.986     4.82      874.566     55.91983     118.1468         9     1.087     0.714  73.09   0
        58    977.5882    920.0478 307.5031777  +6.3261889     618.6602     1090.878     1643.071     78.89256     158.5443     316.9308      1.978     3.94     872.2863     55.91983      93.0166         5     1.311     0.339  40.72   0
        59    746.1974    917.4816 307.5993394  +6.3195117     1331.288     2367.228      2631.44     78.89256     158.2916     316.9939      1.871     6.41     876.6566     55.91983     166.5727        16     1.667     0.693  36.93   0
        60    531.1183    913.3533 307.6887790  +6.3140090      969.581     2044.944     2360.251     79.52421     158.6705     317.2779      2.207     6.69     880.4556     55.91983     141.7119        15     1.704     0.737  41.32   0
        61    977.3215    913.3238 307.5035136  +6.3289566     1009.035     2175.503     2621.062     79.77547     158.9225      317.341      2.266     6.60     871.9624     55.91983     144.7745        15     1.849     0.662  25.51   0
        62    622.1869    913.8153 307.6509521  +6.3168718     513.3281      858.123     733.0626     79.39828     158.3548     317.1833      1.517     3.52     878.8843     55.91983     91.08264         5     1.050     0.340  46.84   0
        63    609.9647    913.9564 307.6560219  +6.3164039     675.3883     953.0219     996.0779     79.27216     158.6074     317.0886      1.564     6.01     879.0302     55.91983     93.16223        11     1.373     0.741  31.98   0
        64    664.9781    911.1306 307.6332753  +6.3194143     1922.984     3634.654      3885.67     79.14582     158.6074     317.2148      1.949     6.15     878.2787     55.91983     243.0107        24     1.778     0.821  26.99   0
        65     61.2838    907.2419 307.8840518  +6.3007353     2042.133     4377.793     4604.041     79.52422     158.6074     317.1833      2.154     6.22      881.323     55.91983     245.9998        28     1.763     1.092  38.21   0
        66    825.1034    907.1967 307.5669220  +6.3263989     676.5303     1303.324     1140.838     79.27216     158.3548     316.9308      1.873     5.46     874.5786     55.91983     116.4916         9     1.409     0.597  35.23   0
        67    204.7442    906.1463 307.8245281  +6.3060189     1670.096     3210.215     3862.264     79.64994     158.6705     317.2148      2.076     6.74      881.621     55.91983     242.0466        23     1.728     0.894  32.91   0
        68     78.9630    906.4687 307.8767381  +6.3016503     1429.704     2885.106     2922.393     79.39828     158.6705      317.341      2.061     7.06     881.3859     55.91983     185.3517        22     1.808     0.963  23.43   0
        69    343.7033    902.3285 307.7669633  +6.3122686     603.9645     1513.083     1904.009     79.39828     158.7966     317.2148      2.362     6.36     882.4137     55.91983     120.1921        12     1.807     0.628  40.88   0
        70    659.4291    900.1863 307.6359468  +6.3237475     5532.558     10595.06     11653.82     79.14582     158.4812     317.1517      2.012     6.61     878.0338     55.91983     718.0159        38     1.906     1.011  34.25   0
        71    238.9865    903.0117 307.8104171  +6.3084654     716.0693     1385.732     1036.595     79.39828     158.3548     317.1833      1.753     6.64     881.8946     55.91983     121.7883        10     1.534     0.806  25.06   0
        72    795.6754    900.0916 307.5793791  +6.3283483     612.6435     992.5703     187.3011     79.52421     158.8596     317.2463      1.599     5.20     875.0129     55.91983     86.95129         7     1.095     0.697 -86.82   0
        73     19.1014    898.0939 307.9018736  +6.3030907     1010.311     1763.651     1721.995     79.52421      159.237     317.0886      1.913     7.45     881.0624     55.91983     148.3001        17     1.770     0.878  41.93   0
        74    897.1655    896.3879 307.5373630  +6.3332717     2121.634     4105.771     4306.284     79.01929     158.4812     317.0886      1.972     6.21     872.9788     55.91983     286.5322        24     1.880     0.870  29.79   0
        75    448.7830    897.2623 307.7235057  +6.3178901     452.8883     748.8499     568.2997     79.01929     158.6074     317.0886      1.575     4.30     881.3253     55.91983     74.16919         6     1.497     0.353  44.26   0
        76     32.3943    896.7885 307.8963990  +6.3040779     896.4308     1807.978     1904.805     79.14582     158.4812     317.1517      2.055     5.87     881.1166     55.91983     136.4608        12     1.619     0.599  33.30   0
        77    342.3574    893.2639 307.7678275  +6.3159662     13136.06     24636.81      26221.4     79.52422     158.6074     317.2779      1.978     6.65       882.29     55.91983     1695.528        46     1.950     1.017  34.72   0
        78     75.6105    893.8215 307.8785572  +6.3067594     884.6803     1875.081     1851.927     79.14582      158.418     317.0886      2.067     5.48     881.3289     55.91983     156.2158        10     1.345     0.630  71.92   2
        79    213.1165    892.7859 307.8215028  +6.3118173     1044.518     1794.134     1920.422     79.14582      158.418      317.057      1.744     6.83     881.6129     55.91983     166.9927        17     1.717     0.761  38.61   0
        80    105.8863    884.0995 307.8663158  +6.3117937       1203.4     2372.882     2429.716     79.52421     159.1742     317.3094      1.993     7.35     881.4358     55.91983     165.1663        19     1.888     0.802  33.01   0
        81    419.9769    883.8852 307.7359162  +6.3224465     945.7499     1712.458     1099.595     79.52421      158.418     317.1517      1.849     5.71     880.8724     55.91983     144.5125        12     1.458     0.631  27.40   0
        82    452.2025    882.6011 307.7225793  +6.3240588     266.2339     458.7592     92.94743     78.89256     158.2284     316.9623      1.709     4.16     880.8361     55.91983     64.70135         5     1.497     0.330  40.84   0
        83    673.3680    880.2910 307.6308274  +6.3324297     743.8237     1353.599     1984.161     79.64994     158.4812     317.2779      1.890     5.52     877.3688     55.91983     122.5797        10     1.619     0.532  31.17   0
        84    887.4717    878.0283 307.5420033  +6.3405289     1652.291     2937.558     3331.428     79.27216     158.6705     317.1833      1.940     6.91     872.6881     55.91983     219.2886        21     1.783     0.764  28.62   0
        85    858.2382    877.4890 307.5541598  +6.3397742     1667.743     3082.252      3778.88     79.52422     158.6074     317.2779      2.115     5.62     873.1362     55.91983     224.3882        20     1.855     0.722  34.41   0
        86    821.6111    877.1810 307.5693785  +6.3386763     2449.564     4701.994      5255.81     79.14582      158.418     317.1517      2.014     6.10     874.1619     55.91983     309.0224        26     1.778     0.895  35.25   0
        87     89.3657    877.5107 307.8733973  +6.3139577     1887.619     3563.906     3862.881     79.64994     158.6074     317.2463      1.949     6.99     881.3687     55.91983     278.0906        21     1.848     0.742  36.42   0
        88    557.4469    868.4886 307.6793559  +6.3334176     270411.7     502662.8     540769.2     79.52422     158.5443      317.404      1.990     6.35      879.053     55.91983     33624.79       206     2.143     1.321  36.00   0
        89    335.7815    874.5247 307.7711892  +6.3234828     579.9947     877.1227      1297.52     79.01929      158.418     317.1833      1.927     4.54     882.0339     55.91983     99.60266         7     1.270     0.461  40.69   0
        90    401.6590    871.0379 307.7439543  +6.3271361     6015.087     11582.48        11978     79.52421     158.7335     317.2779      1.974     6.63     880.7807     55.91983     780.2474        38     1.911     0.998  34.43   0
        91    645.2381    871.7382 307.6427946  +6.3350188     1053.275     1946.654     1900.299     79.52422     158.7335     317.2463      1.995     6.00     877.3063     55.91983     134.2177        13     1.595     0.635  29.41   0
        92    344.8776    869.4735 307.7675827  +6.3258743     10124.28     19179.15     20321.19     79.77547     158.9225     317.2779      1.984     6.11     881.9393     55.91983     1302.936        42     1.893     1.036  35.60   0
        93    663.3129    865.6463 307.6354942  +6.3381400     2984.343     5747.667     5893.313     79.52422     158.5443     317.2463      1.951     6.39     877.0432     55.91983     408.7125        31     1.837     1.037  37.37   0
        94    895.5690    864.7146 307.5390872  +6.3462971     4202.436     8127.982     8851.093     79.52422     158.4812     317.1201      2.064     5.93     872.2638     55.91983     570.0347        37     1.970     1.155  24.54   0
        95    734.3107    861.6419 307.6061489  +6.3421713     654.2356     1202.045     1183.992     79.52422     158.6074     317.2779      2.212     3.55     875.6094     55.91983     99.17188         5     0.943     0.385  44.01   2
        96    638.1810    859.7728 307.6461268  +6.3397231     2611.173     4933.944     5881.527     79.14582     158.4812     317.1517      2.065     6.06     876.9896     55.91983     358.3014        29     1.891     0.914  30.70   0
        97    826.5004    859.0572 307.5679561  +6.3463237     1256.225     2163.661     2166.808     79.27216     158.6705     317.4671      1.801     6.59      873.675     55.91983     190.8852        17     1.707     0.811  25.48   0
        98    628.1606    858.9203 307.6503161  +6.3397393     830.2722     1770.313      2808.16     79.39828     158.7335     317.2148      2.761     7.22     877.0244     55.91983     108.1401        15     1.750     0.835  28.76   0
        99    953.2787    857.3290 307.5153717  +6.3512753     644.8212     1144.978     699.2676     79.77547     158.9225     317.2148      1.808     3.74     870.6143     55.91983     92.60876         6     0.823     0.518  -6.36   2
       100    630.9760    854.2094 307.6493054  +6.3417790     1830.269     3250.667     3973.634     79.14582     158.4812     317.1201      1.951     6.75     876.8881     55.91983     262.0426        19     1.757     0.727  42.28   1
       101    914.6094    852.2922 307.5315972  +6.3520631      3462.47     5941.842     6756.678     79.14582     158.2916     317.0255      1.888     4.40     871.7313     55.91983     1032.752        30     1.726     1.040  37.75   0
       102    324.6281    853.3521 307.7765335  +6.3318504     879.2576     1406.995     1390.591     79.14582     158.6705     317.1833      1.756     5.21     881.6332     55.91983     117.6975        10     1.287     0.597  35.64   0
       103    372.7156    848.4230 307.7567334  +6.3355018     2045.929     3838.096     3671.326     79.39828      158.418     317.1517      1.931     6.75     880.9866     55.91983      282.443        25     1.912     0.859  31.15   0
       104    509.1724    838.2272 307.7004179  +6.3442937     2474.463     4764.294     4967.841     79.01929     158.4812     317.0886      2.023     6.00     878.8034     55.91983     345.5398        27     1.895     0.863  33.72   0
       105    853.4247    837.5177 307.5574984  +6.3561184     795.6729     1297.086     1533.999     79.27216      158.418     317.2148      1.780     7.01     872.5851     55.91983     142.7315        12     1.431     0.963  16.40   0
       106    573.2720    835.8874 307.6738811  +6.3474100     682.9614     1210.805      1423.96     79.64994     158.9225     317.2463      1.706     2.99     877.6279     55.91983     117.2602         5     0.716     0.479 -76.75   2
       107    563.0652    833.7883 307.6781898  +6.3479345     1053.534     2205.739     2991.016     79.01929     158.4812     317.1201      2.593     8.01     877.8053     55.91983     150.9738        17     1.758     1.020  21.96   3
       108    557.6380    835.3161 307.6803919  +6.3471216     3686.712     4744.619     5930.149     79.52422     158.6074     317.1833      1.324     3.43     877.9562     55.91983     597.0989        14     0.938     0.859  25.52   3
       109    554.7014    833.3478 307.6816774  +6.3478358     4105.441     5328.414     6265.201     79.39828     158.6705     317.4671      1.373     2.87     877.9583     55.91983     606.9526        16     1.029     0.868  58.89   3
       110    473.3986    833.1801 307.7154417  +6.3451771     1217.159     2484.126     2654.987     79.14582     158.2916     316.9623      2.059     7.58     879.0435     55.91983     159.3625        20     1.929     0.835  36.57   0
       111    115.1592    832.5238 307.8642075  +6.3334019     1139.523     2134.853     2180.198     79.39828     158.6705     317.2779      1.801     6.87     880.9612     55.91983     164.0455        18     1.740     0.759  31.51   0
       112    891.5858    832.3177 307.5418268  +6.3595416     1067.694     1924.271     2083.262     79.14582      158.418      317.057      1.865     6.94     871.6527     55.91983     144.1274        18     1.630     0.827  30.00   0
       113    526.5413    828.1826 307.6935438  +6.3490240     15767.62     29602.38     31630.34     79.14582     158.5443     317.0255      1.975     6.67     878.2066     55.91983     2083.565        49     1.886     1.069  33.06   0
       114    367.8708    830.2321 307.7593578  +6.3428503     593.4529     911.6536     933.3488     79.39828     158.6705     317.2148      1.677     5.04     880.6852     55.91983      83.4635         6     1.390     0.517  45.74   0
       115    940.2006    826.6057 307.5218313  +6.3635249      2830.13     5343.017     5491.995     78.89256     158.3548      317.057      2.003     7.23     870.2386     55.91983     375.8654        25     1.928     0.791  30.58   0
       116     36.8767    818.5423 307.8971824  +6.3365370     1270.622     2455.105     2458.195     79.64994     158.6705     317.1833      2.044     7.48     879.6694     55.91983     162.7101        21     1.909     0.821  39.50   0
       117    319.0971    816.8405 307.7800606  +6.3467405     2753.411     5107.103     5533.281     79.52421     158.5443     317.4671      1.951     6.33     880.9423     55.91983      345.905        25     1.819     0.810  33.09   0
       118    784.7217    812.7485 307.5868573  +6.3640480      43607.4     82190.52     88661.82     79.52422     158.7335     317.2463      2.000     6.70     873.4818     55.91983     5849.449        80     2.037     1.118  35.42   0
       119     19.1751    815.0472 307.9046501  +6.3373833     1813.393     3317.791     3488.373     79.14582     158.6705     317.1201      1.897     6.02     879.2532     55.91983     232.7944        21     1.672     0.813  38.35   0
       120    427.9547    811.1677 307.7350519  +6.3527406     674.7903     1425.149     1746.261     79.27216     158.6705     317.0886      1.977     6.16     879.2783     55.91983     101.1603        10     1.570     0.679  28.08   0
       121    241.4535    789.0744 307.8132357  +6.3555942     749548.4      1870961      2155064     79.39828     158.6705     317.2148      2.481     9.43     880.6749     55.91983     63043.21       684     2.887     2.246  55.20   4
       122    707.9059    804.5140 307.6190307  +6.3648766     62468.49       127191     169779.4     79.52421     159.1113     317.3094      2.700    11.17     874.7008     55.91983      9384.42       152     3.513     1.216  30.84   0
       123    351.6153    804.6915 307.7669678  +6.3528501     16094.93     30392.65     32840.88     79.27216     158.4812     317.1201      1.988     6.50     880.3222     55.91983     2054.271        55     1.978     1.077  34.59   0
       124    401.4492    805.3884 307.7462522  +6.3542367     1103.681     1677.159     1657.259     78.89256     158.6074     316.9308      1.699     6.07     879.6694     55.91983     148.0043        12     1.475     0.703  46.00   2
       125    399.0000    804.0886 307.7473130  +6.3546912     588.4907      821.674     879.5388     78.76562     158.1652     316.8992      1.358     3.63     879.6797     55.91983     152.8818         5     1.115     0.340  68.73   3
       126    413.4255    802.5186 307.7413760  +6.3558240     17953.33      33382.7     35578.44     79.27216      158.418     317.2463      1.968     6.26     879.4824     55.91983     2316.104        57     1.938     1.097  32.53   0
       127    950.4359    801.5736 307.5184196  +6.3742034     1506.585     3208.268     3152.958     79.01929     158.4812     317.0255      2.134     7.00     869.1068     55.91983     215.1663        25     1.869     1.000  26.17   0
       128    906.9576    799.5090 307.5365432  +6.3736030     5305.931      10091.8     10867.37     79.52421     158.6705      317.341      2.001     6.22     870.4919     55.91983     681.6101        34     1.942     0.909  33.90   0
       129    647.5903    798.4525 307.6442798  +6.3653590     5115.642     9484.793     10169.44     78.89256     158.5443     316.9939      1.964     6.75     875.1111     55.91983     670.0108        34     1.889     0.912  34.90   0
       130    436.0636    796.3678 307.7321832  +6.3591240     1477.876     2750.397      2711.85     79.27215     158.7335     317.2148      1.832     6.66     878.7472     55.91983     227.5153        18     1.865     0.667  30.55   0
       131    876.9830    790.9830 307.5492759  +6.3761216     428.0676     910.1556     1445.981     79.27216     158.3548     317.1833      1.677     3.97     871.2451     55.91983     97.67188         5     2.127     0.212  50.49   2
       132    600.3887    790.2185 307.6641565  +6.3671768     739.8443      1219.26      1483.62     79.14582     158.3548     317.1517      2.032     6.31      875.959     55.91983     131.9658        11     1.805     0.619  41.56   0
       133    152.1367    789.4921 307.8503073  +6.3524154     732.6324     1501.241     1246.942     79.52421     158.8596     317.3094      2.207     7.09     880.4973     55.91983     92.23309        15     1.860     0.758  36.68   0
       134    682.5222    788.6136 307.6301051  +6.3705920     1853.578     3592.828      3388.74     79.14582     158.3548      317.057      1.975     7.01     874.1425     55.91983     261.5671        22     1.791     0.823  34.44   0
       135    126.8419    789.2724 307.8608174  +6.3516542     923.7317     1492.062     1224.533     79.39828     158.6705     317.2779      1.766     6.50     880.3203     55.91983     128.4117        14     1.443     0.823  37.26   0
       136    416.3800    785.1873 307.7407328  +6.3630796     42999.18     81047.38      86952.3     79.27216     158.3548     317.1517      1.981     6.62     878.8647     55.91983     5641.578        75     1.978     1.155  33.61   0
       137    959.5681    786.8242 307.5151214  +6.3805989       486.23     980.9269     811.6074     78.89256     158.4812      317.057      2.393     4.95     868.4906     55.91983     79.95984         7     1.789     0.388  18.42   0
       138    534.1332    784.1984 307.6918708  +6.3674407     5624.392     10768.61     11735.96     78.89256     158.2916     317.0255      1.995     6.65     876.4789     55.91983     727.5151        36     1.823     0.994  35.57   0
       139    450.9796    782.8663 307.7264441  +6.3651999     3576.212     6826.395     7780.379     79.14582     158.6705     317.1517      1.978     6.47     878.0637     55.91983     462.7723        29     1.850     0.878  34.82   0
       140    779.3094    780.9052 307.5901731  +6.3770157      9438.54     17414.52     18340.69     79.52421     159.1742     317.2463      1.945     6.58     872.6942     55.91983     1327.203        43     1.896     1.003  33.87   0
       141      8.9614    777.1871 307.9101707  +6.3526714     1005.824     1754.087     1743.125     79.01929     158.4812     316.9623      1.881     6.87     878.7476     55.91983      136.439        16     1.504     0.879  42.00  16
       142    447.5204    776.2731 307.7281024  +6.3678062     2010.031      3665.59     4426.436     79.77547     158.9225     317.2463      2.153     5.36     877.9581     55.91983     279.6771        24     1.760     0.983  32.19   1
       143    800.9352    775.0982 307.5813877  +6.3801373     930.5818     1868.181     1547.639     79.52421     158.7335     317.2779      1.906     6.34      871.816     55.91983     164.0096        15     1.809     0.625  30.64   0
       144    137.0981    772.7457 307.8571170  +6.3588236     8980.112        17344     18764.27     79.39828     158.6705     317.4671      2.036     7.03     880.0546     55.91983     1220.195        46     1.917     1.090  34.02   3
       145    129.4949    770.2977 307.8603566  +6.3595783     2268.422     4596.753     5360.763     79.52422     159.2371     317.0886      2.143     6.41     879.9262     55.91983     328.6514        28     1.908     0.940  31.08   3
       146    145.3760    773.0414 307.8536699  +6.3589803     2569.888     5042.173     4856.858     79.14582     158.4812     317.0255      1.980     6.16     880.1186     55.91983     331.4691        25     1.774     0.890  36.54   0
       147    924.8376    769.5343 307.5301227  +6.3865779     4985.404     9513.364     10572.23     79.39828     158.6074     317.3094      1.992     6.71     869.1089     55.91983     673.1404        36     1.930     0.944  35.65   0
       148    973.7749    769.3320 307.5098077  +6.3882965     1106.908     2023.772     2245.082     79.14582     158.5443     317.1517      2.034     6.50      867.776     55.91983     164.2415        15     1.562     0.759  29.62   0
       149    909.9388    808.0185 307.5350201  +6.3701888      6447.38     12576.82     14140.81     79.14582     158.6074     317.1201      2.072     6.80     870.6044     55.91983        837.2        40     2.005     0.948  35.90   0
       150    680.4271    767.1046 307.6316975  +6.3794034     1223.861     2364.375      2776.25     79.64994      158.418     317.1517      2.121     6.18     873.2897     55.91983     219.0681        15     1.769     0.606  34.22   0
       151    567.3132    766.2541 307.6786965  +6.3759631     1938.693     3783.553     3669.686     79.52422     158.5443      317.404      1.981     6.39     875.4196     55.91983     286.4357        24     1.789     0.912  33.53   0
       152    415.4289    766.1893 307.7417675  +6.3708922     809.0203     1870.495     1635.433     79.01929     158.4812     317.0886      2.224     7.77     878.2222     55.91983     122.6404        18     1.925     0.877  35.09   0
       153    699.0530    765.3511 307.6240219  +6.3807514     530.8534     1049.919      1169.66     79.64994     158.6074     317.2463      2.160     4.84     873.3126     55.91983      78.5376         6     1.385     0.480  24.94   0
       154    129.4778    763.7830 307.8605837  +6.3622677     1524.032     2977.229     3994.387     79.01929      158.418     317.1201      2.319     6.37     879.7973     55.91983     200.9354        19     1.680     0.790  28.68   0
       155    918.9822    761.6586 307.5328181  +6.3896344     2279.352     4642.862     5190.673     79.14582     158.5443     316.9939      2.126     6.67     869.0802     55.91983     294.5732        27     1.881     0.929  37.78   0
       156    948.5616    760.9656 307.5205580  +6.3909089     2410.141     4444.046       4205.7     79.27216     158.4812     317.0255      1.918     5.96     868.2682     55.91983     344.5957        25     1.752     0.879  36.67   0
       157    979.4064    760.7595 307.5077562  +6.3920244     1471.808     2637.549     2180.836     78.89256     158.3548     316.9308      1.877     6.22     867.5163     55.91983     215.8605        23     1.776     0.857  29.41   0
       158    671.3984    760.6132 307.6356647  +6.3817814     1130.282     2184.379     2403.324     79.14582     158.3548     317.0255      2.321     6.87     873.0809     55.91983      194.612        17     1.909     0.693  38.30   0
       159    817.5336    758.1998 307.5750620  +6.3876704      680.947     1430.463     1267.532     78.76562     158.1652     316.9623      2.181     3.56     871.0538     55.91983     110.4346         5     0.773     0.710  43.54   2
       160    894.0161    756.7836 307.5433491  +6.3908129     584.2083     972.8688     1213.147     79.27216     158.3548     317.1833      1.875     5.66     869.6441     55.91983     116.2059         6     1.530     0.589  29.61   0
       161    245.0087    756.7502 307.8128498  +6.3690608     1065.063     1642.798     2893.562     79.01929     158.5443     316.9308      2.087     4.14     879.8014     55.91983     154.0423         9     0.991     0.765  -2.32   2
       162    242.5475    754.5511 307.8139459  +6.3698860     1170.111     1584.068     2643.667     79.64994     158.5443     317.2463      1.524     3.15     879.7468     55.91983     196.4611         7     0.805     0.645  27.19   3
       163    936.7223    750.8918 307.5258120  +6.3946731     838.7714     1470.035     1182.208     79.27216     158.9225     317.2779      1.828     5.71     868.3387     55.91983     141.8378        11     1.583     0.650  38.78   0
       164    680.0576    752.0649 307.6323560  +6.3856013     754.0982     1268.125     2012.528     79.64994     158.6074     317.2779      1.761     3.92     872.7118     55.91983     116.3594         6     0.865     0.696  43.28   0
       165    910.8444    750.0547 307.5365863  +6.3941540     879.4275     1589.315     1732.192     79.52421     158.6705     317.2779      1.957     6.34     868.9799     55.91983     144.2368        14     1.636     0.691  29.25   0
       166    264.5769    750.7661 307.8049263  +6.3721900     534.8815      1098.04     1104.074     79.01929      158.418     317.0255      2.201     4.49     879.6376     55.91983     78.54608         5     1.209     0.475  30.96   0
       167    963.4156    748.6652 307.5148017  +6.3964844       2063.4     3845.126     4139.938     79.01929     158.5443     317.1517      1.926     5.86     867.6935     55.91983     280.8364        25     1.888     0.934  33.98   0
       168    683.0346    748.2852 307.6312468  +6.3872617     743.5087     1491.095     2114.454     79.52421     158.5443     317.2148      2.117     5.51     872.5809     55.91983     115.9959        10     1.579     0.542  26.67   0
       169   1005.3019    742.1243 307.4976265  +6.4005843      1289.46     2639.842     2961.896     79.14582     158.8596     317.2463      2.050     6.33     866.6447     55.91983     167.5517        19     1.729     0.869  31.88   0
       170    403.9184    742.9207 307.7473307  +6.3801135     541.4639     926.9252      802.539     79.64994     158.9225     317.4355      1.883     5.98     877.6013     55.91983     94.01166         7     1.349     0.746  46.75   0
       171    805.4856    739.9858 307.5806760  +6.3947883     874.8366     1762.358     1669.083     79.14582      158.418     317.1201      2.193     5.35     870.6192     55.91983     130.5728         9     1.180     0.686  65.26   2
       172    631.1994    741.5208 307.6529990  +6.3883180     549.1289      1205.91     994.6104     78.76562     158.0386     316.9939      2.141     6.50     873.7324     55.91983     121.1959         9     1.934     0.613  37.55   0
       173    893.0644    737.9125 307.5443768  +6.3985735     1139.029     2179.436     2592.058     79.52421     158.8596     317.2779      2.235     5.69     869.0927     55.91983     167.1691        17     1.698     0.810  36.89   0
       174    867.5735    733.4902 307.5551106  +6.3995473     722.9009     1305.766     1965.425     79.64994      158.418     317.0886      1.976     5.83     869.5959     55.91983     115.4918        10     1.725     0.555  28.46   0
       175    849.6276    729.3451 307.5627020  +6.4006588     1221.776     2269.007      2560.09     79.14582     158.7335     317.0886      1.991     7.44     869.7926     55.91983     179.4072        20     1.775     0.908  29.59   0
       176     48.8073    728.0913 307.8952857  +6.3742866     1900.745     3685.697     4261.136     79.14582     158.3548     317.0255      2.073     6.93      878.832     55.91983     283.9828        25     1.793     0.899  33.55   0
       177    113.3313    728.3560 307.8684846  +6.3763518     745.3264     1686.307      2396.27     79.52422     158.6074     317.2779      2.649     7.42     878.8573     55.91983     131.0402        10     1.391     1.109  36.74   0
       178    566.0790    722.8276 307.6806693  +6.3938534     587.9328     900.9963     629.4138     79.39828     158.6074     317.2463      1.753     4.93     873.9925     55.91983     91.14166         7     1.607     0.428  37.09   0
       179    661.4622    716.7554 307.6412641  +6.3995583     5247.148     9524.056     10556.57     79.52422     158.6074      317.341      1.928     6.47     871.8615     55.91983     691.3945        33     1.839     0.926  36.24   0
       180    607.8532    716.0132 307.6635511  +6.3980680     1129.724     2210.168     2365.055     78.89256     158.6074     316.9939      1.940     6.96     873.6083     55.91983     209.4144        16     1.777     0.789  17.05   0
       181    519.2706    716.5595 307.7003177  +6.3948713      698.197     1121.851     1416.489     79.39828     158.6705     317.3094      1.756     4.84     874.7338     55.91983     108.0602         9     1.504     0.442  41.52   0
       182    998.5623    712.0928 307.5014308  +6.4127601     1951.987     3739.006     4007.209     79.64994     158.6074     317.3094      1.955     6.15     866.2428     55.91983     245.9794        24     1.803     0.872  34.67   0
       183    635.3081    712.5475 307.6522664  +6.4004194     1660.195     3150.759     3703.602     79.39828     158.5443     317.4355      2.145     7.35      872.615     55.91983     241.1611        22     1.845     0.819  36.66   0
       184    124.4609    712.5019 307.8643987  +6.3832729     3024.535     5665.842     6244.633     79.27216     158.6705     317.3725      1.986     5.74     878.5347     55.91983     386.9478        29     1.864     0.878  35.18   0
       185    311.1518    712.5449 307.7868753  +6.3895384     530.5119     715.7465     687.0375     79.52421     158.6705      317.341      1.743     5.43     878.2615     55.91983     78.46552         8     1.572     0.529  28.08   0
       186    246.6248    712.0059 307.8136881  +6.3875905      521.096     660.3198      1048.49     79.01929      158.418     317.0886      1.597     5.14     878.4051     55.91983     108.2621         7     1.644     0.455  38.30   0
       187    778.3569    708.8984 307.5929848  +6.4067173     15956.73     29896.98     32284.19     79.52421     158.5443     317.4671      1.977     6.78     870.6163     55.91983     2276.133        57     1.974     1.055  34.53   0
       188    506.0419    709.6714 307.7060429  +6.3972716     663.8916      1096.22     1237.854     79.39828     158.6705     317.3094      1.877     7.23     874.8785     55.91983     127.1918         9     1.477     0.992  35.25   0
       189    908.3508    708.7188 307.5390071  +6.4111393     3118.828     5438.814     5975.582     79.52422     158.6705     317.2779      1.920     6.47     868.3776     55.91983     418.4485        23     1.729     0.805  34.46   0
       190    477.3465    709.2437 307.7179734  +6.3964851      976.041     1783.612     1784.083     79.52422     158.6705     317.2463      2.001     6.80     875.5903     55.91983      193.559        13     1.581     0.821  28.59   0
       191    323.0792    708.5398 307.7820574  +6.3915931     569.0495     1128.844     759.9467     79.64994     158.6705     317.2148      1.634     5.36     878.0115     55.91983     133.5589         8     1.591     0.510  28.84   0
       192    251.8188    702.3030 307.8118586  +6.3917717     4810.779     9149.619     10030.07     79.39828     158.5443     316.9939      2.006     6.89     878.0822     55.91983     605.0851        35     1.858     1.015  37.58   0
       193    658.8395    701.6484 307.6428608  +6.4057085     5528.848     10516.82      11723.6     79.39828     158.7335     317.0886      2.017     6.38     871.4503     55.91983     802.9191        36     1.897     0.962  29.88   0
       194    641.2131    702.6649 307.6501464  +6.4046980     842.1683      1645.83     2322.247     79.01929     158.4812     317.1517      2.151     5.88     872.0778     55.91983     126.7905        12     1.596     0.611  38.88   0
       195    355.5712    702.5668 307.7687663  +6.3951517     500.1073     911.9998     934.1113     79.01929      158.418     317.0255      1.984     4.59     877.4711     55.91983     87.46222         5     1.041     0.696  27.13   0
       196    918.7767    694.4017 307.5351572  +6.4173997     997.7321     1822.429     2222.337     79.14582     158.3548     317.0255      1.952     6.36     868.0278     55.91983     132.9916        15     1.688     0.674  34.45   0
       197    730.5316    690.2157 307.6134727  +6.4128307     3049.366     5778.185     6423.779     79.01929     158.6074     317.1517      1.952     6.62     870.5574     55.91983     385.1933        27     1.826     0.893  39.02   0
       198    684.5446    689.5964 307.6325910  +6.4115462     791.2827     1514.132       2089.8     78.89256     158.4812     316.9308      2.631     2.91     870.6053     55.91983     144.3706         8     0.871     0.686  46.00   2
       199    996.8817    686.7186 307.5029784  +6.4231817     7063.709     13291.11      13902.5     79.52421     158.9225      317.341      1.956     6.29     865.8309     55.91983     946.6609        37     1.874     0.985  33.87   0
       200    935.3540    687.0723 307.5285184  +6.4209803     2021.557     3765.134     4042.507     79.39828     158.7335     317.2463      1.946     6.22     867.6383     55.91983      266.399        23     1.795     0.798  30.57   0
       201     15.4639    685.7880 307.9105609  +6.3906295     1423.304     2791.209     3876.772     79.01929     158.4812      317.057      2.487     3.87     878.8585     55.91983     258.9731        18     1.299     0.986  44.06   2
       202     74.2309    681.3734 307.8863078  +6.3944335     19935.77     38387.52     41174.67     79.01929      158.418     317.0886      2.009     6.43     878.2425     55.91983     2407.922        57     1.958     1.118  35.08   0
       203    537.2889    683.6526 307.6939423  +6.4090637     1237.707     1687.554     1892.321     79.52422     158.4812     317.3725      1.331     3.31     873.3718     55.91983     212.4656         7     0.818     0.653  29.71   3
       204    534.5474    681.7642 307.6951444  +6.4097515     1614.102     2407.659     2996.301     79.39828     158.6705     317.2779      1.715     3.43     873.3571     55.91983     229.1752        14     1.091     0.838  44.40   2
       205    924.7598    678.7090 307.5331983  +6.4240796     910.8579     1603.109     2005.031     79.52422     158.6074     317.2779      1.909     7.19     867.8076     55.91983     125.1971        17     1.664     0.870  53.37   0
       206    504.1897    679.7205 307.7078198  +6.4095767     1154.952      2043.44     2032.737     79.14582      158.418     317.1201      1.808     6.39     873.8133     55.91983     177.3281        16     1.574     0.728  33.32   0
       207    544.5339    675.9448 307.6911930  +6.4124895     823.8977      1493.43     1596.386     79.64994     158.6074     317.2463      2.180     6.80      873.058     55.91983      129.584        15     1.773     0.730  34.48   0
       208    720.2357    673.7570 307.6183010  +6.4192821     2946.317     5573.414     5823.463     79.27216     158.6705      317.057      1.947     6.41     869.9088     55.91983     420.0475        26     1.774     0.911  34.15   0
       209    742.2059    671.9879 307.6092365  +6.4207484     3415.548     6249.322     6622.632     79.14582     158.4812     317.1517      1.915     5.95     869.7617     55.91983     454.5378        27     1.824     0.840  33.00   0
       210    573.7769    669.8348 307.6792545  +6.4159934     2611.305     4855.213     5178.434     79.01929      158.418     317.0255      1.965     6.85     872.4677     55.91983     360.0165        23     1.795     0.786  35.26   0
       211    409.5890    670.3948 307.7474187  +6.4102510     1181.938     2047.821     1742.049     79.14582      158.418     317.1517      1.827     6.81     875.5121     55.91983     158.8785        17     1.627     0.800  40.57   0
       212    234.6066    669.5048 307.8201125  +6.4047353      1252.04     2490.186     2438.169     79.27216     158.3548      317.057      2.018     6.38     876.9111     55.91983      234.704        18     2.104     0.746  33.32   0
       213   1015.2791    668.1995 307.4959580  +6.4314432     3851.046     7491.048     7620.403     78.76562     158.0386     316.9939      1.986     6.12     864.6684     55.91983      483.875        35     1.896     0.991  35.01  16
       214    317.7030    668.6906 307.7856333  +6.4078666     1136.478     2266.333     2152.387     79.52422     159.1113     317.2463      1.944     6.61     876.9588     55.91983     164.6602        16     1.821     0.672  35.79   0
       215    980.5493    667.0988 307.5104181  +6.4307378     6584.868     12189.34     12576.87     79.52421     158.6705     317.4355      1.933     6.56     865.7552     55.91983     862.9767        38     1.872     0.991  33.23   0
       216    535.1213    668.1662 307.6953635  +6.4153857     427.4214      584.464     593.1066     79.39828     158.6705     317.2463      1.578     3.82     872.9777     55.91983      76.5127         5     1.313     0.319  30.48   0
       217    701.9755    667.0000 307.6261111  +6.4214607     550.7839       815.95     437.1154     79.01929     158.2916     317.0255      1.567     3.66     869.8835     55.91983     114.0885         5     1.005     0.384  -0.24   3
       218    698.8320    665.0944 307.6274806  +6.4221423     708.9572     1002.091     803.1404     79.64994     158.4812      317.341      1.393     4.94      869.876     55.91983     136.8138         7     1.071     0.644 -86.23   2
       219    425.8731    661.3713 307.7409603  +6.4145240     2242.407     4229.139     4752.131     79.39828     158.6705     317.2148      1.964     5.89     874.8988     55.91983     297.0244        27     1.786     0.970  37.17   0
       220     92.2047    663.7901 307.8794383  +6.4022995     689.0716     1519.295     1723.119     79.01929      158.418     317.1201      2.166     5.53     877.8636     55.91983     126.6955        10     1.870     0.462  28.53   0
       221    138.9706    660.3244 307.8601358  +6.4053061     18717.24     35857.75     38250.54     79.39828     158.7335     317.2779      2.014     6.40     877.1815     55.91983     2351.558        60     2.000     1.098  35.64   0
       222    807.3608    661.2559 307.5825385  +6.4273607     979.3464     1974.474     2048.574     79.52422     158.7335     317.2148      2.011     5.87     869.3433     55.91983     150.3253        14     1.785     0.543  35.42   0
       223    357.5310    654.1983 307.7695824  +6.4151896     539.6629     973.9965     914.3187     79.01929     158.2284     317.0886      1.770     5.20     875.8885     55.91983     83.37738         7     1.428     0.534 -56.29   0
       224    975.3911    650.1301 307.5131287  +6.4375724     5619.143     10643.95     11713.88     79.01929     158.2916     317.1201      2.057     6.50     865.0955     55.91983     771.9618        44     2.042     1.051  36.88   0
       225    569.0065    645.2757 307.6820615  +6.4259743     37291.98     71324.08     77007.14     79.14582     158.1652     317.0886      1.991     6.45     871.6926     55.91983     4867.634        78     2.003     1.150  35.78   0
       226     19.9408    648.8857 307.9099496  +6.4060175     951.2568     1634.889     1265.123     79.52421     158.6705      317.341      1.831     6.30      878.796     55.91983     117.2435        15     1.570     0.710  29.34   0
       227    934.7198    647.0485 307.5301228  +6.4374860     582.7972     807.0789     853.1681     79.52421     158.7335     317.2148      1.624     5.05     866.6379     55.91983     86.32184         7     1.221     0.591  68.53   0
       228    793.8651    645.2906 307.5886789  +6.4335015     508.9024     819.0333     766.5475     79.39828     158.8596     317.2779      1.951     5.03     869.1777     55.91983     94.22681         6     1.448     0.495  27.45   0
       229    176.4817    641.8157 307.8451839  +6.4142118     2180.977       4219.6     4116.308     79.14582     158.3548     317.1201      2.014     6.63     876.6241     55.91983     257.8721        26     1.898     0.906  38.16   0
       230     69.1501    636.0579 307.8899489  +6.4129732     1156.368     2347.219     2423.452     79.52421     158.6705     317.2779      2.038     6.88     878.0099     55.91983     164.5999        17     1.534     0.865  33.29   0
       231    466.2646    629.0164 307.7252759  +6.4292402     48959.78     92335.03     99457.69     79.01929     158.5443     317.1201      1.989     6.45     873.3759     55.91983       6582.9        88     2.003     1.187  32.82   0
       232      9.5663    630.2359 307.9148882  +6.4133681     1409.542     2599.466     3027.776     79.27216      158.418     316.9939      2.045     6.58      878.969     55.91983     168.9795        20     1.606     0.973  32.87  16
       233    652.1838    626.0535 307.6481648  +6.4367002     618.5081     1262.349     1269.881     79.01929     158.7335     316.9939      1.541     4.01     869.8796     55.91983     113.9564         6     1.244     0.369  29.20   0
       234    140.7565    624.0429 307.8606195  +6.4203471     1468.265     2688.203     2517.471     79.27216     158.6705     317.0886      1.996     6.48     876.9356     55.91983      168.694        20     1.662     0.798  36.27   0
       235    419.5045    621.6660 307.7449422  +6.4307050      646.402     1099.241     995.0735     79.52422     158.7966     317.2779      1.661     4.69     873.9451     55.91983     102.1491         7     1.730     0.361  35.04   0
       236     12.4701    619.8942 307.9140322  +6.4177361     595.9751     1189.366     1862.231     79.39828     158.7335     317.2463      2.205     5.35     878.9471     55.91983     88.06476         7     1.883     0.429  37.40   0
       237    610.8196    619.6848 307.6655573  +6.4379434     577.9004     923.5777     1531.688     79.14582     158.3548     317.1833      1.472     3.51     870.1576     55.91983     110.8757         5     0.939     0.379 -85.57   0
       238    311.7124    618.3156 307.7898193  +6.4284656     1520.889     3101.755     3106.039     79.27216     158.8596     317.3094      2.070     6.69     874.5273     55.91983     223.3205        23     1.693     0.941  26.54   0
       239    464.5972    617.3831 307.7263600  +6.4339879     688.3735     1224.574     1963.025     79.14582     158.2284      317.057      2.072     6.08     873.1562     55.91983     115.9879        10     1.733     0.599  34.33   0
       240    738.4508    612.6625 307.6127877  +6.4451194     4439.005     8117.637     8655.486     79.52422     158.6074     317.3094      1.911     6.17     868.9398     55.91983     578.7825        34     1.867     0.925  33.69   0
       241    791.8782    607.8910 307.5907590  +6.4488783     10776.45     20445.97     22050.83     79.27216     158.9225     317.3094      1.944     7.01     868.5276     55.91983     1525.389        44     1.896     0.997  35.12   0
       242   1009.2053    608.5513 307.5004777  +6.4558708     890.5792     1641.852     1464.156     78.89256     158.4812     316.9308      1.895     5.87     861.0287     55.91983     142.6622        12     1.596     0.607  29.78   0
       243    533.7830    607.6395 307.6979555  +6.4403333     816.1705      1931.79     2420.989     79.14582     158.5443     317.0255      2.473     8.03      871.186     55.91983      163.087        19     1.934     0.933  49.41   0
       244    615.7736    605.9028 307.6639632  +6.4438004     2359.227     4316.406      4642.52     79.64994      158.418     317.1833      1.901     6.85     869.6906     55.91983     329.6233        22     1.761     0.748  35.16   0
       245     37.6569    607.4456 307.9039940  +6.4237255        545.9     864.3424     1053.839     79.52422     158.6705     317.2779      1.630     3.44     878.4365     55.91983     119.2222         5     1.181     0.290  20.64   0
       246    933.2026    602.0839 307.5322597  +6.4560024     963.6325     1904.192     2397.981     78.89256     158.2916     316.9308      2.439     7.26     865.2138     55.91983     189.1511        17     1.932     0.764  34.27   0
       247    228.4998    599.7506 307.8250021  +6.4333319      933.656     1883.978     2804.128     79.52422     158.6705      317.404      2.459     7.66     874.9347     55.91983     142.4834        17     2.080     0.790  38.46   0
       248    374.3510    599.1439 307.7644527  +6.4384876     674.5139     1241.444     1214.907     79.52421     158.6705     317.3094      1.928     5.53     873.3856     55.91983     101.9337        10     1.297     0.666  51.72   0
       249    192.4675    600.6395 307.8399356  +6.4317519     466.6945     892.5123     1249.384     79.39828     158.6074      317.341      2.010     3.54     875.7469     55.91983     81.80017         5     1.100     0.328  19.52   0
       250    139.7357    595.7225 307.8619999  +6.4320064     7509.137     7494.184     6766.305     79.77547     158.6705     317.2463      0.865     2.81     876.6125     55.91983     2190.567         9     0.836     0.464  45.18   0
       251    867.9395    591.1467 307.5597313  +6.4583369     2111.713     4284.242     4680.024     79.52421     158.6074     317.2148      2.096     6.51     866.9103     55.91983     309.4882        28     1.902     0.945  34.90   0
       252    826.7813    588.7720 307.5769047  +6.4579408     1988.444     3810.003     4172.257     79.14582     158.4812     317.1833      2.018     6.95     867.5385     55.91983     315.8183        22     1.782     0.761  35.53   0
       253    797.5562    584.6996 307.5891791  +6.4586446     2031.965     4115.532     5166.412     79.52422     158.5443     317.4671      2.309     6.25     867.9007     55.91983      316.639        27     1.860     1.047  31.60   2
       254    807.2484    579.7777 307.5853189  +6.4610013     125084.8     233159.1     251073.1     79.14582     158.6705     317.1517      1.988     6.80     867.6174     55.91983     18050.35       141     2.084     1.236  34.60   2
       255    740.1579    585.0726 307.6130051  +6.4565691     519.3539     1153.305     1825.704     79.39828     158.7335     317.2779      2.964     5.72     868.4971     55.91983     99.10114         7     1.756     0.525  36.56   0
       256    254.6989    583.3989 307.8146738  +6.4409653     6189.041     11794.14     12924.83     79.01929     158.2916     316.9623      2.013     6.62     874.0626     55.91983     752.5551        38     1.929     0.971  35.02   0
       257    188.8710    577.9506 307.8421951  +6.4409992     44904.23     87327.04     95267.73     79.52421     158.6074     317.2779      2.056     6.35     875.2926     55.91983     5817.847        93     2.055     1.239  36.29   0
       258    112.8729    574.1752 307.8738833  +6.4399983     4649.256     9213.766     10323.05     79.14582     158.5443     317.1833      2.107     6.43     876.6672     55.91983     572.0813        40     2.025     1.012  33.41   0
       259    978.0267    571.4271 307.5146703  +6.4701591     1063.865     1986.303     1910.385     79.01929     158.4812     317.0886      1.851     6.46      862.415     55.91983     145.2207        16     1.718     0.682  34.93   0
       260    227.3114    569.8112 307.8265060  +6.4456541     612.5471     1195.186     1682.321     79.14582      158.418     317.0886      2.167     6.25     874.2524     55.91983      83.5271        11     1.529     0.719  36.84   0
       261    843.9064    567.1580 307.5705174  +6.4674387     3647.195     6540.567     6840.004     79.64994     158.6074     317.3725      1.842     7.09     866.3081     55.91983     495.8342        28     1.759     0.878  31.60   0
       262    362.2241    565.1283 307.7706353  +6.4521255     13027.31      25104.3     26918.88     79.14582     158.5443     317.1833      2.021     6.91     872.4742     55.91983       1726.3        48     1.953     1.061  34.41   0
       263    164.1380    563.7778 307.8529449  +6.4460184      1349.38     2525.823     3392.624     79.14582     158.6705     317.1517      2.155     6.53     875.5454     55.91983     189.1546        16     1.489     0.803  30.15   0
       264    797.7830    560.4648 307.5898982  +6.4686593     4597.337     8634.669     9229.569     79.01929     158.6074     317.1201      1.926     7.59     867.2604     55.91983     700.4001        31     1.807     0.891  34.64   0
       265    528.6495    560.0636 307.7016882  +6.4598060     5220.418      9539.68     10310.15     79.39828     158.6074     317.3094      1.939     6.70     870.1789     55.91983     637.8798        33     1.846     0.932  34.05   0
       266    239.3602    562.0671 307.8217635  +6.4492572     814.7324      1550.07     2176.514     79.39828     158.6074      317.341      1.995     5.36     873.8195     55.91983     125.3312        10     1.225     0.663  24.14   0
       267    101.7225    560.8344 307.8789646  +6.4451310     691.1329     1430.135     1442.952     79.39828     158.7335     317.2148      2.079     5.72     876.7029     55.91983     107.8315        10     1.822     0.506  27.31   0
       268    388.4700    557.5001 307.7599923  +6.4561573     786.7968     1339.476     1551.931     79.52422     158.7966     317.2779      1.588     3.55     872.0103     55.91983     123.9236         5     0.794     0.457 -18.28   3
       269    385.5660    556.2805 307.7612394  +6.4565633     948.9462      1178.44     1988.972     79.39828     158.7335     317.2779      1.674     3.30     871.9667     55.91983     165.7805         9     0.933     0.671  17.06   3
       270    573.4174    553.1967 307.6833264  +6.4641434     1936.032     3934.784      4614.62     79.14582     158.2284     317.0886      2.193     6.26     869.2126     55.91983     267.9594        27     1.687     1.168  25.27   0
       271    175.6155    553.1520 307.8485372  +6.4507924     5156.042     10294.46     11487.19     79.01929     158.6705     317.0255      2.072     6.39     875.0231     55.91983     651.5485        37     1.975     0.988  36.44   0
       272    814.2404    552.8900 307.5833172  +6.4723378     998.3105     2039.003     1583.941     79.52421     158.6705     317.2779      1.996     6.52     866.6324     55.91983     176.0723        15     1.786     0.669  34.46   0
       273     47.2684    551.7799 307.9018845  +6.4470341     3918.901     7425.873     7818.737     79.14582     158.5443     317.1517      1.988     6.40     877.6106     55.91983     468.8392        31     1.885     0.914  35.84   0
       274    270.8565    549.5912 307.8091041  +6.4554684     66412.48     128908.2     139215.8     78.89256     158.6074     316.9939      2.024     6.25      872.806     55.91983     8675.455        94     2.042     1.201  35.28   0
       275    560.5706    547.3409 307.6888588  +6.4661304     827.7276     1270.307     1260.108     79.27216     158.6705     317.1833      1.697     5.24     869.2662     55.91983     135.2262        10     1.334     0.598  43.25   0
       276    794.0234    542.1434 307.5920745  +6.4760988     12448.24     23632.18     25235.37     79.14582     158.6705      317.057      1.979     7.29     866.8364     55.91983     1746.956        47     1.901     1.028  33.87   0
       277    256.3190    545.6306 307.8152752  +6.4566146     776.1964     -357.515     51.28712     79.39828     158.5443     317.2148     -3.956     4.78      873.031     55.91983      144.681         7     1.050     0.616  67.83   3
       278    253.5379    543.9714 307.8164861  +6.4572062     1157.166     252.4997    -68.54439     79.14582     158.6705     317.2148      1.373     4.13     873.0093     55.91983     195.5207        12     1.213     0.714  60.07   3
       279    970.5437    543.4140 307.5187167  +6.4814765     1254.167     2204.074     2444.945     78.89256     158.5443     316.9308      1.865     6.48     862.2607     55.91983     182.3625        15     1.682     0.700  30.71   0
       280    497.6054    540.4750 307.7152405  +6.4668526     32884.28     63773.03     70793.32     79.14582     158.1652     317.1517      2.089     6.13     870.1898     55.91983      4370.07        84     2.149     1.255  30.52   0
       281    647.1776    538.3526 307.6531912  +6.4727459     773.2054      1467.81     2006.026     79.14582     158.6705     317.1201      2.401     5.97     868.0366     55.91983     137.6369         8     2.066     0.486   3.52   2
       282    209.9160    537.0351 307.8348364  +6.4586021     1359.342     2746.484      3152.32     79.52421     158.6705     317.2148      2.158     7.47       873.86     55.91983     185.1552        22     1.932     0.877  34.85   0
       283    667.6729    535.7433 307.6447667  +6.4745103     1012.074     2028.064     2356.104     79.52422     158.6074     317.2148      2.077     6.15     867.8713     55.91983     140.6355        16     1.597     0.972  27.41   0
       284    657.4964    535.4626 307.6490027  +6.4742851       2377.3      4292.72     5062.403     79.39828     158.7966     317.3094      1.920     5.99     867.8724     55.91983     287.1436        27     1.761     0.907  35.00   0
       285     45.2432    536.5488 307.9032405  +6.4532547     957.9368     1625.163     2039.383     79.64994     158.6705     317.2779      1.802     6.10     877.2692     55.91983      125.173        13     1.524     0.686  23.39   0
       286    719.6503    534.5661 307.6232185  +6.4767376     1107.213     2100.195     2524.982     79.39828     158.6705     317.1833      2.188     6.07     867.5392     55.91983     164.7319        14     1.634     0.634  30.97   0
       287    395.1674    531.1062 307.7581001  +6.4672807      1399.96     2657.986     3225.278     79.64994     158.5443     317.3094      2.092     7.02     870.7129     55.91983     205.0349        18     1.806     0.765  36.02   0
       288     75.4764    532.1725 307.8908329  +6.4560810     649.6801     1097.361     1449.941     79.39828     158.6705     317.2148      2.266     4.98     876.6275     55.91983     86.14313         7     1.433     0.490  17.46   0
       289    326.8292    529.4356 307.7865381  +6.4656734     3139.273     5802.472     6141.021     79.14582      158.418      317.057      1.925     5.66     871.2289     55.91983     404.1229        29     1.820     0.923  33.09   0
       290    141.9349    527.9445 307.8633759  +6.4600663      19896.6     38047.93     41265.51     79.64994     158.6074     317.2463      2.031     6.42     875.2266     55.91983     2631.595        63     1.973     1.147  35.27   0
       291    506.8931    529.0240 307.7117685  +6.4718926     1719.503     3314.063     3305.528     79.64994      158.418     317.0886      1.896     7.25     869.3379     55.91983      238.198        22     1.821     0.821  35.09   0
       292    869.6829    528.0023 307.5611248  +6.4844692      1287.56     2275.466     2271.261     78.89256     158.2916     316.9308      1.961     7.28     864.1636     55.91983     182.0983        18     1.785     0.832  35.14   0
       293    107.1910    526.1310 307.8778662  +6.4596445     2027.792     4134.238     4094.401     79.01929      158.418     317.1201      2.036     7.07     875.9252     55.91983      267.149        24     1.845     0.836  41.01   0
       294    344.5584    524.4648 307.7793426  +6.4683220     790.6078     1473.605     1464.707     79.52422     158.6074     317.3094      1.908     6.96     870.9081     55.91983     124.4695        11     1.844     0.736  37.38   0
       295    967.5948    522.7407 307.5206341  +6.4899146     4165.153     7500.405     7726.523     79.01929     158.5443     317.0255      1.910     6.39     862.0298     55.91983     545.7972        32     1.862     0.887  32.16   0
       296    540.9434    515.2153 307.6980913  +6.4787372     1054.461     2226.532     2446.375     78.89256     158.6074     316.9939      1.984     6.40      868.021     55.91983     152.8376        14     1.858     0.619  30.86   0
       297      6.2420    512.2471 307.9202591  +6.4619735     19434.17     37190.25      40650.8     79.52422     158.6705     303.2155      2.011     6.38     876.7777     55.91983     2375.949        66     2.013     1.171  34.39  24
       298    438.9687    509.1309 307.7406489  +6.4778262      32414.1      62396.4     67388.97     79.39828     158.6705     317.2463      2.028     6.68     868.9149     55.91983     4205.004        74     1.996     1.177  35.47   0
       299    646.9852    508.8854 307.6542615  +6.4849071     9222.708     17599.06     19339.15     79.14582      158.418     317.1517      1.989     7.55     866.8149     55.91983     1365.208        41     1.889     0.997  34.81   0
       300    286.9516    509.5179 307.8037715  +6.4725565     730.3987     1456.801     1750.097     79.52421     158.6705     317.2779      1.848     5.94     870.3232     55.91983      106.255        12     1.901     0.522  35.41   0
       301    204.1418    506.7088 307.8382582  +6.4709296     15166.52     29217.85     32055.06     79.39828     158.6074      317.341      2.064     5.90     873.2581     55.91983     1912.547        62     2.091     1.136  37.04   0
       302    171.3524    508.6609 307.8518100  +6.4690195     1011.449     1253.461     525.9913     79.52422     158.6074     317.3094      1.158     3.22      874.154     55.91983     166.0927         7     0.847     0.569  22.43   3
       303    168.7265    506.9904 307.8529569  +6.4696208     1168.213     1695.083     1192.911     79.01929     158.2916     317.1201      1.522     4.25      874.161     55.91983     156.6819        12     1.168     0.823  38.74   3
       304    981.0121    507.6077 307.5155682  +6.4966116     867.6834     1643.254     2040.146     79.14582     158.4812     317.1517      1.974     6.05     861.6771     55.91983     129.2804        12     1.504     0.684  27.50   0
       305    909.2112    506.3012 307.5454346  +6.4947518     663.6368     1028.217     897.2554     79.27216     158.3548     317.0255      1.638     5.61     862.6569     55.91983     97.41949         7     1.251     0.708  43.62   0
       306    821.0608    506.6407 307.5820362  +6.4916635      904.278     1556.711     1171.028     79.52421     158.6705     317.3094      1.821     6.52     864.9819     55.91983     115.3048        15     1.440     0.828  33.79   0
       307    568.6474    505.5801 307.6869091  +6.4836452     2298.082     4005.551      4450.36     79.14582     158.6705      317.057      1.919     6.77     867.2309     55.91983     368.3367        21     1.697     0.757  36.29   0
       308    942.6338    502.8967 307.5316666  +6.4972747     3654.905     6935.583      7297.71     79.64994     158.5443      317.404      2.009     7.19     861.9341     55.91983      490.303        29     1.809     0.943  32.77   0
       309    615.7670    501.2638 307.6674838  +6.4870077     4951.633     9358.558     10232.68     79.39828     158.7335     317.2148      2.031     6.46     866.5214     55.91983     617.2321        38     1.959     0.976  36.23   0
       310    103.4260    501.6228 307.8802579  +6.4696371     875.1035      1880.38     1613.763     79.01929     158.5443     317.1833      2.089     6.24     875.4034     55.91983      138.012        13     1.998     0.547  34.17   0
       311    514.7480    501.0751 307.7094468  +6.4836968     558.1441     886.9698     1163.803     79.52421     158.7335     317.2463      2.500     4.95     867.5655     55.91983     83.34473         7     1.305     0.532  42.47   0
       312    965.3156    495.1159 307.5225063  +6.5012455     2710.335       4963.8      4801.23     79.27216     158.7966      317.341      1.915     7.08     861.6276     55.91983     378.6781        24     1.777     0.820  36.51   0
       313    527.9656    492.5109 307.7042454  +6.4876767     5760.868     11110.38     11493.82     79.64994     158.6074     317.2463      1.990     6.14      866.999     55.91983     799.5554        39     1.907     1.029  36.41   0
       314    373.9440    492.5464 307.7682140  +6.4824893     2063.597     3768.959     3706.591     79.64994     158.6705     317.2148      1.938     6.58     868.8907     55.91983     268.3936        23     1.755     0.909  35.43   0
       315     96.7907    491.3560 307.8833606  +6.4736527     577.8149     920.2678     936.5652     79.01929     158.5443     316.9939      1.359     3.41     875.2394     55.91983     89.03699         5     0.764     0.441 -17.36   0
       316    884.2308    488.2571 307.5564152  +6.5013674     2590.197     4883.137     5732.735     79.39828     158.6705     317.1517      2.083     7.00     862.8813     55.91983     359.4402        27     1.917     0.866  31.57   0
       317    536.9664    488.0000 307.7006588  +6.4898414     494.8736     995.3959     1519.284     78.51112      158.418     316.9623      2.104     3.99     866.6686     55.91983     89.00928         5     1.062     0.429   0.38   2
       318    931.3878    482.2171 307.5370308  +6.5054380     1107.081      1962.38      1723.34     79.27216     158.3548     317.1517      1.715     7.36     861.4376     55.91983     175.0748        18     1.681     0.969  39.89   0
       319    891.9825    482.8063 307.5533783  +6.5038774      1700.17     3165.668     3186.319     79.14582      158.418     317.0886      1.745     6.79     862.5321     55.91983     252.2443        20     1.691     0.764  32.25   0
       320    270.3028    481.0599 307.8116461  +6.4837470     484.3361     845.1163     615.3878     79.27216     158.6705      317.341      1.748     4.50     869.6089     55.91983     85.06091         6     1.322     0.435  34.82   0
       321    110.0723    481.3387 307.8781831  +6.4782364     657.4915     1176.572     1048.728     79.64994     158.6705     317.3094      1.923     3.78     874.7438     55.91983     111.8246         5     0.831     0.495  55.94   0
       322    715.8419    478.7130 307.6266762  +6.4996730     2289.966     4476.884     5090.641     79.52421     158.6074     317.2779      2.109     7.35     865.0291     55.91983     333.6233        25     1.853     0.816  32.40   0
       323     77.5701    477.6200 307.8918073  +6.4786764     1468.741     2945.921     2826.611     79.01929     158.4812     317.1201      2.075     7.20     875.0018     55.91983     180.8232        21     1.855     0.783  32.03   0
       324    427.1028    477.1671 307.7466538  +6.4906258      768.336     1618.167     2539.375     79.64994     158.5443     317.3725      2.496     5.65     867.2465     55.91983     142.5524         9     1.578     0.571  32.52   0
       325    386.7400    476.7699 307.7634312  +6.4894337     2804.908     5566.814     6010.886     79.27216     158.6705     317.2148      2.068     6.16     867.8424     55.91983     361.2853        28     1.867     0.919  32.65   0
       326    614.5101    473.4320 307.6689416  +6.4984578     7925.009     14822.07     16029.35     79.64994     158.4812     317.2463      1.999     6.17     865.4482     55.91983     1002.086        43     1.978     1.008  34.55   0
       327    777.1608    470.0014 307.6014997  +6.5053235     12474.04     23640.85     25709.72     78.63847      158.418     316.9308      1.970     7.09     864.2562     55.91983     1853.054        49     1.967     1.010  35.31   0
       328    421.1933    470.5602 307.7493308  +6.4931554     529.2004     872.2528     1615.639     78.89256     158.3548     316.9308      2.532     4.36     867.1115     55.91983     76.17987         5     0.920     0.589  45.88   0
       329    296.9440    470.2366 307.8009464  +6.4891122     1988.356     3892.575     4033.709     79.39828     158.6705     317.2779      1.986     6.94     868.3174     55.91983     246.4475        21     1.833     0.737  31.45   0
       330    806.5767    467.2702 307.5893733  +6.5074358     1024.188      1889.57     2274.377     79.14582     158.5443     317.2148      2.254     6.00     863.8835     55.91983     156.5643        14     1.893     0.536  32.79   0
       331    379.5278    466.7320 307.7667649  +6.4933361     1265.549     2474.291     2842.126     79.64994     158.7966     317.2463      2.261     7.55     867.4726     55.91983     159.4696        19     1.777     0.897  30.01   0
       332    781.2642    465.3041 307.5999531  +6.5074005     1150.176     2398.754     2340.221     79.39828     158.7966     317.2463      2.111     7.12     864.0386     55.91983     155.4874        18     1.817     0.781  39.65   0
       333    961.4897    464.4909 307.5251216  +6.5137635     1493.968     2709.073     3241.035     79.52422     159.1742      317.341      2.129     2.95     860.3782     55.91983     243.7963        11     1.041     0.677  54.56   2
       334    114.6772    461.8675 307.8769286  +6.4864314     3521.111       6864.6     8195.339     79.64994     158.7335     317.2148      2.105     5.64     874.1307     55.91983     413.3993        31     1.788     1.021  38.41   0
       335    752.6813    460.8679 307.6119742  +6.5082754     1853.849     3126.688     3520.718     79.64994     158.9225     317.2779      1.933     6.49      864.045     55.91983     261.9331        20     1.853     0.704  34.40   0
       336   1016.3832    459.7557 307.5024793  +6.5175524     3520.179     6353.755     6835.303     79.14582     158.5443     317.0255      1.970     6.27     859.2952     55.91983     497.2888        31     2.047     0.841  32.37  16
       337    272.2576    458.8246 307.8115844  +6.4929939     1141.352     2377.815     2938.829     79.14582     158.6705     317.0886      2.197     7.17     868.8663     55.91983     158.8585        19     1.724     0.889  24.22   0
       338    350.7435    456.7411 307.7790568  +6.4964938     2373.131     4690.931     4826.222     79.64994     158.6705     317.2779      2.044     6.58     867.2903     55.91983     294.3306        26     1.893     0.861  33.99   0
       339    706.5472    454.3425 307.6313555  +6.5094248     1181.953     2180.718     2417.027     79.52422     158.6705     317.2463      2.041     6.33     864.4133     55.91983     212.0615        16     1.735     0.649  35.41   0
       340    980.7463    453.1407 307.5175033  +6.5190937     571.2638     953.6027     1286.078     79.64994     158.6074     317.2463      1.906     4.18     859.3074     55.91983     98.33795         6     1.224     0.406  29.10   0
       341    547.0568    446.2666 307.6978721  +6.5074124     624.6136      1323.85      1296.52     79.64994     158.6074     317.2148      2.464     4.14     865.0952     55.91983     104.8761         5     0.796     0.616 -83.63   2
       342    832.9167    444.7516 307.5791883  +6.5176156     1112.884     1894.964     1801.252     79.52421     158.6705     317.2779      1.970     6.55     862.3385     55.91983      136.535        17     1.562     0.772  35.25   0
       343    818.4123    443.6270 307.5852507  +6.5175947     1628.377     2990.873     3128.811     79.14582     158.4812     317.1833      1.947     5.56     862.6464     55.91983     213.4333        23     1.751     0.916  36.46   0
       344    469.9172    445.0699 307.7299522  +6.5053172     1094.858     1884.668     2027.099     79.77547     158.9225     317.2779      1.809     6.42      865.364     55.91983     143.3549        15     1.760     0.658  37.20   0
       345    715.4580    441.5339 307.6280845  +6.5150122     11889.35     21900.38     24040.32     79.64994     158.6074     317.2463      1.998     7.80     863.9088     55.91983     1586.393        57     2.352     1.009  38.01   0
       346    636.6272    437.6294 307.6609590  +6.5139828     1971.839     4057.584     4602.887     79.01929     158.4812      317.057      2.098     7.57     864.6243     55.91983     275.2699        27     1.964     0.854  32.89   0
       347    609.1110    432.8337 307.6725494  +6.5150405     11927.36     24331.01     29915.46     79.64994     158.6074     317.2463      2.384     8.47     864.5134     55.91983     1787.234        65     2.785     1.021  33.68   0
       348    941.0535    431.5411 307.5347145  +6.5266864     3013.948     5691.331      5945.16     79.64994     158.6074     317.2463      1.952     7.09     859.1567     55.91983     463.3297        28     1.950     0.819  35.02   0
       349    380.0443    427.5093 307.7678723  +6.5095489     22199.36     42769.55     46229.25     79.52421     158.6074     317.3725      2.031     6.12     865.6307     55.91983     2863.882        68     1.997     1.182  36.85   0
       350    895.7427    426.3224 307.5537104  +6.5273267     1334.208      2422.04     3305.418     79.52422     158.6074     317.2148      2.520     7.84     860.0527     55.91983     181.4032        23     2.548     0.675  40.45   0
       351    126.2759    426.8248 307.8732954  +6.5012914     1784.579     3390.598      3590.63     79.14582     158.6074     317.2148      1.954     7.30     872.9645     55.91983      286.187        23     1.648     0.905  33.67   0
       352    909.7839    422.0381 307.5480217  +6.5295653     3893.655     7169.919     7933.256     79.14582     158.4812     316.9939      1.966     6.34     859.5981     55.91983     547.3337        34     1.942     0.916  38.00   0
       353     59.6482    422.3836 307.9011179  +6.5008793     1273.444     2375.287     3144.402     79.01929     158.6705     316.9939      1.965     6.50     874.2346     55.91983     173.9267        21     1.754     0.868  30.55   0
       354    237.5314    418.0536 307.8273832  +6.5086599     10852.32     20791.21     22531.82     79.39828     158.6074     317.1517      2.017     6.19     868.3752     55.91983     1293.008        51     1.987     1.103  35.71   0
       355    442.9294    420.1609 307.7420006  +6.5146961     1310.917     1355.612     1071.916     79.39828     158.6705     317.3094      0.762     2.14     864.8304     55.91983     500.5671         5     0.748     0.337  12.78   0
       356     73.9335    412.2006 307.8955291  +6.5055656     631.6773     1220.681     1584.114     78.76562     158.2284     316.9939      1.998     5.90     873.7243     55.91983     82.26318        10     1.619     0.605  33.84   0
       357    959.7366    409.6990 307.5276859  +6.5363299     735.2404     1593.992     1809.854     79.39828     158.7335     317.2779      2.436     5.07     857.2884     55.91983      153.887         7     1.076     0.675 -19.55   2
       358    732.4767    411.7751 307.6220151  +6.5278702     827.1836      1386.21     1822.707     79.14582     158.6074     317.2148      1.712     5.00     862.5138     55.91983     105.9663         9     1.342     0.526  28.71   0
       359    700.5250    411.4568 307.6352977  +6.5269314     603.8007     1223.748     1452.338     79.39828     158.6074     317.1833      2.089     6.07     863.1197     55.91983     75.71484        10     1.484     0.699  25.24   0
       360    137.9211    406.6538 307.8691403  +6.5100124     3983.576     7727.891     8394.781     79.64994     158.6705     317.2779      2.021     6.18     872.1912     55.91983     485.5762        33     1.812     1.009  36.82   0
       361    350.7043    407.8230 307.7807223  +6.5166913     982.3569     1847.448     2456.517     79.52421      158.418     317.0886      2.092     6.20     864.9153     55.91983     134.7429        13     1.557     0.693  32.13   0
       362    183.7873    407.8300 307.8500505  +6.5110718     596.7781     1270.816     1296.978     79.01929      158.418     317.1833      2.421     5.13     870.5233     55.91983     93.18378         7     1.529     0.486  16.57   0
       363    242.7690    405.7142 307.8256243  +6.5139312     1020.484     1918.015     2359.696     79.52422     158.4812     317.1201      1.951     5.65     867.9551     55.91983     139.7355        13     1.721     0.523  39.60   0
       364    434.3531    404.9606 307.7460748  +6.5206844     584.3734     877.3749     1099.505     79.39828     158.6705      317.057      1.674     4.23     864.3951     55.91983     75.65063         5     0.812     0.628  -5.56   0
       365    823.9918    403.1087 307.5842928  +6.5345123     527.6484     1174.872     792.7687     79.14582     158.3548     317.0255      2.268     6.87     860.8469     55.91983     92.77679        11     1.767     0.749  46.71   0
       366    159.8920    402.5440 307.8601538  +6.5124496     1912.722     3899.589     4807.349     79.39828     158.5443     317.3725      2.217     5.61     871.5554     55.91983     263.7147        27     1.708     1.105  39.69   0
       367    554.6860    400.7482 307.6962348  +6.5264636     757.0229     1366.708      1172.45     79.52422     158.6074      317.341      1.850     3.42     863.1959     55.91983     124.7017         7     0.922     0.551  58.97   2
       368    383.3559    397.1373 307.7675205  +6.5222012      1644.87     2964.818     2847.868     79.52421     158.6074     317.3094      1.866     6.49     864.4511     55.91983     249.9861        20     1.678     0.764  34.88   0
       369    270.1897    397.6617 307.8145069  +6.5181789     641.8719     979.7415     982.9459     78.89256     158.4812     317.0255      1.762     4.77     867.0757     55.91983     85.70172         7     1.095     0.588  21.98   0
       370    972.1125    396.6154 307.5229836  +6.5421459      703.676     1305.655     1695.509     79.27216      158.418     317.1201      1.995     5.14     856.2031     55.91983     125.1496        10     1.588     0.471  34.98   0
       371     33.4276    391.6790 307.9130464  +6.5126730     2351.137     4950.321     5280.803     79.39828     158.6074     317.2463      2.120     5.93     874.2074     55.91983     349.8918        29     1.878     1.068  33.39   0
       372    437.2013    390.8409 307.7453674  +6.5266103     5582.767     10710.16      11774.2     78.89256     158.3548     316.9623      1.993     6.32     863.8115     55.91983     732.9094        38     1.867     1.001  35.31   0
       373    777.8124    388.2922 307.6039723  +6.5390848     9782.616     18454.18     19974.78     79.27216      158.418     317.0255      1.976     6.87     861.0153     55.91983     1319.224        45     1.948     0.976  35.14   0
       374    769.9084    389.8300 307.6072038  +6.5381853     1590.505     3107.806     3321.083     79.64994      158.418     317.2148      2.180     7.64     861.1574     55.91983     211.2257        21     1.652     0.988  38.91   0
       375    341.6600    386.8578 307.7851858  +6.5250440     807.4203     1550.255     1725.103     79.64994     158.6074     317.2779      2.059     6.37     864.5706     55.91983      112.267        13     1.769     0.644  26.85   0
       376   1021.7581    383.5495 307.5027989  +6.5491994     2952.363     5390.889     5736.658     79.64994     150.5812     268.1168      1.939     7.25     853.5341     55.91983      395.781        25     1.798     0.820  37.42  24
       377    186.3257    379.0234 307.8499690  +6.5230517     656.7082     1191.639     1322.291     79.14582     158.4812     317.1833      1.874     6.14     869.5643     55.91983     91.11462         9     1.140     0.930  20.10   0
       378    902.5592    378.3965 307.5524861  +6.5473444     501.6966      701.784     1093.629     78.76562      158.418     316.9939      1.652     4.14     857.9979     55.91983     91.66412         5     0.966     0.506  47.48   0
       379    457.6524    375.3915 307.7373931  +6.5336765     1789.739     3123.478     2988.277     79.01929     158.5443     316.9623      1.825     6.64     862.8382     55.91983     223.9391        22     1.759     0.900  40.41   0
       380    485.2306    374.4561 307.7259695  +6.5349888     2487.501     4473.848       4413.2     79.39828     158.7335     317.1833      1.904     6.74     862.3579     55.91983     309.9247        26     1.867     0.856  34.56   0
       381    914.0258    374.6197 307.5478496  +6.5492873     650.2188     1125.425     1071.024     79.14582     158.4812     317.1517      1.786     5.91     857.5408     55.91983     104.0812        10     1.609     0.612  32.16   0
       382    843.1990    371.2543 307.5773833  +6.5483084     25131.12     49879.91     54020.97     78.89256     158.3548     316.8676      2.042     6.98     859.3735     55.91983     3333.557        67     1.986     1.199  38.35   0
       383    335.6749    367.1501 307.7883364  +6.5329802     614.7753     1183.278     1216.486     79.52421     158.7335     317.2779      1.906     6.33     864.1233     55.91983     98.55768         8     1.664     0.677  30.60   0
       384    614.8484    363.4853 307.6724983  +6.5438681     2029.173     3748.226     4183.766     79.52421     158.6074     317.2463      2.007     6.89     860.4347     55.91983     300.9304        21     1.802     0.739  38.20   0
       385     22.9442    363.9452 307.9183387  +6.5237706     936.6588     1775.075     2096.255     79.77547     158.6705     317.2463      1.930     6.03     873.6531     55.91983     147.5002        14     1.690     0.604  41.27   0
       386    699.6824    357.2067 307.6374705  +6.5493041     61515.99     116297.9     125675.7     79.14582     158.3548     317.0886      1.999     6.88     859.9828     55.91983     7980.478       103     2.052     1.198  34.52   0
       387    146.5231    361.3754 307.8670972  +6.5289979     536.6679     854.2282     399.3996     79.14582     158.5443     317.2148      1.635     4.71     870.5822     55.91983     91.80115         7     1.525     0.412  40.89   0
       388    857.6050    358.6987 307.5718204  +6.5539747     963.4724     1817.261     2148.716     79.27216     158.3548     316.8992      1.992     6.12     858.7099     55.91983     165.2999        14     1.728     0.609  29.00   0
       389     78.9895    356.9731 307.8952962  +6.5285395      1067.76      2121.23     1733.034     79.14582     158.4812     317.1201      2.041     7.24     872.7354     55.91983     139.2438        18     1.788     0.820  28.14   0
       390    562.1778    353.7722 307.6947035  +6.5461121     2096.477     4032.635      4190.69     79.01929     158.4812     317.1833      1.999     6.22     860.3457     55.91983     309.2288        23     1.833     0.814  36.65   0
       391     99.3643    352.6434 307.8869799  +6.5310140     4816.494      9318.84     9463.902     79.27216     158.6074      317.057      2.013     6.21     872.3675     55.91983     590.1204        36     1.837     1.045  30.92   0
       392    545.4276    350.0775 307.7017856  +6.5470757     5481.229     10435.27     11385.49     79.39828     158.6074     317.2148      2.001     6.45     860.3129     55.91983     709.8207        34     1.846     0.984  35.74   0
       393    274.1628    347.5941 307.8145461  +6.5389859     2015.067      3846.72     4348.164     78.63847      158.418     316.9939      1.998     6.62     865.3343     55.91983     260.3967        25     1.765     1.032  35.43   0
       394    408.2816    345.2011 307.7589176  +6.5444838     19786.02     38435.75     41078.52     78.76562     158.2284     316.9939      2.028     6.32     862.5336     55.91983      2418.31        59     2.022     1.102  34.85   0
       395    587.5567    344.6760 307.6844675  +6.5507195     577.2708     970.1911     841.0403     79.39828     158.7335     317.2779      1.611     4.66     859.6055     55.91983     100.4205         7     1.538     0.401  42.41   0
       396    515.8883    343.9087 307.7142634  +6.5486315     1009.142       1545.5     1770.026     79.52421     159.1113     317.3725      1.575     5.73      860.449     55.91983      142.777        13     1.570     0.589  37.43   0
       397    387.1599    342.9897 307.7677656  +6.5446871     860.0045     2007.894     3255.494     78.89256     158.4812     316.9939      3.180     4.56      862.689     55.91983     139.4324        10     1.096     0.803  32.58   2
       398    804.6039    338.7962 307.5945050  +6.5604195     630.1121     900.3166     1446.862     78.89256     158.2284      317.057      1.442     3.54     859.0735     55.91983     95.17822         5     0.828     0.435  71.58   0
       399    497.4693    335.6960 307.7221909  +6.5514043     6711.646     12714.88     13782.18     79.39828     158.7966     317.2779      1.994     6.04     860.2859     55.91983     820.6923        42     1.912     1.039  31.40   0
       400    486.7667    339.7679 307.7264994  +6.5493636     804.9711     1486.288     1587.279     79.01929      158.418     316.9939      1.947     2.96     860.6805     55.91983     157.4333         8     0.891     0.626  55.56   2
       401    766.4603    334.4463 307.6104958  +6.5609389     2544.444     4691.989     5483.835     79.39828     158.6705     317.3094      2.060     6.44     859.0858     55.91983     358.3756        25     1.804     0.833  35.47   0
       402    921.7620    334.2173 307.5459906  +6.5662290     740.8179     1341.326     1769.862     79.14582     158.5443     316.9939      2.262     6.34     855.5757     55.91983     109.6012        14     1.614     0.700  36.33   0
       403    714.0088    333.9726 307.6323001  +6.5593779     719.3512     1191.253     1371.353     79.14582     158.4812     317.1201      2.094     5.52     859.0937     55.91983     104.7393         9     1.616     0.532  38.93   0
       404    323.8748    332.4408 307.7944083  +6.5469151     776.8026      1345.37     579.7972     79.39828     158.6705     317.2779      1.800     6.18     863.5173     55.91983     117.4181        12     1.539     0.698  34.71   0
       405    159.3672    325.8868 307.8629613  +6.5440839     952.5453     1519.812     1358.552     79.52421     158.4812     317.2463      1.746     5.18     869.6204     55.91983     126.0974        10     1.318     0.575  22.85   0
       406    387.2259    319.7621 307.7685211  +6.5542802     5805.854     11081.52     11470.03     79.14582     158.4812     317.0886      2.019     6.38     862.0517     55.91983     728.4528        41     1.926     1.050  38.67   0
       407    243.2108    320.4589 307.8283185  +6.5491485     1806.556     3584.255      4094.62     78.89256     158.5443     316.9623      2.103     5.78     865.8401     55.91983     238.6547        23     1.732     0.889  36.72   0
       408    741.6267    319.6832 307.6213076  +6.5662033     784.5377     1558.808     1593.834     79.39828      158.418     317.1833      1.926     4.93     858.6977     55.91983     133.6072         9     1.337     0.514  38.54   0
       409    755.1391    315.7359 307.6158271  +6.5682857     42237.34      79371.3     85167.87     79.52421     158.6074     317.2779      1.984     6.90     858.5554     55.91983     6126.853        80     2.015     1.123  35.29   0
       410    426.6119    315.0777 307.7523185  +6.5575380     1771.393     3398.965     3658.169     79.14582     158.2916     317.1201      1.976     7.24     861.0743     55.91983     219.7076        22     1.713     0.857  31.07   0
       411    990.2864    312.9656 307.5182371  +6.5772942      1171.81     2219.434     1800.234     79.52421     158.5443     317.2463      1.826     5.91     852.6518     55.91983     191.7776        14     1.732     0.568  34.46   0
       412    931.0175    312.1003 307.5428873  +6.5756710     1779.086     3501.444     4096.031     79.52421     158.5443     317.0255      2.084     7.10     854.3964     55.91983     270.4418        21     1.930     0.732  33.68   0
       413    572.9013    312.4785 307.6916385  +6.5635226     874.4206     1648.199     1517.159     79.14582     158.9225     317.2779      1.959     5.87     858.0865     55.91983     176.4428        12     1.626     0.596  26.19   0
       414    463.2053    310.7530 307.7372637  +6.5605530     907.0099     1750.356     1766.874     78.89256     158.4812     316.9308      2.172     4.63     859.6655     55.91983     122.0292         9     1.011     0.665  56.57   2
       415    413.4134    310.8721 307.7579428  +6.5588311     1467.251     2805.403     3123.598     79.01929     158.3548      317.057      2.032     7.24       861.34     55.91983     205.2881        21     1.820     0.808  32.40   0
       416    292.6410    310.0344 307.8081380  +6.5551162     530.3236     714.5472     571.1602     79.27216     158.6705      317.057      1.467     4.57     863.6981     55.91983     85.02893         5     1.005     0.589  19.08   0
       417    834.8806    305.5251 307.5830445  +6.5751710      888.533     1712.107      1744.77     79.77547     158.9225     317.3094      2.035     6.50      857.364     55.91983     118.1293        15     1.819     0.653  43.92   0
       418    444.2363    302.2967 307.7454282  +6.5634075     916.0955     1566.037     1900.333     79.52422     158.5443      317.404      1.801     5.51     859.9205     55.91983     155.6487        11     1.460     0.586  32.20   0
       419    189.9740    302.1485 307.8510499  +6.5549164     1810.884     3451.149     3617.641     79.14582     158.7966     317.1517      2.004     7.34     867.9172     55.91983     231.1074        20     1.719     0.877  34.49   0
       420    753.5808    300.3681 307.6169905  +6.5745792     4779.386     8977.488     9824.135     79.01929     158.4812     317.1201      1.939     7.34     858.0635     55.91983     622.1796        34     1.860     0.944  35.57   0
       421    224.1278    299.4221 307.8369553  +6.5571922     582.7121     916.5329     1018.576     79.14582     158.4812     317.2148      1.409     4.39     866.1031     55.91983     82.14587         7     0.895     0.612  80.33   0
       422     85.6639    299.0267 307.8944830  +6.5526905      813.535     1437.166     1605.008     79.14582     158.6074     317.1517      1.714     6.20     870.4822     55.91983     126.6854        12     1.568     0.689  35.34   0
       423    770.0125    298.1611 307.6102388  +6.5760407     2129.207     3933.834       3838.5     79.01929     158.4812     317.0255      1.884     7.33      857.995     55.91983     303.9762        21     1.685     0.894  39.62   0
       424    359.4782    292.9226 307.7809520  +6.5644297     1552.965      3126.31     3475.554     79.77547     158.9225     317.3725      2.233     6.76     861.9163     55.91983     205.1832        26     2.071     1.021  14.54   0
       425     71.8437    292.7891 307.9004344  +6.5548000     850.7807     1493.676     1331.123     79.01929     158.5443     316.9623      1.813     4.60     870.6273     55.91983     129.7933        10     1.059     0.820  52.04   2
       426   1008.2632    289.2031 307.5115653  +6.5877068     4723.239     8738.843     9121.102     78.89256     158.4812     317.0255      1.917     7.05     851.5905     55.91983     656.3607        33     1.866     0.921  35.40   0
       427    486.2779    288.9890 307.7284125  +6.5703144     1468.588     2995.945     2799.165     79.14582     158.2916     317.0886      2.023     6.93     857.6575     55.91983     216.3438        23     1.775     0.896  37.28   0
       428    248.7142    284.5067 307.8272460  +6.5641785     4447.954     8590.544     9606.682     79.39828     159.1113      317.341      2.009     6.22     864.8324     55.91983     535.8987        36     1.944     0.975  34.26   0
       429    768.2907    277.6380 307.6116432  +6.5844574     740.0039     1320.212     1044.041     79.64994     158.6074     317.2779      1.913     5.44     857.2949     55.91983     109.7857         8     1.279     0.652  28.80   0
       430    225.3050    277.6416 307.8372017  +6.5662251     563.7938     1009.169     779.4384     79.52422     158.6074     317.3725      1.782     5.49     865.7681     55.91983     101.4747         9     1.505     0.564  31.80   0
       431    382.9127    275.2029 307.7718148  +6.5725342     1366.805     2684.844     3075.459     78.89256     158.2916     316.9939      2.100     6.24     860.8284     55.91983     178.8588        20     1.718     0.836  37.86   0
       432    969.4872    274.3674 307.5281710  +6.5925374     944.6338     1608.214     1962.295     79.52422     158.4812     317.2463      1.923     6.34     852.1601     55.91983     140.0699        13     1.360     0.831  28.41   0
       433    305.3289    271.3307 307.8041735  +6.5715240     926.3225     1450.848     841.7889     79.52422     158.7966     317.2148      1.781     5.94     862.7436     55.91983     127.7676        12     1.374     0.722  34.84   0
       434    154.3320    271.7852 307.8668806  +6.5662529     1128.089     1339.363     1609.496     79.01929     158.5443     317.1517      1.269     2.64     868.5884     55.91983     208.4767         9     0.804     0.751 -26.97   3
       435    151.5251    270.0153 307.8681064  +6.5668891     1088.441      1557.11     1467.569     79.01929      158.418     317.1201      1.448     3.82     868.5388     55.91983     179.5089        11     1.041     0.821  58.90   3
       436    562.5940    267.0762 307.6974480  +6.5819241     1765.231      2928.85     3556.592     79.14582     158.1652     317.0886      1.891     6.15       856.11     55.91983     281.1034        18     1.627     0.724  36.48   0
       437    905.9715    266.0073 307.5548376  +6.5938665     1431.073     2722.974     2981.357     79.01929     158.4812      317.057      2.031     6.78     853.6966     55.91983     226.3762        18     1.859     0.694  32.57   0
       438    726.0806    264.4358 307.6296217  +6.5884952     3838.389     7518.326     7930.579     79.39828     158.7335     317.2463      2.018     6.75     856.8641     55.91983     537.5298        30     1.877     0.902  35.76   0
       439    666.8845    264.1842 307.6542214  +6.5866156     1677.745     3510.679     3485.869     79.14582      158.418     317.1517      2.163     6.87     856.5054     55.91983     225.7635        24     1.935     0.823  29.99   0
       440    382.0008    258.2616 307.7727648  +6.5794987     575.7538     1019.821     863.7206     78.76562     158.4812     316.9308      2.015     6.56     860.3081     55.91983     84.68201         9     1.455     0.830  22.57   0
       441    921.8847    256.7131 307.5485384  +6.5982363     928.5367     1749.384     2130.555     79.27216     158.8596     317.3094      1.899     6.41     852.9585     55.91983     166.3159        13     1.700     0.678  33.47   0
       442    227.2958    250.6273 307.8372868  +6.5774464     1393.936     1771.675     2161.362     79.64994      158.418     317.1517      1.336     3.97      865.567     55.91983     217.2097        12     1.189     0.702  55.53   3
       443    224.4928    249.0199 307.8385054  +6.5780157      1643.69     2741.121     2812.996     79.39828     158.4812     317.0886      1.840     4.68     865.6658     55.91983     234.4708        15     1.472     0.682  69.12   3
       444    868.3187    248.5779 307.5710644  +6.5998043     1262.623     2453.771      2819.29     79.27216     158.3548     317.1833      2.083     6.68     854.1459     55.91983     192.5993        16     1.854     0.675  36.75   0
       445    758.8176    248.3326 307.6165628  +6.5962409     1319.258     2102.811       1892.6     79.01929     158.6074     317.1517      1.795     6.12      856.209     55.91983     176.4521        15     1.594     0.661  33.31   0
       446    459.4628    239.5493 307.7412169  +6.5898281      18158.6     34484.22     37701.57     79.52422     158.6074     317.3094      2.016     6.08     856.9563     55.91983     2193.588        62     2.002     1.132  35.73   0
       447    785.5269    238.8111 307.6057867  +6.6010668     10321.37     19698.52     21901.91     79.01929     158.2916     317.1201      2.024     6.76     855.5638     55.91983      1489.91        48     1.969     1.053  32.07   0
       448    149.3145    233.6859 307.8702522  +6.5818150     1300.464     1771.489     1955.569     79.27216     158.7966     317.3094      1.394     4.19     867.0796     55.91983     219.4778        11     1.173     0.704  58.25   3
       449    146.6779    232.3372 307.8713930  +6.5822830     1669.023     2377.684     2928.717     79.77547     158.7335     317.2463      1.737     3.66     867.0926     55.91983     201.8784        14     1.090     0.850  53.19   3
       450    465.2634    234.1228 307.7389901  +6.5922635     1134.467     2112.369     2735.429     79.77547     158.6705     317.2148      2.054     6.10     856.5502     55.91983     170.7419        14     1.569     0.667  33.22   0
       451    122.5827    231.9555 307.8814149  +6.5816286     934.9442      1803.63     1985.981     79.14582     158.5443     317.0255      2.003     5.73     868.2629     55.91983     145.4338        13     1.548     0.785  26.99   0
       452    922.1389    229.1836 307.5493560  +6.6096123     1161.413     2138.865     2612.345     79.01929     158.6074      317.057      2.029     6.99     852.2041     55.91983       185.45        19     1.678     0.817  41.24   0
       453    583.5851    225.3855 307.6901307  +6.5998430     3607.945     6948.345     6708.182     79.27216     158.3548     317.1833      1.985     6.60     854.5574     55.91983     465.8129        32     1.891     0.958  35.89   0
       454    546.4012    225.4472 307.7055758  +6.5985699     1727.759     3282.947     3154.528     78.89256     158.2916     316.8045      1.920     6.95     854.5574     55.91983     237.3392        20     1.673     0.810  34.51   0
       455    303.8438    226.1258 307.8063156  +6.5901394      848.227     1619.745     1429.773     79.39828     158.7335     317.2779      1.926     6.74     862.3245     55.91983     129.5536        13     1.530     0.834  35.58   0
       456    387.9919    224.2572 307.7714224  +6.5937408      1139.25     2067.945     2352.426     78.89256     158.5443     316.9939      1.906     6.47     858.9561     55.91983     156.3871        16     1.733     0.678  38.58   0
       457    944.3994    222.4904 307.5403325  +6.6131202      2156.12     4098.839     4643.897     78.76562     158.1652     316.9623      2.014     5.86     851.3871     55.91983     312.3769        23     1.786     0.824  32.46   0
       458    890.5688    221.9545 307.5627141  +6.6115418      8893.03     16573.63     17693.56     79.14582     158.7335     317.1201      1.944     6.91     852.5236     55.91983     1279.096        41     1.900     0.963  35.03   0
       459    318.2666    222.2888 307.8004536  +6.5922089     709.5612     1343.631     1539.924     79.64994     158.8596     317.2148      1.870     5.91     861.7729     55.91983     99.41968        11     1.575     0.624  42.42   0
       460    210.7945    222.9205 307.8450770  +6.5883310     460.0413     768.3973     1122.328     79.14582     158.1652     317.0255      1.758     3.77     865.6412     55.91983     89.95032         5     1.534     0.266  22.51   0
       461    977.2184    219.7899 307.5267885  +6.6153320       7725.6     14480.74     15057.87     79.14582     158.3548     317.1201      1.975     7.38     850.3906     55.91983     1109.228        38     1.883     0.942  34.00   0
       462    688.6522    219.7852 307.6466710  +6.6056782     2254.076     4355.903     4518.186     78.89256     158.6705     316.9939      1.981     6.12     855.4775     55.91983     302.7937        26     1.813     0.927  35.02   0
       463    565.4521    221.8986 307.6977810  +6.6006744     762.4678     1372.254     1320.573     79.39828     158.6705     317.4355      1.847     6.61     854.5251     55.91983     96.53296        11     1.614     0.759  23.66   0
       464     16.7027    218.4035 307.9258550  +6.5836536     20072.22     38542.36      42682.2     79.27216     158.3548     316.9308      2.055     6.10     870.3229     55.91983     2396.695        63     1.992     1.171  34.46   0
       465    262.9463    219.1401 307.8235405  +6.5916477     901.0714      1631.63     1271.289     79.64994     158.6074     317.2463      2.050     6.54     863.9603     55.91983     122.4765        15     1.755     0.683  37.51   0
       466    497.3383    214.5058 307.7263262  +6.6014408     1487.913     2742.169     2671.222     79.39828     158.7335     317.2779      1.948     6.88     855.1603     55.91983     198.1166        19     1.730     0.767  31.11   0
       467    829.1827    211.4407 307.5885693  +6.6138297     1493.858     2673.155     2637.652     79.01929     158.4812      317.057      1.884     6.86     853.5427     55.91983     238.3524        21     1.808     0.812  29.61   0
       468    881.3555    210.4908 307.5669263  +6.6159673     1575.304     2748.486     3150.368     79.52422     158.6074     317.3725      1.917     6.49     852.0842     55.91983     261.0305        19     1.765     0.797  32.08   0
       469    509.0472    210.3444 307.7216021  +6.6035522     1947.194     3526.835     3245.109     79.52421     158.6705      317.341      1.973     5.84     854.8551     55.91983     285.1809        24     1.782     0.916  37.50   0
       470    740.7784    207.8806 307.6254158  +6.6123402     31386.07     59428.29     63795.36     79.14582     158.3548     317.1833      1.981     6.60     855.2773     55.91983     4182.872        68     1.996     1.081  34.61   0
       471    343.8913    207.2486 307.7903161  +6.5992810     4324.621     11518.51     13352.01     79.52421     158.5443      317.404      2.554     6.94     860.4869     55.91983     491.6838        58     2.182     1.556  65.54   0
       472    974.5924    206.7587 307.5283162  +6.6206251     2235.827     4213.317      4890.57     78.89256     158.4812     316.9623      2.031     6.61     849.8243     55.91983     300.2748        24     1.788     0.866  37.11   0
       473    908.6857    204.9866 307.5557566  +6.6191540     5877.544     10943.68     11936.29     79.14582     158.4812     317.1517      1.939     7.64     851.2559     55.91983     806.0369        33     1.925     0.872  39.00   0
       474   1012.7770    205.4352 307.5124967  +6.6224472     1386.095     2578.677     2817.919     79.01929      158.418     317.0255      2.009     6.58      848.801     55.91983     184.7122        16     1.707     0.712  33.77  16
       475    452.1090    203.9725 307.7454704  +6.6042710     3897.071     7289.218     7488.303     79.64994      158.418     317.1201      1.990     6.96      855.947     55.91983     525.3591        33     1.845     0.942  34.84   0
       476    226.2905    200.5970 307.8393938  +6.5980702        606.1     982.6373     760.6062     79.01929     158.3548     316.9939      1.758     5.02     865.4579     55.91983     109.1999         8     1.615     0.442  48.07   0
       477    109.4781    195.2040 307.8881009  +6.5963615     3813.172     7185.104     7368.578     79.14582     158.1652      317.057      1.952     6.05     867.7944     55.91983     451.9159        32     1.879     0.954  34.53   0
       478    279.7910    191.9723 307.8174600  +6.6034322     26186.39     51334.19     56237.29     79.14582     158.4812     317.1201      2.047     6.06     863.3402     55.91983      3254.35        70     2.018     1.178  35.42   0
       479    255.0685    193.0581 307.8276935  +6.6021518     5195.181     9861.699     10340.04     79.64994     158.6074     317.2148      1.967     5.75     864.3137     55.91983     663.1605        36     1.894     0.999  36.86   0
       480    928.6028    193.9057 307.5478536  +6.6243954     612.5823     1218.737     1651.031     79.27215     158.3548     316.9623      1.947     5.41     850.2405     55.91983     99.62097        10     1.768     0.467  29.19   0
       481    709.3214    191.3501 307.6390399  +6.6181121     823.2799     1412.767     1449.913     79.52422     158.7335     317.2463      1.798     6.01     854.9667     55.91983     127.4701        12     1.634     0.621  26.37   0
       482    403.8758    187.5218 307.7660623  +6.6094429        39274     75295.95     81031.28     79.77547     158.9225      317.341      2.043     5.97     857.2039     55.91983     5063.671        78     2.023     1.192  34.60   0
       483    159.8605    188.7018 307.8673914  +6.6007442     3027.109     5999.703     6446.023     79.27216     158.6705     317.3725      2.055     5.98      865.742     55.91983      407.923        30     1.915     0.930  33.45   0
       484    423.0025    188.7250 307.7580759  +6.6095889     776.4434     929.0793     1190.615     79.01929     158.1652     317.1201      1.230     3.47     856.4138     55.91983     132.9037         8     0.905     0.637  -4.38   3
       485    420.0523    187.4385 307.7593448  +6.6100210     902.2953     1350.741     1329.961     79.27216     158.7335     317.2463      1.520     3.55     856.4518     55.91983      145.202         9     0.910     0.719 -23.40   3
       486    307.8624    185.1860 307.8060275  +6.6071789     14193.26     27732.37      30720.5     79.01929     158.4812      317.057      2.048     5.87     861.9925     55.91983     1709.348        59     1.996     1.144  36.31   2
       487    315.1208    185.2079 307.8030114  +6.6074140     1740.265     3603.532     4542.446     79.14582     158.1652     317.0886      2.453     8.51     861.6157     55.91983     202.1918        29     1.947     1.599 -83.26   3
       488    743.1895    183.7656 307.6252243  +6.6223784     25682.18      48727.9     51702.04     79.01929      158.418      317.057      1.968     6.95     854.7503     55.91983     3777.781        62     1.992     1.048  34.79   0
       489    691.0687    185.4245 307.6468221  +6.6199472     754.4502     1311.688     1653.934     79.14582     158.5443     317.1833      2.060     6.17     854.8356     55.91983      114.988        12     1.720     0.623  30.66   0
       490    791.6173    184.3815 307.6050843  +6.6237456     762.3219     1625.806     2101.218     79.27216      158.418     317.1833      2.344     6.37     853.8804     55.91983     134.5627        12     1.839     0.619  33.85   0
       491     60.0178    180.9271 307.9091298  +6.6005886     7067.755     14036.07     15047.93     79.01929     158.6074     317.1833      2.071     6.22     869.2045     55.91983     927.8037        47     2.021     1.105  35.88   0
       492     93.9157    179.0928 307.8951103  +6.6024891      1085.01     2415.323     2523.893     79.27216     159.1113     317.3725      2.244     7.23     867.7311     55.91983      182.149        16     1.652     0.886  35.53   0
       493   1002.0816    178.5397 307.5178414  +6.6331957     902.8265     1569.285     1969.845     79.64994     158.6705     317.2779      2.048     6.23      847.949     55.91983     154.9725        14     1.717     0.635  33.02   0
       494   1004.2882    165.3339 307.5173671  +6.6387223     1251.528     1903.379     2411.847     79.52422     158.8596     317.2148      1.554     2.58     847.3105     55.91983     221.0596         8     0.844     0.630 -88.09   3
       495   1001.5623    163.7651 307.5185522  +6.6392791     1612.059     2377.821     3321.284     79.27216     158.5443     317.0255      1.720     3.25     847.3026     55.91983     231.1608        14     1.149     0.761  57.58   3
       496    585.8459    162.0166 307.6913238  +6.6260846     845.4468     1833.214      2030.26     79.01929     158.5443     317.0255      2.100     6.24      853.948     55.91983     136.3575        13     1.638     0.667  40.10   0
       497    278.7327    158.2298 307.8190385  +6.6173290     23936.18     46134.65        50079     79.27216     158.6705     317.2148      2.042     5.90     863.4719     55.91983     2779.907        70     2.013     1.212  34.54   0
       498    593.8548    160.0420 307.6880630  +6.6271686      1591.01     2897.601     3201.544     79.39828     158.6705     317.2779      1.934     6.50     853.9327     55.91983     241.8495        21     1.856     0.739  29.66   0
       499    338.2232    160.1153 307.7942606  +6.6185519     894.1383     1607.703     1911.692     79.39828      158.418     317.1517      2.027     6.07     859.9725     55.91983     147.0034        13     1.434     0.722  21.99   0
       500     23.8767    156.7032 307.9249626  +6.6093713     3489.458     6755.753     7225.766     79.14582     158.8596     317.3094      2.043     5.91     870.8782     55.91983     444.7032        32     1.876     0.953  30.67   0
       501    710.3960    154.8901 307.6398188  +6.6332029     6258.573     11754.18     12965.06     79.01929     158.3548     316.9939      1.995     6.62     854.1044     55.91983     905.4991        39     1.971     0.954  38.34   0
       502    189.2279    156.8076 307.8562692  +6.6149027     685.8282         1008     561.9703     79.14582     158.4812      317.057      1.742     4.47     865.3373     55.91983     100.0502         7     1.061     0.535  24.33   0
       503    264.4334    153.2513 307.8251469  +6.6189034     623.2409     1467.063      1709.62     79.39828     158.7335     317.1517      2.754     6.54     863.9885     55.91983     98.97308        10     2.082     0.577  19.34   0
       504    121.0837    151.8552 307.8847452  +6.6146513     3721.677     7390.216     8169.785     79.52421     158.6705      317.341      2.102     6.57     866.1013     55.91983     448.7439        34     1.894     1.005  36.64   0
       505    651.6508    150.3029 307.6643791  +6.6331282     434.8985     713.7327     611.3955     79.39828     158.6074     317.4355      1.657     4.98      853.841     55.91983     85.68079         5     1.336     0.524  43.13   2
       506    648.0004    148.3226 307.6659623  +6.6338235     562.0086     1113.778     1288.805     78.76562     158.0386     316.9939      2.054     3.82     853.7467     55.91983     102.8615         6     1.251     0.335  19.14   3
       507    460.2572    149.2042 307.7439307  +6.6271590     1222.348     2170.653     2047.132     78.89256     158.5443     316.9623      1.767     6.25     854.0132     55.91983     161.4764        15     1.563     0.702  34.53   0
       508    391.8560    148.1092 307.7723844  +6.6253126     3070.437     6138.162     6886.741     79.39828     158.5443     317.3725      2.131     5.84     856.8597     55.91983     367.6082        32     1.940     0.962  40.45   0
       509    356.3491    146.7725 307.7871805  +6.6246708     2498.376     4823.517     4935.468     79.14582     158.7966     317.1833      1.986     6.17     858.9149     55.91983     315.3643        27     1.825     0.902  32.75   0
       510    110.4291    146.6500 307.8893473  +6.6164413     1439.938     2838.916     3065.641     79.14582     158.7966     317.1517      2.013     7.11     866.2488     55.91983     198.3809        19     1.733     0.817  39.48   0
       511    671.8237    144.4127 307.6561962  +6.6362366     663.9982     1258.789     1088.527     79.27216     158.4812     317.1833      1.968     4.24     853.6795     55.91983     124.3671         7     1.584     0.324  33.11   0
       512   1003.1161    141.2069 307.5186627  +6.6486457     1303.721     2401.406     2159.258     79.14582     158.3548     317.0886      1.935     6.83      846.325     55.91983     170.3134        20     1.854     0.754  36.32   0
       513    208.1723    135.8618 307.8491067  +6.6241892     4243.278      8159.51      8678.23     79.14582     158.6705     317.2148      1.993     6.18     864.9476     55.91983     539.4987        33     1.882     0.956  35.58   0
       514     90.7897    135.6469 307.8978780  +6.6203223     1568.174     3174.229     3508.548     79.01929     158.5443     316.8992      2.022     6.40     866.6942     55.91983     227.4723        23     1.831     0.881  31.96   0
       515    669.9001    134.6702 307.6573229  +6.6401949      4896.29     9150.772     9854.271     79.52421     158.7966     317.2779      1.963     6.30     853.3005     55.91983     680.5791        31     1.821     0.962  32.82   0
       516    818.1146    134.6181 307.5957466  +6.6451807     770.9633     1376.491     1652.929     79.14582      158.418     317.1833      1.905     5.90     850.7609     55.91983      122.813        12     1.750     0.559  30.29   0
       517    622.0953    131.9486 307.6772755  +6.6397159     7226.921     13860.77      15290.9     79.39828     158.6074     317.4986      1.990     7.08     853.0826     55.91983     1047.244        42     1.920     1.006  36.66   0
       518     20.8447    131.2301 307.9270841  +6.6197867     715.1902     1172.499     1332.685     79.14582     158.6705     317.1201      1.672     5.49     870.7271     55.91983     117.5825         8     1.563     0.544  22.19   0
       519    349.2059    127.6814 307.7907920  +6.6323133     2863.084      5957.89     6674.439     79.14582     158.2284     317.0255      2.151     6.11     859.4491     55.91983       395.77        34     1.814     1.191  43.70   0
       520    996.3524    127.0809 307.5219462  +6.6542527     597.6998     1206.407     945.0038     79.52421     158.6705     317.2779      2.035     6.56     845.9406     55.91983     101.9758         8     1.431     0.844  42.94   2
       521    532.6855    127.7025 307.7145645  +6.6384693     1013.298     1334.059     1714.277     79.52422     159.0484     317.3094      1.323     2.52     852.8502     55.91983     163.7422         8     0.748     0.691 -73.52   3
       522    530.0089    126.2529 307.7157253  +6.6389780     1234.343     1796.318     1906.588     79.01929     158.5443     316.9623      1.504     4.08     852.8043     55.91983     152.9047        11     1.003     0.823  55.49   3
       523    625.6813    123.4274 307.6760723  +6.6433547     42309.23     79253.19     86193.12     79.39828     158.4812     317.2148      1.994     6.48     852.7725     55.91983     5385.714        85     2.027     1.174  34.07   0
       524    304.7224    117.0378 307.8096315  +6.6352118     2687.239     5286.145     5831.988     79.39828     158.7335     317.2463      2.060     6.23     862.2789     55.91983     343.3914        30     1.934     0.911  36.36   0
       525    704.6150    111.8868 307.6436660  +6.6507659     831.1747     1239.772     671.1318     79.14582      158.418     317.1517      1.675     5.71      852.082     55.91983     111.1316        12     1.461     0.628  34.27   0
       526    676.0821    110.7449 307.6555590  +6.6502812     1064.421     1964.832     1852.027     79.52421     158.6705     317.2779      2.082     6.01     852.2808     55.91983     146.8762        14     1.619     0.628  36.62   0
       527      3.1110    100.4120 307.9354941  +6.6319127     700769.5      1426069      1526991     79.27216     148.7762     266.1314      2.095     6.85     871.4709     55.91983     62713.62       304     2.158     1.634  60.67  28
       528    690.1219    107.4933 307.6498352  +6.6520943     2589.042     4834.401     4787.875     79.27216     158.8596     317.3094      1.913     6.39     851.9836     55.91983     357.0799        25     1.781     0.809  33.05   0
       529    431.7516     98.3530 307.7574871  +6.6471981     3192.314     6046.086     6424.296     79.52422     158.5443     317.2779      1.972     6.41     853.8115     55.91983     425.6842        32     1.889     0.943  34.99   0
       530    904.4011     93.9038 307.5612629  +6.6648789     2971.627     5771.097      6463.58     79.01929     158.2916     316.8676      2.050     7.46      847.368     55.91983     445.2289        28     1.913     0.815  38.81   0
       531    886.2574     94.8384 307.5687700  +6.6638862     1636.555     3166.757     3159.005     79.52421     158.7335     317.2463      1.968     6.03     847.5462     55.91983     288.2476        22     1.857     0.771  31.11   0
       532    596.5070     92.2346 307.6892428  +6.6552559     1440.818     2688.885     2704.556     79.64994     158.5443     317.3094      1.985     7.34     851.6976     55.91983     196.2687        21     1.853     0.814  36.71   0
       533    395.2969     90.3276 307.7729031  +6.6492866     1616.554     2964.552     3205.986     79.14582     158.7966     317.2148      1.933     6.91     856.0938     55.91983     237.2302        20     1.663     0.805  30.15   0
       534    240.5747     90.7386 307.8371694  +6.6439117     565.7451     764.3506     1363.206     79.14582     158.6074     317.1833      1.226     3.49     864.1246     55.91983     85.63354         5     0.742     0.474  75.72   0
       535    143.0826     86.9771 307.8777992  +6.6421806     2534.426     5028.648     5084.199     79.39828     158.3548     317.1517      2.018     5.67     863.8368     55.91983      311.433        28     1.810     0.945  30.94   0
       536     24.9668     84.8073 307.9269426  +6.6390933     9695.241     18738.34      20870.5     79.01929     158.5443      317.057      2.034     6.14     869.2936     55.91983     1301.454        47     1.968     1.063  37.47   0
       537    291.5350     85.6359 307.8161701  +6.6477339     1124.622      1956.32     2545.189     79.39828     158.6074     317.3094      2.044     6.13     863.1806     55.91983      156.582        15     1.568     0.674  30.20   0
       538    826.6761     79.5714 307.5940377  +6.6681968     4853.643     9056.145     9953.048     79.39828     158.7335     317.2779      1.957     6.95     847.8049     55.91983     648.1377        33     1.859     0.923  32.36   0
       539    771.9534     79.9242 307.6167624  +6.6662193     2563.317     4933.851      5375.05     79.39828     158.7335     317.2463      2.014     7.09     849.0922     55.91983     389.4232        24     1.812     0.791  32.54   0
       540    417.0053     80.4170 307.7642182  +6.6541084     730.9041     1436.007     1302.746     79.14582     158.3548     317.0886      2.080     6.10     854.6403     55.91983     112.6031        11     1.594     0.657  40.49   0
       541    892.7173     79.3504 307.5666057  +6.6704975     509.5658     663.7806     162.4367     79.52422     158.6705     317.2779      1.362     4.54     846.8127     55.91983     86.07471         5     0.822     0.713  83.22   0
       542    533.3251     77.5339 307.7159880  +6.6592058     856.4191     1404.233     1659.836     79.64994     158.6705     317.2148      1.705     3.70     851.4103     55.91983     129.8677         9     1.034     0.590  81.12   2
       543     65.3209     76.6164 307.9104551  +6.6438367     2540.724     4842.153     5100.662     79.14582      158.418     317.1201      1.989     6.12     866.5524     55.91983     314.6216        28     1.910     0.881  39.33   0
       544     48.4815     76.7618 307.9174460  +6.6432086     653.6514     1450.192     930.8447     79.52422     158.7335     317.1833      2.197     2.26     867.5008     55.91983     135.5768         6     0.769     0.499  84.30   2
       545    426.9664     76.5513 307.7602100  +6.6560393     514.0253     1197.623     1146.978     79.27216     158.6705     317.1833      2.127     5.01     854.3228     55.91983     101.5368         9     1.683     0.422  32.38   0
       546    589.1623     73.3301 307.6929305  +6.6628154      960.967     1812.805     1927.929     79.39828     158.6705     317.3094      1.993     6.68     850.9431     55.91983     138.3536        16     1.835     0.682  40.50   0
       547      7.4828     72.2362 307.9346316  +6.6436938     2143.114     3985.963     4739.821     79.52422     158.6074     312.9593      2.037     6.29     869.4381     55.91983      269.009        26     1.888     0.863  32.60  16
       548    766.5820     67.4870 307.6194120  +6.6711749     1491.604       2925.7     3195.483     79.27216      158.418     317.1201      2.015     6.79     848.6586     55.91983     217.3816        19     1.902     0.680  31.64   0
       549    408.5975     68.2729 307.7681207  +6.6588401     766.1782     1457.944     1333.733     79.01929     158.2284     317.0886      1.898     3.88     855.5102     55.91983     138.4167         7     1.093     0.563  37.53   2
       550     80.2433     68.0696 307.9045448  +6.6478689     704.4945     1192.805     745.5724     79.39828     158.6705     317.3094      1.808     7.05     865.3163     55.91983     92.04071        12     1.742     0.800  26.72   0
       551    104.3298     66.5068 307.8945910  +6.6493263     766.2139     1383.515     1484.726     79.52422     158.7966     317.2463      2.067     5.31     864.2575     55.91983       116.83         9     1.523     0.524  33.07   0
       552     92.9506     61.0613 307.8995026  +6.6511911     7390.183     14388.82     15354.01     79.52421     158.6074     317.3094      2.018     6.06     864.3538     55.91983     994.4653        44     1.950     1.074  37.40   0
       553    422.2138     60.9197 307.7627114  +6.6623339     2084.819     4027.631     4042.307     79.14582      158.418      317.057      1.982     5.81     854.8932     55.91983     264.1589        26     1.926     0.853  34.69   0
       554    635.8765     53.1939 307.6741991  +6.6726967     14274.15      27210.4     29689.87     79.14582     158.1652     317.0886      2.011     6.41     849.8057     55.91983     1780.628        53     2.005     1.021  35.15   0
       555    259.9375     55.3583 307.8303196  +6.6591720     1052.683     2363.933     3586.418     79.52421     158.6074     317.3094      2.852     6.18     863.5413     55.91983     141.5228        14     1.780     0.603  33.24   3
       556    254.0215     49.6271 307.8329710  +6.6613392     1546.677     3363.721     5070.125     79.01929     158.4812     317.2148      3.173     7.26     863.5295     55.91983     209.3862        22     1.908     0.773  33.61   3
       557    535.6177     49.1558 307.7159910  +6.6710003     4184.838     7868.217     8454.332     79.14582     158.5443     316.9939      2.008     6.18     850.4223     55.91983     547.6862        31     1.892     0.895  33.57   0
       558    732.6020   1020.8076 307.6015169  +6.2763908     1043.301     1763.093     1444.525     78.89256     157.3405     280.4121      1.771     6.39     879.2637     55.91983     138.6345        14     1.657     0.691  32.39  16
       559      3.1938     47.4546 307.9372523  +6.6537810     986.3015     1866.993     1702.867     79.01929     149.7817     267.1447      1.898     5.96     867.8683     55.91983      165.571        14     1.474     0.679  33.92  24
       560    441.1703     44.7824 307.7553795  +6.6696341      17630.1     34227.79     36469.31     79.14582     158.4812     317.1833      2.018     6.33     854.1169     55.91983     2378.178        53     1.960     1.081  34.29   0
       561    918.7811     44.8264 307.5569345  +6.6856245     1418.965     2580.235      2637.01     79.14582     158.4812     317.1517      1.846     6.72     844.9349     55.91983      255.331        18     1.782     0.710  35.07   0
       562    323.3137     45.8671 307.8043093  +6.6652237     620.6467     681.0311     1095.033     79.64994     158.9225     317.2779      1.166     3.41     861.2463     55.91983     104.3372         5     0.774     0.434 -75.13   0
       563     28.7048     45.3332 307.9267256  +6.6555179     1317.209     1705.393     2185.033     79.52422     158.8596     317.2463      1.190     3.55     866.5676     55.91983      225.752        10     0.944     0.813   5.55   3
       564     25.6885     43.7126 307.9280335  +6.6560852     1608.773     2047.035     2378.794     79.27216     159.1742      317.341      1.346     3.11     866.6379     55.91983     262.1785        12     0.992     0.791 -83.00   3
       565    320.0079     44.6337 307.8057244  +6.6656217     769.6457     1205.054     1334.288     79.01929     158.4812      317.057      1.820     5.34     861.4335     55.91983     97.64728         8     1.031     0.779  25.41   1
       566    552.8168     44.0494 307.7090170  +6.6736861     504.9835     791.6041     895.0935     79.01929     158.7335     316.9939      1.435     4.88     849.9827     55.91983     90.85797         6     1.135     0.612 -31.97   0
       567    249.5108     41.5154 307.8351190  +6.6645367     2419.403     4836.032     5807.173     79.27216     158.9225      317.341      2.348     6.14     863.4632     55.91983     300.1992        28     1.876     0.960  39.87   0
       568    301.4421     39.2781 307.8136187  +6.6672084     845.5712     1542.023       2019.6     79.39828     158.6705     317.3094      2.011     4.51      862.619     55.91983      130.551         7     1.053     0.550  60.70   2
       569    939.1994     34.5677 307.5487947  +6.6905431     773.9483     1353.534     1285.591     78.89256     158.4812     316.9939      1.886     5.45      843.595     55.91983     139.6995         9     1.465     0.572  33.98   0
       570    690.9451     34.3032 307.6519538  +6.6823429      1410.96     2849.308     2888.168     79.39828     158.6705     317.4355      1.988     6.89     848.2349     55.91983     197.2108        18     1.685     0.790  33.61   0
       571    622.1672     43.1175 307.6802341  +6.6763976     2566.861     5135.921     6299.789     79.52421     158.5443     317.1833      2.289     6.58     849.4953     55.91983     332.6412        30     1.849     1.031  38.04   2
       572    201.9790     29.9029 307.8552592  +6.6677308     497.9797     959.0352     313.9283     79.39828     158.4812      317.057      2.062     4.91     863.2256     55.91983     100.0695         7     1.600     0.427  25.45   0
       573    363.6447   1019.1432 307.7547495  +6.2647043     1468.247     2671.196     2973.432     79.52421     158.6705     299.5967      1.974     7.18     884.4431     55.91983     196.3824        20     1.730     0.834  35.86  16
       574    924.8860     24.9372 307.5550650  +6.6940412     3239.652     5850.063     5495.569     79.64994     158.7966     317.2779      1.864     7.66     843.8674     55.91983     476.8313        30     1.880     0.873  35.86   0
       575    523.5207     25.5280 307.7218129  +6.6803502     2342.133      4271.84      4610.21     79.77547     158.9225     317.2148      1.887     5.60     850.0541     55.91983     302.1625        26     1.716     0.952  35.72   0
       576    725.4434     23.5990 307.6379797  +6.6879188     1421.651     2694.067     3154.775     78.89256     158.3548     316.8676      1.977     7.15     847.2075     55.91983     201.5594        19     1.744     0.821  31.42   0
       577    461.6696     23.9634 307.7475640  +6.6789191      1401.67     2535.396     2911.629     79.39828     158.7335      317.341      1.947     6.47     852.7914     55.91983     202.2175        17     1.695     0.694  34.93   0
       578    989.6094     21.3505 307.5282919  +6.6976853     1538.865     2932.415     3267.888     79.01929     158.4812     316.9308      1.998     5.90     839.0081     55.91983     212.2405        22     1.736     0.876  38.21   0
       579    440.1277   1022.7145 307.7228772  +6.2657983     679.8235     1194.777     1075.409     78.89256     139.6877     253.9721      1.705     5.32     882.8845     55.91983     119.8461         9     1.682     0.475  28.88  24
       580    750.3915   1008.6614 307.5945387  +6.2820017     6090.232     12019.15     13052.83     78.89256     158.4812     317.0255      2.075     5.92     878.9341     55.91983     727.0201        44     1.925     1.130  35.27   0
       581    331.5351     16.7291 307.8018767  +6.6775313     866.3242     1660.797     1823.957     79.52422     158.7335     317.2463      2.515     6.33     860.6848     55.91983     114.3983        13     1.500     0.749  12.57   0
       582    545.8827   1009.2825 307.6794238  +6.2748933      3346.79     6758.569     8007.544     79.27216     158.9225      317.341      2.195     5.89     883.3135     55.91983     403.0894        36     1.921     1.086  37.25   3
       583    543.0173   1001.5160 307.6808745  +6.2780041     6575.807     12446.29     13882.13     79.14582     158.3548     317.1833      1.994     5.95     883.0796     55.91983     796.4686        36     1.837     1.005  34.91   2
       584    515.1961   1010.1293 307.6921352  +6.2735143     873.9035     1576.853     1670.263     79.01929     158.2916     317.0886      2.088     4.92     883.1285     55.91983     117.5529        10     1.047     0.722  45.02   2
       585    296.0325   1007.9073 307.7831972  +6.2670714     11527.34     22840.79     25726.23     79.64994     158.5443     317.2779      2.137     6.16     884.4366     55.91983     1439.585        66     2.013     1.469  21.91   0
       586    811.7064   1008.0865 307.5691015  +6.2842908     877.6046      1569.06     1299.873     79.52421     159.1113      317.341      1.957     6.55     877.9693     55.91983     110.5828        13     1.498     0.803  34.49   0
       587    421.6856   1009.0544 307.7309932  +6.2708196     761.5742     1462.903     1575.134     79.52421     158.6074      317.404      2.165     4.59     882.8187     55.91983     106.9962         8     0.837     0.716   2.31   2
       588    911.6912   1002.2230 307.5277862  +6.2900550     6662.443     13096.38     14530.98     79.52422     158.4812     317.0886      2.116     5.80     875.0602     55.91983     754.9388        50     2.015     1.211  36.53   0
       589    384.8570     15.1892 307.7797744  +6.6799604     653.3639      1233.45     600.2181     78.89256     158.6074     316.9623      1.777     5.99     857.8683     55.91983     103.0405         8     1.429     0.707  15.44   0
       590    267.4215   1005.6139 307.7951524  +6.2670564     789.1353     1406.641     1572.695     79.27216     158.4812     317.1833      2.110     5.64     884.0938     55.91983     114.6099        11     1.488     0.602  38.76   0
       591    885.2463    998.3593 307.5388951  +6.2907665     9462.152     19017.93     21129.11     79.39828     158.6705     317.0886      2.134     5.75     874.9972     55.91983     1078.003        57     2.025     1.251  37.07   0
       592   1007.0386    997.8833 307.4883445  +6.2950318     3483.015      7124.16     7711.459     79.52421     158.6074     317.2148      2.165     5.82     872.2323     55.91983     388.6472        38     2.061     1.093  31.70   0
       593    598.0243    998.4541 307.6581402  +6.2811128     1077.599     1954.303     2565.585     79.01929     158.6705      317.057      2.023     5.98      880.774     55.91983     147.7102        13     1.529     0.658  34.29   0
       594    529.4672    997.1921 307.6866454  +6.2793350     3343.117     6637.896     7731.833     79.01929      158.418     317.0886      2.123     6.21     882.8627     55.91983     453.9288        35     1.905     1.071  26.38   0
