#   1 NUMBER                 Running object number                                     
#   2 X_IMAGE                Object position along x                                    [pixel]
#   3 Y_IMAGE                Object position along y                                    [pixel]
#   4 ALPHA_J2000            Right ascension of barycenter (J2000)                      [deg]
#   5 DELTA_J2000            Declination of barycenter (J2000)                          [deg]
#   6 FLUX_APER              Flux vector within fixed circular aperture(s)              [count]
#   9 FLUXERR_APER           RMS error vector for aperture flux(es)                     [count]
#  12 FLUX_RADIUS            Fraction-of-light radii                                    [pixel]
#  13 FWHM_IMAGE             FWHM assuming a gaussian core                              [pixel]
#  14 BACKGROUND             Background at centroid position                            [count]
#  15 THRESHOLD              Detection threshold above background                       [count]
#  16 FLUX_MAX               Peak flux above background                                 [count]
#  17 ISOAREA_IMAGE          Isophotal area above Analysis threshold                    [pixel**2]
#  18 A_IMAGE                Profile RMS along major axis                               [pixel]
#  19 B_IMAGE                Profile RMS along minor axis                               [pixel]
#  20 THETA_IMAGE            Position angle (CCW/x)                                     [deg]
#  21 FLAGS                  Extraction flags                                          
         1    183.5547     27.5775 307.8652557  +6.6677115     4707.602     14149.08     16584.05     89.97472     180.3801     360.4733      2.685     6.80     1161.619      63.5709     450.7366        67     2.052     1.909  54.25   0
         2    928.7001     24.6537 307.5554079  +6.6938354     2678.595     5618.771     5763.845     90.26172     180.3801     360.9036      2.182     5.53     1134.731      63.5709     285.4269        36     1.778     1.336  52.71   0
         3    993.6132     21.0584 307.5285261  +6.6974810     1344.015     3080.232     2842.595      89.6868     180.3084     360.3298      2.178     8.29     1128.646      63.5709      170.257        23     1.571     1.223  54.92   0
         4    713.0477     17.7490 307.6453444  +6.6894944     3890.022     9747.394     11093.51     90.54781     180.2367     360.6526      2.438     6.12     1137.905      63.5709     424.2491        50     1.914     1.591  37.36   0
         5    633.1348     17.1087 307.6786068  +6.6870897      1788.26     4656.068     5322.417     90.26172     180.5951     360.6526      2.587     6.55     1140.709      63.5709     188.0823        42     1.831     1.582  71.47   0
         6    433.5769     13.5147 307.7617351  +6.6818986     2621.867     7669.749     9189.896     90.40488     180.0931     360.5092      2.677     7.15      1151.88      63.5709     295.3331        49     1.961     1.712  47.54   0
         7     34.7139     13.1964 307.9276480  +6.6686474     4122.314     11574.72     13622.91     89.83087     179.9494     360.3298      2.605     6.72     1161.007      63.5709     403.1018        60     2.028     1.786  41.89   0
         8    329.0010      9.5086 307.8053682  +6.6800489     4852.943     9736.327     11308.82     89.54249     179.8775     360.4016      2.135     6.33     1160.776      63.5709     525.9479        32     1.975     1.033  33.01  19
         9    331.6761      7.6899 307.8043167  +6.6808892     5079.149     10416.91     12066.49     90.40488     180.6667       357.23      2.185     8.48     1160.748      63.5709     494.8447        39     2.344     1.051  36.14  19
        10    105.3181      8.1621 307.8984519  +6.6730983     1058.578     2797.374     3992.684     90.40488     180.4518     359.6113      3.490     8.69     1162.166      63.5709     155.5846        16     1.846     1.144  17.54  18
        11    396.7247      5.2654 307.7773415  +6.6840696     917.3805     2346.142     2474.144     90.54781     180.3801     333.5673      2.385     6.90     1156.837      63.5709     129.2911        15     1.628     0.821  21.26  18
        12    657.1708      2.4932 307.6690995  +6.6939259       5398.2     10752.32     11566.69     90.54781     161.5451     292.1938      2.094     6.42     1139.985      63.5709     599.2767        36     1.909     1.211   1.96  24
        13    821.4567      1.8395 307.6007830  +6.6996789     990.7149     1624.243     2080.361     85.40295     152.1458     280.8654      1.800     6.17     1135.468      63.5709     137.4374        12     1.266     0.844  22.17  24
        14    257.6315      1.4563 307.8353253  +6.6809796     1608.014     2294.284      1794.27      80.5722     145.6315     273.6829      1.526     5.06     1162.444      63.5709     259.7723        12     1.415     0.550   6.02  24
        15   1011.3569    997.2899 307.4885047  +6.2950719     4700.736     7829.287     7903.048     90.40488     180.3084     360.6885      1.790     3.92     1186.069      63.5709     545.0823        31     1.450     1.148  33.15   0
        16    961.4515   1022.6303 307.5084010  +6.2829506     6234.576     9085.625     9365.028      89.6868     160.0169     290.1063      1.624     3.92     1187.297      63.5709     728.0575        26     1.410     1.008  23.03  24
        17    721.3294   1021.1615 307.6082538  +6.2755565     2130.576      3958.08     5155.754     90.26172     176.9785     314.2023      2.227     4.64     1191.586      63.5709     253.9614        25     1.483     1.120  26.80  26
        18    246.5699   1023.2034 307.8055042  +6.2588398      881.978     1304.219     848.0969     84.33633     151.0367     279.8044      1.517     4.22     1191.969      63.5709     143.2468         9     0.911     0.772   1.52  24
        19    602.3541    998.2216 307.6584729  +6.2810551     986.4447      1840.78      1687.87     89.97472     180.3801     360.4733      1.924     6.55     1192.159      63.5709     147.6115        11     1.187     1.015  63.94   0
        20    643.7743    996.1930 307.6413252  +6.2832756      1137.27     2022.144     2153.754     89.83087     180.2367     360.4374      1.853     5.13     1191.451      63.5709     154.2434        16     1.316     1.020  76.26   0
        21    487.2668    993.4703 307.7064663  +6.2791707     1679.918     3215.451      2965.09     90.40488     180.4518     360.6526      1.983     5.73      1191.68      63.5709     196.4606        21     1.391     1.104  21.23   0
        22    921.4648    985.3827 307.5262666  +6.2969960     38265.49     65950.83     70590.34     89.83088     180.3084     360.4733      1.874     3.85      1186.29      63.5709     4285.316        74     1.718     1.374  36.73   0
        23    229.4662    984.2245 307.8139250  +6.2743568     1045.221     2218.823     2310.914     89.97472     180.3801     360.5809      2.195     8.10     1190.891      63.5709     139.2544        18     1.526     1.202  70.85   0
        24    767.6207    977.2599 307.5904838  +6.2952233      5050.74     10091.17     11653.11     89.97472     180.3084     360.5451      2.167     4.67     1188.476      63.5709     572.3958        46     1.778     1.530  82.93   0
        25    819.6493    979.2163 307.5687927  +6.2961501     1821.981     3394.091     3275.672     89.83087     180.4518     360.2939      1.950     5.29     1187.765      63.5709     195.4265        21     1.337     1.170  35.77   0
        26    237.5745    976.8311 307.8108039  +6.2776806     1033.215     1881.612     1716.625     89.83087     180.1649     360.4733      1.905     5.24     1190.953      63.5709     136.0256        13     1.295     0.896  70.79   0
        27     62.1202    974.6883 307.8837972  +6.2726793     1998.727     4224.438     4452.364     90.11833     180.6667     360.7961      2.079     5.86     1188.922      63.5709     244.7075        30     1.642     1.326  53.92   0
        28    955.7516    972.1306 307.5124581  +6.3036079     6045.983     10005.82     10204.57     90.40488     180.3084     360.6885      1.766     3.84     1185.394      63.5709     721.3318        35     1.499     1.164  31.05   0
        29    929.5679    963.8196 307.5236195  +6.3061672      1932.53     3646.981      3794.51     89.83087     180.1649     360.4733      1.978     5.62     1185.585      63.5709     232.3419        23     1.626     1.048  38.40   0
        30    262.5652    960.3938 307.8009706  +6.2853033     2756.272     6208.324     6956.966      89.5425     180.0931     360.4016      2.295     5.95     1191.228      63.5709     316.7002        41     1.777     1.543  54.02   0
        31    650.3445    959.8033 307.6398146  +6.2985169      3227.95     6436.004     6574.673      89.6868     180.1649     360.2939      2.064     4.68     1189.468      63.5709     375.5946        34     1.673     1.284  41.38   0
        32    789.0250    960.1849 307.5821589  +6.3029857     1130.572     2088.937     2519.677     90.11833     180.1649     360.5809      2.039     5.80     1187.523      63.5709     132.3643        14     1.200     0.897  18.40   0
        33   1000.4153    959.6744 307.4943095  +6.3102362       738.63     1220.401      1962.09     89.83087     180.0931     360.4733      1.740     3.72     1184.059      63.5709     132.8965         7     0.986     0.466  79.44   0
        34    472.5331    958.6207 307.7137606  +6.2930641     687.8715     1443.313     1672.081     89.97472     180.3801     360.5809      2.200     6.01     1190.521      63.5709     80.61475         8     1.231     0.826  34.19   0
        35     31.6154    957.9582 307.8970396  +6.2785609     1606.464     3234.913     3515.457     89.83087     180.0931     360.4016      2.131     5.79     1188.566      63.5709     184.5231        24     1.584     1.121  39.83   0
        36    575.4482    952.3679 307.6711945  +6.2990851      1139.26     2391.188     1915.322     90.11833     180.3801     360.5809      1.985     6.57     1190.024      63.5709     179.5299        19     1.500     1.163   7.44   0
        37   1006.6528    952.7736 307.4919474  +6.3132924     717.4468     1471.135     1807.929     89.97472     180.5234     360.5451      2.325     4.16     1183.506      63.5709     91.67993         6     0.736     0.673 -21.20   0
        38    614.4564    948.6108 307.6551068  +6.3019390     1041.179     1877.126     1846.819      89.6868     180.3084     360.2939      1.958     6.21     1189.764      63.5709     165.3218        14     1.553     0.911   6.80   0
        39    294.2682    945.5640 307.7882930  +6.2924872     830.0446     2050.726     2553.146     90.26172     180.4518     360.7602      2.432     5.29      1191.65      63.5709     143.7744         8     0.995     0.795 -12.55   2
        40    760.7451    942.0795 307.5945200  +6.3095169      712.003     1239.366     797.4132     90.54781     180.3801     360.6885      1.664     4.95     1187.001      63.5709      97.8833         6     1.238     0.561  60.99   0
        41    898.5320    939.0065 307.5373498  +6.3153771     5750.635     10264.97     10321.54     89.83087     180.0213     360.4374      1.877     4.16     1185.356      63.5709     648.9126        37     1.613     1.188  34.50   0
        42    434.7753    936.3565 307.7302024  +6.3009918     1395.174     2984.773     3049.386     89.97472     180.3801     360.5092      2.193     7.80     1190.548      63.5709     169.1276        20     1.469     1.275  64.36   0
        43    336.3116    934.9013 307.7711769  +6.2982969     6175.054     13509.79     14801.97     90.40488     180.8813     360.6526      2.221     5.10     1191.497      63.5709     663.5438        51     1.803     1.533  44.30   0
        44    256.3675    933.9649 307.8044362  +6.2960054     4545.436     9786.509     10564.38     89.97472     180.0931     360.3657      2.223     5.04     1190.622      63.5709     512.0631        48     1.803     1.512  44.31   0
        45    583.3987    928.0540 307.6687057  +6.3093876     705.7224     1221.232      823.174      89.6868     180.0931     360.2221      1.528     2.63     1188.916      63.5709     119.6305         5     0.844     0.487  85.50   0
        46    914.0082    923.7380 307.5314275  +6.3221954     786.6539     1541.201     2020.365      89.6868     180.1649     360.4374      2.320     7.01     1184.705      63.5709     105.3535        10     1.691     0.815  37.04   0
        47    870.5544    922.8304 307.5495204  +6.3211230     767.9021     1342.241     1240.328     89.97472     180.4518     360.5092      1.905     4.81     1185.094      63.5709     112.3553         6     1.131     0.580 -22.66   0
        48    750.5593    917.1284 307.5995897  +6.3194773     1260.673     2750.464      3510.37     90.26172     180.3801     360.7244      2.499     7.75     1185.667      63.5709     166.2141        18     1.453     1.156  71.22   0
        49    981.9733    912.7339 307.5035440  +6.3290003     1034.053      1827.24     1737.628     89.97472     180.2367     360.5451      1.804     7.48     1182.136      63.5709     125.4725        16     1.503     1.042  64.60   0
        50      2.1967    914.6966 307.9107262  +6.2954305     751.6727     1105.651      1127.62     88.67171     157.1629     286.9238      1.655     3.66     1187.852      63.5709     129.8002         5     1.187     0.325  78.41  16
        51    669.1959    910.5977 307.6336287  +6.3194586     1680.127     3265.279     3228.841      89.6868     179.8775     360.3657      2.038     5.51     1186.686      63.5709     177.8229        26     1.514     1.225  43.26   0
        52    535.9445    912.3578 307.6889572  +6.3142814     840.7047     1307.862      1349.44     90.26172     180.3084     360.6885      1.605     4.28      1188.61      63.5709     143.3163         7     0.931     0.562  36.15   0
        53     65.9586    907.1105 307.8844811  +6.3007035     1964.964      4055.14     4204.931     90.40488     180.3084     360.6885      2.116     5.68      1188.19      63.5709     220.7552        30     1.687     1.240  40.75   0
        54    209.7469    906.1450 307.8247502  +6.3059265     1364.928     2946.937      2875.04     90.69052     180.3084     360.6168      2.150     6.65     1189.494      63.5709     181.6366        19     1.616     1.187  33.67   0
        55     83.7046    905.9760 307.8771436  +6.3017676     1316.844      2904.35     2660.774     90.54781     180.0931     360.5092      2.162     7.71     1188.334      63.5709     165.6592        20     1.591     1.047  64.55   0
        56    946.8553    905.7692 307.5183747  +6.3307067     596.3375     1025.458     437.8437     90.26172     180.4518     360.6168      2.009     4.46     1183.197      63.5709     88.50818         5     1.427     0.396   6.07   0
        57    663.7545    899.7285 307.6362549  +6.3237639     4898.307     10018.51        10838     90.40488     180.3801     360.6526      2.153     4.65     1186.384      63.5709     529.2681        46     1.745     1.441  58.23   0
        58     24.8663    898.7795 307.9018413  +6.3027624     817.1461      1695.18     1853.737     89.97472     180.3801     360.5451      2.308     6.61     1187.684      63.5709     110.2018         9     1.350     0.907  46.55   0
        59    901.5138    895.8156 307.5375551  +6.3333061     2255.164     4140.068     4452.206     89.97472     180.0931     360.5451      1.980     4.88     1183.717      63.5709     278.6152        26     1.557     1.078  44.44   0
        60     37.4027    896.4760 307.8967085  +6.3041344     771.2675     1546.061     1363.243     89.83088     179.8056     360.5451      1.881     6.63     1187.752      63.5709     111.1266         9     1.371     0.898  -3.79   2
        61    346.9845    893.1672 307.7681446  +6.3158821     9866.209     22595.04     25676.12     89.97472     180.0931     360.5092      2.309     5.24     1190.858      63.5709     1089.417        60     1.869     1.604  45.68   0
        62     82.0943    894.2018 307.8782099  +6.3065738     860.5029     1961.606     1948.159     89.83087     180.0213      360.258      2.450     6.65     1188.216      63.5709     117.2272        10     1.288     0.962  54.18   0
        63    217.7669    891.9297 307.8218955  +6.3120634     781.3105     1527.235     1955.352     90.26172     180.3801     360.6885      2.249     5.92     1189.603      63.5709      114.261         9     1.266     0.778   0.88   0
        64    110.8764    883.5012 307.8666078  +6.3119570     1010.268     2153.964     2402.208     89.97472     180.5234     360.6526      2.270     6.10     1188.403      63.5709     138.4454        11     1.551     0.675  52.65   0
        65    424.8985    883.2731 307.7360917  +6.3225743     730.6264     1431.327     1548.198     89.97472     180.5234     360.6168      1.833     5.10     1188.772      63.5709     108.3859         6     1.133     0.648 -22.58   0
        66    891.6371    877.5092 307.5422731  +6.3405343     1705.822     2960.619     2710.552     90.54781     180.3084     360.6885      1.812     5.14     1183.026      63.5709     216.2659        21     1.476     1.011  74.41   0
        67    862.6946    877.1940 307.5543147  +6.3397004     1576.261     2946.513     2929.058     90.11833     180.0213     360.4374      1.936     7.25     1183.045      63.5709     163.6049        23     1.641     1.111  42.22   0
        68     93.8870    877.5439 307.8738702  +6.3138459     1544.126     3300.723     3244.557     90.40488     180.3084     360.7961      2.143     6.44     1188.255      63.5709     204.1431        22     1.493     1.247  -5.23   0
        69    825.8759    876.4876 307.5696433  +6.3387652     2287.647     4423.737     4610.055     90.40488     180.7382     360.7602      1.995     5.02     1183.076      63.5709     243.7954        29     1.617     1.166  27.13   0
        70    561.9257    868.1809 307.6796407  +6.3333861     209739.6     467945.7     525155.2     89.97472     180.2367     360.5809      2.284     5.06     1187.049      63.5709     22431.26       173     2.036     1.800  39.84   0
        71    406.2977    870.8314 307.7442416  +6.3270878     4589.542      10582.7        11695     90.54781     180.1649     360.7602      2.309     5.40      1188.68      63.5709     499.4689        49     1.783     1.588  40.52   0
        72    650.3905    871.3600 307.6427613  +6.3350284     857.3128         1459     985.1095      89.6868     180.1649     360.3657      1.808     5.50     1185.456      63.5709      121.829         9     1.403     0.610 -48.67   0
        73    349.4706    869.3435 307.7679125  +6.3257997      7647.39     17899.26     20276.42     90.54781     180.3084     360.6168      2.382     5.53     1190.455      63.5709     819.3197        56     1.906     1.590  40.98   0
        74    900.1823    864.0944 307.5391698  +6.3463567     4165.048     7490.451     8396.367     90.26172     180.1649     360.5092      1.964     4.22      1182.42      63.5709     516.4397        33     1.413     1.303  22.21   0
        75    642.6865    859.4844 307.6463619  +6.3396736     2231.994     5162.373     5424.678     90.11833     180.5951     360.7244      2.253     5.73     1184.964      63.5709     232.3514        34     1.686     1.373  16.14   0
        76    830.8360    858.2825 307.5681909  +6.3464458     1323.243     2531.424     3213.787     90.40488     180.3084     360.6168      2.192     5.88     1182.122      63.5709     145.3273        17     1.322     0.999  38.98   0
        77    635.2495    854.5716 307.6496182  +6.3414533     1320.396     3322.015     4923.328     89.97472     180.4518     360.5451      2.778     9.47     1184.825      63.5709     168.5449        24     1.947     1.285 -76.58   0
        78    957.3530    856.9571 307.5156429  +6.3512064     689.2134     1239.269     1122.712     90.40488     180.3084     360.5451      2.227     4.26      1180.54      63.5709     98.00952         5     1.097     0.471  26.74   0
        79    667.8338    865.3563 307.6357118  +6.3380891     2447.584     5054.767     5193.882     90.11833     180.3801     360.4733      2.112     5.04     1185.029      63.5709     276.3442        31     1.576     1.278  18.16   0
        80    918.9348    851.8582 307.5317837  +6.3520324     2654.348     4811.013     4961.467     90.54781     180.3084     360.6885      1.909     4.73      1181.48      63.5709     298.7632        27     1.511     1.149  26.56   0
        81    377.3875    848.2399 307.7570182  +6.3354459     1288.955     3258.013     3899.987     89.83087     180.1649     360.4016      2.407     8.65     1188.802      63.5709     160.7299        26     1.836     1.295  29.87   0
        82    513.6860    838.1224 307.7007021  +6.3441821     1814.142     4306.775     4417.694     90.40488     180.7382     360.7602      2.294     6.42     1186.325      63.5709     264.7588        33     1.669     1.479  36.93   0
        83    857.8317    836.5120 307.5576977  +6.3563324     677.7013     1252.806       1246.5     90.54781     180.1649     360.5809      1.822     3.63      1180.98      63.5709     105.9946         5     1.039     0.364 -85.00   0
        84    560.9998    834.0856 307.6811700  +6.3474299     3472.862     8314.608     10767.07     89.54249     179.8056      360.258      2.677     8.51     1185.457      63.5709      435.356        56     2.568     1.565   6.04   0
        85    485.2134    832.9966 307.7127098  +6.3453460     2293.718     2457.464     2981.227     89.97472     180.0213     360.5092      0.474     1.06     1186.205      63.5709     1462.497         5     0.476     0.252   0.25   0
        86    479.0784    833.0743 307.7152574  +6.3451088     945.2217     1976.704     2749.113     90.69052     180.6667     360.6885      2.501     4.37     1186.257      63.5709     127.1202         8     0.800     0.715 -37.62   0
        87    896.0669    831.8368 307.5419597  +6.3595360     1100.753     1817.362      1940.31     90.26172     180.3084     360.6885      1.886     5.12     1180.247      63.5709     133.4121        10     0.929     0.798 -87.43   0
        88    531.0429    827.9015 307.6938303  +6.3489816      11614.1     27001.27     30118.45     90.40488     180.2367     360.9036      2.332     5.29      1185.76      63.5709     1245.556        67     1.908     1.683  41.01   0
        89    120.4598    831.8343 307.8643664  +6.3336063     902.8663     1913.181      1751.87     90.26172     180.3801     360.5809      2.246     5.12     1187.278      63.5709      149.973        10     1.339     0.662  28.55   0
        90    944.5114    826.0293 307.5220153  +6.3635464     2981.678     5505.341     6133.357     90.54781     180.0931     360.5092      1.963     4.24     1178.934      63.5709      330.083        31     1.505     1.229  37.40   0
        91    371.2983    827.7517 307.7602383  +6.3436996     438.6718      682.771     535.8058     90.40488     180.3084     360.8677      1.838     4.37     1188.135      63.5709      94.4137         5     0.991     0.549  38.73   0
        92     41.8054    818.1617 307.8975208  +6.3366094     896.8524     1917.831     2463.312     89.39795     180.0931     360.3657      2.400     7.36     1185.853      63.5709     120.7648        12     1.519     0.998  -0.82   0
        93    323.8954    816.8249 307.7803102  +6.3466228     1825.822     4569.955     5079.537     90.54781     180.0931     360.5092      2.364     7.28     1188.292      63.5709     201.0012        32     1.666     1.423  -1.29   0
        94     24.1470    814.7572 307.9049755  +6.3374216      1251.72     2851.799     3370.786     90.40488     180.3801     360.6526      2.333     8.59      1185.65      63.5709      163.672        21     1.956     1.063  41.87   0
        95    789.0819    812.3232 307.5870870  +6.3640265     37976.87     77960.28     85545.15     90.69052     180.6667     360.7961      2.176     4.82       1180.4      63.5709      3847.28        85     1.849     1.627  44.39   0
        96    246.5021    810.4523 307.8126952  +6.3466602     3259.719     7788.147     11333.15     90.26172     180.3801     360.8677      3.175     5.64     1188.127      63.5709     365.3254        51     1.955     1.614  42.65   0
        97    914.3680    807.4990 307.5351659  +6.3701924     6456.457     12037.08     13659.46     90.40488     180.2367     360.7961      2.042     4.42     1178.108      63.5709     677.7975        39     1.573     1.357  29.98   0
        98    712.3124    804.1442 307.6192744  +6.3648424     47244.83     117691.4       163838     90.40488     180.2367     360.7961      2.941     9.12     1181.753      63.5709     5732.209       151     3.428     1.698  30.07   0
        99    356.0565    804.5690 307.7673537  +6.3527591     11479.38      28084.9      32398.6     90.26172     180.3801     360.5451      2.449     5.69     1187.346      63.5709     1233.381        71     1.993     1.740  35.14   0
       100    417.9129    802.3852 307.7417143  +6.3557312     12232.37     30227.18      34277.7     89.97472     180.0931     360.5092      2.444     5.66     1186.534      63.5709     1271.646        73     1.994     1.745  37.31   0
       101    404.9676    804.2018 307.7470345  +6.3545480     887.1838     1891.477     2487.032     89.54249     180.1649     360.4016      2.286     6.97     1186.747      63.5709     113.3354        11     1.271     1.072  34.28   0
       102    245.9538    789.0482 307.8136439  +6.3554773     784364.8      2470690      2984422     90.40488     180.2367     360.6885      2.794     5.65     1187.622      63.5709     64466.66       589     2.579     2.264  49.06   4
       103    954.7219    801.0073 307.5186074  +6.3742158     1418.753     2852.874     3090.994     89.97472     179.8056     360.4016      2.078     5.51     1177.155      63.5709     187.4521        20     1.379     1.334 -78.19   0
       104    911.1322    798.9032 307.5367987  +6.3736331     4937.042     9676.882     10334.54     90.40488     180.4518     360.6526      2.083     4.59     1177.662      63.5709     488.2231        42     1.715     1.367  30.92   0
       105    652.0155    798.0748 307.6445436  +6.3653354     3818.911     8614.445     9570.246     89.83087     180.0931     360.5092      2.281     5.32     1181.725      63.5709     413.4219        46     1.748     1.587  35.94   0
       106    440.6771    795.7590 307.7324742  +6.3592281     915.9656     2153.561     1759.656     90.26172     180.3801     360.7244      2.229     8.61       1185.5      63.5709     153.7197        16     1.919     1.104  20.10   0
       107    687.1050    788.1967 307.6302879  +6.3705844     1519.372     3174.516     3469.157     90.11833     180.0213     360.3657      2.206     7.47     1180.892      63.5709     166.0087        23     1.621     1.184  38.78   0
       108    420.8642    785.0310 307.7410709  +6.3629937     29142.79     72484.49     83450.19     90.11833     180.4518     360.5809      2.452     5.67     1185.448      63.5709     3156.389        96     2.059     1.813  37.76   0
       109    455.0972    782.1821 307.7269361  +6.3653151     2424.637     6345.145     8524.838     90.26172     180.1649     360.3657      2.955    10.45     1184.288      63.5709     258.4758        51     2.389     1.608  60.36   2
       110    451.9157    775.7175 307.7284759  +6.3678773     1290.157     3031.567     3516.881     90.11833     180.6667     360.7244      2.288     5.33     1184.036      63.5709     151.6636        18     1.248     1.059  -8.75   3
       111    783.6069    780.5217 307.5904282  +6.3769719     7491.923     16248.88     17907.53     89.97472     179.8056     360.4016      2.218     5.05     1178.799      63.5709     785.4348        55     1.740     1.630  34.14   0
       112    805.2347    774.7008 307.5816321  +6.3800959     898.0765     1543.136     2109.654     90.40488     180.2367     360.8319      2.146     6.12     1177.974      63.5709     96.43359        13     1.218     0.865 -67.75   0
       113    149.9325    773.0565 307.8540969  +6.3588583     1736.827     4379.087     5717.549     90.54781     180.3084     360.6168      2.719     6.15     1185.794      63.5709     226.5801        32     1.718     1.406  31.58   3
       114    141.7641    772.8572 307.8574991  +6.3586665     6440.188     16304.53     20658.37     90.26172     180.3801     360.6885      3.151     5.75     1185.622      63.5709     736.3435       104     4.465     2.135  40.77   3
       115    134.5988    769.5421 307.8605893  +6.3597945     1592.836     3634.806     4713.252      89.6868     179.9494     360.2939      2.838     6.79     1185.332      63.5709     199.4393        19     1.736     0.923  19.25   3
       116     13.6905    776.1780 307.9106240  +6.3529953     632.6689     1211.435     1450.412     90.40488     180.1649     360.5092      2.380     4.72     1184.589      63.5709     80.77673         6     1.164     0.543  23.21   0
       117    929.2132    768.9991 307.5302824  +6.3865800     4681.785     9326.587     9840.189     89.97472     180.0213     360.4016      2.080     4.65     1176.273      63.5709     551.5551        38     1.571     1.399  29.81   0
       118    977.9807    768.6469 307.5100202  +6.3883487     1160.524     2131.419      3142.91     89.97472     180.3801     360.4733      2.108     6.16     1175.691      63.5709     128.2186        14     1.082     0.985 -19.80   0
       119    685.0720    766.0201 307.6318766  +6.3796712     1117.396     2262.549     3032.004     89.97472     180.2367     360.6168      2.588     6.41     1179.391      63.5709     152.7706        16     1.472     1.106  54.10   0
       120    571.7516    766.0773 307.6789834  +6.3758633     1489.212     3333.306     3930.095     90.26172     180.4518     360.6526      2.360     6.72     1180.816      63.5709     177.9977        26     1.704     1.215  29.58   0
       121    538.6256    784.0211 307.6921516  +6.3673490     3927.876     9375.071     10618.73     89.97472     180.1649     360.5809      2.381     5.48     1182.994      63.5709     433.6862        47     1.863     1.540  42.56   0
       122    952.9858    760.4933 307.5206839  +6.3908827     2431.838     4667.758     4607.633     90.11833     180.0931     360.4733      2.074     5.23     1175.658      63.5709     253.7395        28     1.555     1.286  21.58   0
       123    923.3790    761.0269 307.5329745  +6.3896768     2156.669      4374.46     5125.429     89.97472     180.1649     360.5809      2.172     4.71      1176.11      63.5709     276.5587        31     1.508     1.335  32.05   0
       124    675.5748    760.2249 307.6360191  +6.3817466     992.5416     2109.686     2587.597     89.83087     180.1649     360.5092      2.571     6.90     1179.087      63.5709     120.2306        13     1.229     1.148 -71.53   2
       125    983.4551    760.2457 307.5080252  +6.3919990     1672.238     3181.802     3320.208     90.40488     180.3801     360.6526      2.007     5.41     1175.231      63.5709     196.1115        21     1.492     1.177  45.03   0
       126    248.5536    755.4147 307.8136958  +6.3694482     978.0855     2696.836     3759.446      89.6868     180.1649     360.3657      3.134     8.33     1187.176      63.5709     156.7418        18     1.620     1.315   0.23   0
       127    915.6746    750.6799 307.5365236  +6.3936916     679.2362     1267.404     1517.115     90.69052     180.6667     360.7244      1.516     3.43     1175.855      63.5709     125.6702         5     1.171     0.291 -53.78   0
       128    967.7023    748.1727 307.5149778  +6.3964587     1834.207      3660.02     3666.165     90.54781     180.0931     360.6168      2.041     5.14     1174.958      63.5709     209.6699        25     1.503     1.160  22.24   0
       129   1009.3459    741.5381 307.4978869  +6.4005832     1297.629     2671.198     2573.474     90.54781     180.3084     360.6168      1.997     7.72     1173.942      63.5709     149.3297        20     1.540     1.082  -0.56   0
       130    897.3278    737.9393 307.5445772  +6.3983401     1044.832     1870.503     2161.543     90.54781     180.3801     360.7244      2.047     5.74     1175.509      63.5709      136.557        11     1.127     1.089  61.79   0
       131     53.3824    728.0339 307.8957496  +6.3742019     1400.841     3448.799     3873.866     89.97472     180.1649     360.4733      2.393     7.95     1183.324      63.5709     162.4596        28     1.675     1.407  32.49   0
       132    854.2911    728.8629 307.5627728  +6.4006533     991.3954     1955.194       1830.1     90.40488     180.5234     360.7602      2.037     5.92     1175.084      63.5709      143.812        12     1.513     0.814  10.00   0
       133    665.7413    716.4108 307.6415765  +6.3995051     3513.229     8255.543     9480.895      89.6868     180.2367     360.3298      2.412     5.82     1176.182      63.5709     359.7921        43     1.793     1.551  29.85   0
       134    612.9758    714.8506 307.6635650  +6.3983872     785.8107     1765.099     2277.986     89.97472     180.3801     360.5451      2.256     4.83     1176.658      63.5709     113.0251         8     1.325     0.498  14.08   0
       135    129.0277    712.6791 307.8648223  +6.3830800     1963.758      5093.07     5527.458     90.26172     180.3084     360.6526      2.481     7.25     1182.925      63.5709      229.193        43     2.034     1.541  45.44   0
       136    639.5691    710.9755 307.6526394  +6.4008750     1176.789     2746.108     3803.586     89.83087     180.2367     360.4374      2.769     6.11      1176.07      63.5709     149.5338        14     1.499     0.701  31.96   2
       137   1002.6738    711.5716 307.5016624  +6.4127319     2044.903     3785.678     3551.128     90.26172     180.3801     360.5809      1.942     5.54     1172.277      63.5709     229.7654        23     1.556     1.005  13.55   0
       138    782.7075    708.4370 307.5932168  +6.4066993     12140.74     27414.01     30943.24     90.54781     180.2367     360.7244      2.324     5.34     1174.391      63.5709     1136.493        66     1.895     1.656  28.85   0
       139    912.3868    707.9884 307.5393186  +6.4112058     2475.944     5157.583     5901.056     90.26172     180.0213     360.5809      2.237     5.54     1173.151      63.5709     282.2112        34     1.695     1.303  42.80   0
       140    663.2050    701.3876 307.6431348  +6.4056221     3854.276     9414.235     10657.29     89.97472     180.0931     360.5092      2.455     5.74     1175.126      63.5709     390.6577        46     1.821     1.567  53.76   0
       141    256.4034    702.3871 307.8122184  +6.3916009      3082.78     8131.964     9260.312     89.97472     180.0213     360.5092      2.481     6.21     1183.808      63.5709     372.3982        48     1.920     1.611  36.99   0
       142    646.3442    702.4286 307.6501095  +6.4046294     601.8001     1208.309     1369.086     89.97472     180.4518     360.5451      2.092     5.59      1175.33      63.5709     81.74475         5     1.279     0.688 -46.62   0
       143    923.1053    693.8224 307.5353364  +6.4174106     856.4661     1750.157     1468.031     90.40488     180.1649     360.4733      1.994     6.76     1171.973      63.5709     114.4701        11     1.420     0.903  67.41   0
       144    735.0000    689.9458 307.6136704  +6.4127414     1961.353     4788.327     6074.566     89.54249     179.9494     360.1862      2.555     6.70     1173.946      63.5709     222.1914        32     1.721     1.344  21.47   0
       145     19.7539    686.2340 307.9111394  +6.3903267     887.0863     2206.686     2648.352     89.97472     180.3801     360.5809      2.412     5.93     1182.262      63.5709     137.1255        11     1.486     0.667 -72.22   3
       146     23.1764    686.7847 307.9096981  +6.3902144     790.0766     1430.954     2397.884     90.11833     180.1649     360.5451      2.533     7.29     1182.283      63.5709     111.9731        13     1.899     0.783 -56.21   2
       147   1001.1599    686.1807 307.5031406  +6.4231632     6677.199     12911.62     13829.66     89.97472     180.1649     360.3298      2.009     4.45     1170.701      63.5709     701.3842        47     1.737     1.349  35.77   0
       148    939.6258    686.5961 307.5287097  +6.4209437     1746.393     3473.694     4013.744     89.83087     180.0931     360.4733      2.096     5.77     1171.277      63.5709     191.7668        24     1.411     1.318  68.27   0
       149    538.9099    683.7203 307.6954016  +6.4087631     858.8257     1367.293     1704.575     90.11833     180.5951     360.7602      1.874     6.58     1177.657      63.5709     105.8092        10     1.930     0.630  15.82   2
       150    540.6743    681.4201 307.6947453  +6.4097716     986.9478     1799.498     2412.777     89.97472     180.3084     360.5809      1.996     6.14     1177.539      63.5709     132.6761        11     1.567     0.677  33.04   3
       151     78.7924    681.5356 307.8867556  +6.3942493     13321.83     34390.91     40082.85     89.83087     180.0931     360.4733      2.527     6.02     1182.068      63.5709     1550.144        80     2.080     1.793  40.79   0
       152    724.5542    673.4369 307.6185666  +6.4192080     2040.773     4704.415     5094.064     90.11833     180.3801     360.5451      2.344     6.29     1173.006      63.5709     218.5536        30     1.561     1.400  27.94   0
       153    746.3990    671.6332 307.6095451  +6.4206813      2241.77     5490.852      5813.21      89.5425     180.1649     360.3657      2.327     6.50     1172.848      63.5709     232.9497        36     1.780     1.438  14.11   0
       154    576.9926    670.9926 307.6799965  +6.4152899     1156.124     2332.281     2863.402      89.6868     180.1649     360.5092      2.042     6.56     1175.126      63.5709     151.6285        14     1.533     0.798  50.37   3
       155    578.6692    668.8224 307.6793724  +6.4162418     1406.685     3341.431     3796.833     89.97472     180.3084     360.6168      2.364     7.18     1174.899      63.5709     165.8854        22     1.979     0.835  36.49   2
       156    239.6805    669.3815 307.8202820  +6.4046648     853.3511     2176.516     3043.426     89.97472     180.0213     360.5451      2.966     8.63     1181.099      63.5709      124.736        17     1.790     1.163  55.20   0
       157    322.7908    667.7606 307.7857856  +6.4081192     733.1838     1678.365     1700.784      89.6868     180.1649     360.3657      2.441     7.18     1180.828      63.5709     121.6143        10     1.602     1.014  73.40   0
       158   1019.4114    667.5208 307.4961761  +6.4314735      3769.71     7097.757     7837.243     89.97472     180.0213     337.3069      2.017     4.56     1169.552      63.5709     396.1237        33     1.611     1.202  40.52  16
       159    984.7318    666.5776 307.5106261  +6.4307090     6041.743      11594.3     12000.56     89.97472     180.3084     360.6168      1.998     4.50     1169.733      63.5709      649.453        43     1.682     1.362  27.42   0
       160    414.6452    668.9988 307.7475573  +6.4106838     612.9068      1201.21     1742.452      89.6868     180.0213     360.1862      2.243     4.52     1180.424      63.5709     85.40967         6     1.104     0.527  39.42   0
       161    143.5502    660.4178 307.8605472  +6.4051404     12178.03     32149.73     37665.65     89.83088     180.4518     360.4374      2.562     6.01     1180.921      63.5709     1424.341        79     2.098     1.801  43.21   0
       162    430.3235    660.8304 307.7413140  +6.4145804     1473.143     3764.792     4735.307     90.26172     180.4518     360.6526      2.747     8.54     1179.425      63.5709     180.7177        27     1.726     1.426  37.23   0
       163    810.8729    660.0052 307.5831294  +6.4276315     633.6646     1250.888     1359.684     89.97472     179.8775     360.5451      2.112     3.82      1171.53      63.5709     94.29773         5     0.827     0.507 -28.74   0
       164    979.8179    649.6016 307.5132367  +6.4375535     5001.689     10232.21     10961.47     89.97472     179.8775     360.3298      2.118     4.94     1169.085      63.5709     530.7063        45     1.822     1.404  33.04   0
       165     25.3776    649.2508 307.9100500  +6.4057819     741.6227     1479.292     1526.955     89.83087     180.4518     360.5092      2.039     5.25     1180.695      63.5709     99.31458         6     1.058     0.736 -87.70   0
       166    573.4250    645.0181 307.6823518  +6.4258931     24295.96     63818.95     75039.58     90.11833     180.2367     360.5809      2.555     5.98     1173.912      63.5709     2609.604        93     2.096     1.877  36.17   0
       167    182.4316    641.2637 307.8450291  +6.4143517      1316.09     3045.839     3325.414     90.11833     180.4518     360.6168      2.374     9.05     1180.155      63.5709     162.3977        21     2.188     1.044 -78.47   2
       168    470.6998    628.8889 307.7256015  +6.4291168     30381.92     82681.66     97821.21     90.40488     180.8813     360.6168      2.610     6.31     1176.465      63.5709     3183.835       108     2.179     1.923  41.08   0
       169     15.6254    630.2796 307.9147446  +6.4132852      1028.23     2285.685     3520.083     90.11833     180.1649     360.6168      2.985     7.43     1179.705      63.5709     136.6359        17     1.611     0.958  20.57   0
       170    146.2287    624.0730 307.8606591  +6.4202332      789.043     1708.073      750.092     90.26172     180.3801     360.6168      1.864     6.16     1179.574      63.5709     102.4431         8     1.577     0.677  71.38   0
       171    318.1425    618.0859 307.7893900  +6.4284691     934.3324     2371.589     3693.795     90.40488     180.3801     360.8319      3.262     9.87     1177.392      63.5709      165.937        16     2.038     1.333  42.84   2
       172    742.5705    612.3649 307.6131233  +6.4450201      2740.96     7161.022     7897.304     89.97472     180.0931     360.4374      2.463     6.96      1169.16      63.5709     265.7495        47     1.956     1.609  40.91   0
       173    796.1968    607.4913 307.5909903  +6.4488205     7884.412     18840.12      21365.2     89.97472     180.0213     360.3657      2.400     5.57      1168.87      63.5709     733.8805        63     1.938     1.664  37.26   0
       174   1013.2258    607.0097 307.5007705  +6.4562476     630.3708     1233.929      1137.84     89.97472     180.1649     360.5092      1.925     4.87      1166.57      63.5709     87.28296         6     1.212     0.553 -24.04   2
       175    620.1725    605.7971 307.6642327  +6.4436455     1396.662     3694.642     4411.511     89.83087     180.0931     360.4374      2.498     8.90     1170.835      63.5709     174.2632        28     1.656     1.444  51.55   0
       176    538.9890    606.6445 307.6979573  +6.4405829      716.955     1866.558     2475.327     89.83087     180.2367     360.3298      2.739     4.87     1172.554      63.5709     86.71777         6     1.099     0.741  66.58   0
       177    937.4895    601.9059 307.5324310  +6.4558339     740.5093     1553.303     1967.195     90.40488     180.8813     360.7244      2.191     4.73     1167.837      63.5709     100.1521         6     1.059     0.598 -22.63   0
       178    233.7052    598.7330 307.8251460  +6.4336278     738.6266     1589.241      1687.82     90.26172     180.5234     360.6526      2.451     6.81     1177.999      63.5709     101.7894        10     1.628     0.799  16.38   0
       179    872.0787    590.4950 307.5600095  +6.4583659     1603.676     3543.772     3507.816     90.11833     180.6667     360.6885      2.188     6.99      1167.72      63.5709     169.6315        26     1.680     1.199  18.08   0
       180    831.2117    588.0027 307.5770847  +6.4580328      1538.55     3317.648     3746.999     89.97472     180.0213     360.4733      2.200     6.07     1167.851      63.5709     167.4321        27     1.524     1.368 -77.55   0
       181    258.3031    585.6224 307.8153611  +6.4398645     2193.334      4211.35     4978.668     90.40488     180.0931     360.4374      2.019     5.07     1176.469      63.5709     302.0309        21     1.625     0.902  33.79   3
       182    259.9371    582.5652 307.8147847  +6.4411813     3464.243     7644.828     8457.217     90.26172     180.4518     360.6168      2.265     6.58     1176.229      63.5709     406.8367        41     2.205     1.207  35.26   3
       183    811.4216    579.4507 307.5855995  +6.4609035     87761.28     213202.3       243185     89.83088     180.4518     360.5092      2.439     5.63     1167.508      63.5709     8089.939       166     2.260     2.008  -6.54   0
       184    193.3542    577.9738 307.8426213  +6.4408437     26552.93     75398.23     92288.48     89.83087     180.4518     360.5451      2.693     6.36     1177.264      63.5709     3055.776       110     2.213     2.012  44.91   0
       185    117.3710    574.4815 307.8743287  +6.4397354     2974.389      8413.73     10376.84     90.26172     180.1649     360.6168      2.686     7.02     1177.752      63.5709     369.5328        53     2.045     1.711  43.58   0
       186    504.3391    573.0375 307.7134926  +6.4532975     2865.361     2910.174      3049.67     90.40488     180.4518     360.6526      0.734     1.38     1172.471      63.5709     1286.572         7     0.658     0.419  52.74   0
       187    982.0822    570.3380 307.5149458  +6.4703499     942.1355     1655.605     1516.752     90.54781     180.3801     360.6168      2.101     5.93     1164.754      63.5709     124.1421         9     1.127     0.878  47.84   0
       188    848.0206    566.6088 307.5708123  +6.4674247     2486.075     5894.115      6161.67     89.97472     180.0931     360.4016      2.284     5.76     1166.621      63.5709      235.694        40     1.718     1.543  52.98   0
       189    366.7984    565.0880 307.7709447  +6.4519762     7453.632     22142.54     27036.71     89.54249     179.9494     360.3298      2.750     6.80     1173.989      63.5709     843.4855        81     2.199     1.928  33.96   0
       190    802.1663    559.9378 307.5901015  +6.4686501      3249.26     7905.259     9704.952     90.26172     180.4518     360.5809      2.529     6.07     1166.678      63.5709     317.4728        53     1.986     1.664  30.82   0
       191    168.8723    562.9183 307.8533071  +6.4462371     996.9952     2248.448     3159.463     90.69052     180.7382     360.6885      2.911     6.24     1177.144      63.5709     124.6248        13     1.538     0.711  10.73   0
       192    533.1255    559.9210 307.7019646  +6.4596746     3053.797     8286.315     9404.911     90.69052     180.6667     360.7244      2.551     7.13     1170.882      63.5709     312.8329        45     1.829     1.674  13.61   0
       193    178.6657    553.9910 307.8495364  +6.4502508     2088.999     4051.665     5411.897     89.83087     180.1649     360.5092      2.058     7.29     1176.403      63.5709      251.566        17     1.826     0.816  58.14   3
       194    180.7492    552.0425 307.8487359  +6.4511251     2968.081     6332.684     8212.935     90.54781     180.3801     360.6526      2.461     7.22     1176.231      63.5709     349.3011        36     2.274     1.216  46.98   3
       195    391.9301    555.6937 307.7608118  +6.4566957     712.1619     1229.409     1325.942     90.26172     180.4518     360.6526      1.619     4.87     1173.094      63.5709     103.1624         8     1.039     0.647   3.10   0
       196    275.3286    549.6369 307.8094946  +6.4552898     37552.98     110919.5     135118.2     90.26172     180.3801     360.6885      2.737     6.79     1173.973      63.5709     4136.387       122     2.281     2.003  43.92   0
       197    576.8545    553.8737 307.6839861  +6.4636326     977.2486     2069.833     3266.194     90.26172     180.2367     360.5809      2.400     6.57     1169.159      63.5709     173.3457        11     1.802     0.672  18.54   3
       198    577.4995    550.7476 307.6838229  +6.4649446     1039.018     2156.775     3645.964     90.40488     180.3801     360.9036      3.345     8.68     1169.014      63.5709      116.474        19     2.103     0.999  44.21   2
       199    798.2687    541.8379 307.5923285  +6.4759919      8722.94     21314.45      23777.2     90.26172     180.3801     360.7602      2.395     5.61     1165.865      63.5709     833.9825        64     1.917     1.718  49.41   0
       200    974.9266    542.6475 307.5188471  +6.4815428     1051.506     2235.232     2288.726     90.26172     180.4518     360.6526      2.168     7.59     1162.971      63.5709     115.1539        15     1.354     1.191   7.12   0
       201    502.0305    540.3235 307.7155516  +6.4667247     19068.38     54380.15     68606.66     90.26172     180.4518     360.6526      2.775     6.51     1170.732      63.5709     1803.228       104     2.329     1.984  29.22   0
       202     51.8365    551.8755 307.9023370  +6.4468661     2431.026     6665.777      7971.87     90.26172     180.4518     360.6885      2.658     7.10     1176.902      63.5709     267.5715        50     2.056     1.666  58.97   0
       203    215.6410    537.5909 307.8347163  +6.4582610     868.9875     2050.927     3083.635      89.6868     180.1649     360.3298      3.685     7.81      1173.82      63.5709     131.4915        11     1.736     0.982 -45.50   0
       204    662.1532    535.0097 307.6491533  +6.4742690     1370.069     3900.416     4734.211     89.83087     180.3084      360.258      2.728     8.20     1166.629      63.5709      171.201        32     1.793     1.584 -41.44   0
       205    724.9125    533.7197 307.6231017  +6.4768963     708.3574     1282.308     1472.483     90.11833     180.6667     360.7961      2.021     4.96      1165.93      63.5709     96.99048         7     1.010     0.690   9.92   0
       206    672.0026    534.1578 307.6450866  +6.4749495     708.5513     1411.244     2369.713      89.6868     179.9494     360.3298      2.543     4.46     1166.503      63.5709     96.05774         8     1.335     0.423  29.76   0
       207    400.2979    530.5573 307.7581783  +6.4673522     804.5436     2098.454     2491.608     90.40488     180.2367     360.9036      2.548     7.51     1171.298      63.5709     100.6011        13     1.519     1.040  49.19   0
       208    331.4847    529.3735 307.7868289  +6.4655363     1772.237     4984.946     5834.291     90.54781     180.0931     360.5092      2.702     8.19     1171.983      63.5709     204.2244        39     1.783     1.645 -10.90   0
       209    146.4170    528.1295 307.8638160  +6.4598441     11547.08     33220.94     39647.58     89.83087     180.2367     360.5451      2.672     6.38     1175.682      63.5709     1400.455        79     2.143     1.907  37.24   0
       210    511.1398    528.3900 307.7121651  +6.4719555     1031.043     2876.175     3019.617      89.6868     180.2367     360.3298      2.552     9.22     1169.495      63.5709     125.3729        22     1.778     1.334   4.38   0
       211    112.1641    526.5106 307.8781116  +6.4593625     1225.095     3364.496     3873.552     90.54781     180.3084     360.6526      2.554     8.15     1175.889      63.5709     155.0729        27     1.801     1.552  28.67   0
       212    873.7095    527.6309 307.5614360  +6.4843712     894.7161     1651.258     1375.978     90.54781     180.1649     360.6168      2.024     5.23     1164.042      63.5709     116.7861         7     0.986     0.784  58.25   0
       213    971.6279    522.0709 307.5209070  +6.4899273     3196.286     6660.793      7553.19     90.11833     180.3801     360.5809      2.147     5.20     1162.011      63.5709     323.7638        36     1.581     1.417  46.21   0
       214     10.7811    512.4634 307.9207364  +6.4617553     12172.13     33422.85     39440.66     89.97472     180.3801     360.4733      2.622     6.26      1175.41      63.5709     1363.116        83     2.175     1.861  46.90  16
       215    546.0760    514.2202 307.6981151  +6.4789729     552.3881     1597.396     2050.472     89.97472     180.0931     360.5809      2.843     6.52     1167.693      63.5709     105.9198         8     1.881     0.634  43.02   0
       216    442.0156    510.5062 307.7415071  +6.4770256     13782.18     25279.01     27819.55     90.11833     180.1649     360.4733      1.960     5.78     1169.245      63.5709     1608.655        36     1.975     0.958  38.56   3
       217    444.0329    508.0055 307.7407525  +6.4781254      17838.7     39272.79     45712.65      89.6868     180.1649     360.4374      2.327     6.47     1168.974      63.5709     2058.311        60     2.287     1.229  34.96   3
       218    651.2781    508.6868 307.6545583  +6.4847721     5723.916     15452.53        18274     90.40488     180.7382     360.7961      2.599     6.26       1165.9      63.5709     582.5485        63     1.989     1.792  37.50   0
       219    208.5843    506.7982 307.8386880  +6.4707354     8501.041     25425.62     31669.03     89.97472     179.9494     360.4016      2.798     6.71     1171.686      63.5709     942.4514        81     2.304     1.894  44.50   0
       220    573.1525    505.5318 307.6871487  +6.4834646     1335.528     3714.667     4369.488     90.40488     180.3084     360.6526      2.579     9.81     1166.657      63.5709     157.4502        29     1.738     1.545 -10.10   0
       221    173.9025    507.5323 307.8530829  +6.4692688     815.5985     1724.026     1756.527     90.40488     180.4518     360.6526      2.144     5.85     1173.531      63.5709     117.7728         9     1.465     0.657 -48.05   0
       222    946.7861    502.3687 307.5318956  +6.4972336     2913.456     6731.353     7919.013     89.97472     180.0931     360.5809      2.343     5.91     1161.097      63.5709     283.0215        42     1.891     1.399  39.25   0
       223    825.1486    505.2112 307.5823787  +6.4920079      500.639     1020.004     698.0246      89.6868     180.2367     360.3657      2.104     4.76     1163.779      63.5709     83.99072         6     1.097     0.586  23.44   0
       224    620.1815    501.0834 307.6677435  +6.4868722     2916.652     8220.229     9134.953     89.97472     180.0213     360.6168      2.567     6.86     1165.783      63.5709      313.838        52     2.033     1.697  35.37   0
       225    969.6506    494.6652 307.5226459  +6.5011749     2050.755     4561.961      5050.96     90.26172     180.3084     360.6526      2.202     6.34     1160.777      63.5709      263.771        34     1.734     1.457  29.79   0
       226    530.9566    493.6339 307.7050932  +6.4869655     2429.469     4792.346     5943.167     90.11833     180.3801     360.4374      2.131     6.54     1166.457      63.5709     316.5934        20     2.014     0.752  30.27   3
       227    533.0154    491.2679 307.7043167  +6.4880111     3068.287     6958.374     9338.096     89.83087     180.2367     360.5451      2.491     6.74     1166.209      63.5709      357.236        39     2.224     1.158  32.61   3
       228    378.1832    491.8947 307.7686739  +6.4825715     1238.404     3374.648     3897.616     90.26172     180.1649     360.4733      2.784    10.55     1168.632      63.5709     144.6379        33     1.941     1.599  50.90   0
       229    888.8041    487.8879 307.5564901  +6.5012804     1767.895     4302.974     4755.844     89.83087     180.0213     360.2939      2.323     7.20      1161.59      63.5709     190.5519        33     1.739     1.430  43.36   0
       230    896.1995    482.1790 307.5536060  +6.5038835     1365.019     2794.706     3025.745     89.97472     180.0213     360.3298      2.002     6.46     1161.099      63.5709     154.8774        21     1.477     1.163  74.22   0
       231    934.9066    481.4679 307.5375346  +6.5054661     868.8272      1902.53     1936.839     90.26172     180.5951     360.6885      2.407     6.08     1160.137      63.5709     111.4915         9     1.084     0.957  83.02   0
       232    719.8679    478.4734 307.6270518  +6.4995341     1524.159      3852.49     4270.324     90.54781     180.5234     360.6168      2.558     7.45     1163.939      63.5709     164.3145        34     1.769     1.488  25.18   0
       233    391.2539    477.0331 307.7637392  +6.4891440     1617.931     4600.668     5930.912     90.26172     180.3084     360.5809      2.907     8.27     1167.271      63.5709     193.9537        44     1.961     1.756   0.80   0
       234     82.6495    478.2743 307.8920102  +6.4782827     1146.553     2432.077     3282.539     90.40488     180.4518     360.6885      2.586     7.51      1173.94      63.5709     157.5867        19     1.353     1.186 -14.89   0
       235    618.7476    473.3308 307.6692712  +6.4982807      4442.38      12663.1     14866.05     90.26172     180.2367     360.5451      2.632     6.56     1164.481      63.5709      470.698        62     1.995     1.864  58.80   0
       236    781.6466    469.4987 307.6016641  +6.5052999     8365.506      21639.3     26069.98     90.40488     180.2367     360.8677      2.596     6.01     1162.512      63.5709     800.2557        76     2.122     1.930 -51.06   0
       237    302.1317    469.4423 307.8010511  +6.4892921     1079.538      2796.37     3591.548     90.40488     180.3084     360.7602      2.633     6.72     1167.043      63.5709     177.0991        15     1.780     0.756  17.78   2
       238    965.6453    464.8188 307.5253098  +6.5133625     1044.687     2521.499     2566.383     89.97472     180.2367     360.3657      2.266     6.97     1159.149      63.5709     127.2889        14     1.645     0.827  45.14   2
       239    810.2064    466.3963 307.5898923  +6.5075329     648.3727     1588.073     1961.444      89.6868     180.0213     360.5451      2.276     4.21     1162.015      63.5709     91.32239         5     1.248     0.406 -13.39   0
       240    385.2091    465.6681 307.7666350  +6.4936331     701.9952     1683.909     2292.589     89.83087     180.1649     360.5451      2.268     3.48     1166.107      63.5709     104.0175         5     0.796     0.439 -14.94   0
       241    119.8329    461.1033 307.8771295  +6.4866193     1889.815     4240.259     5684.931     90.54781     180.2367     360.7602      2.515     9.36     1171.838      63.5709     238.9102        30     2.137     1.145  55.52   2
       242    117.3182    462.6375 307.8781233  +6.4859016     1499.437     2751.638     3733.884     90.40488     180.4518     360.6168      2.506     7.48     1172.104      63.5709      171.202        13     1.507     1.038  72.32   3
       243    756.6514    460.6197 307.6123552  +6.5081315     1143.073      2901.95     2762.345     89.83087     180.4518     360.4374      2.454     8.67      1162.17      63.5709     129.5017        23     1.544     1.358 -65.49   0
       244   1020.5406    459.2894 307.5026676  +6.5174719     3050.907     6227.004     6197.769     90.26172     180.4518     323.0503      2.074     5.29     1158.402      63.5709     322.1267        38     1.826     1.276  30.40  24
       245    353.6417    458.6317 307.7799974  +6.4954805     1110.844     1953.622     2924.565     89.83087     180.2367     360.4733      1.986     6.14     1165.617      63.5709     133.1884        12     1.634     0.649  40.13   3
       246    355.6247    455.9843 307.7792620  +6.4966397     1292.594     2945.158     4105.182     90.11833     180.2367     360.5809      2.583     7.76     1165.283      63.5709     158.5153        20     1.708     0.985  34.92   2
       247    278.2021    458.1821 307.8113801  +6.4931382     668.2657     1830.436      2313.98     89.97472     179.8775     360.3657      2.703     6.39     1166.323      63.5709     97.51184         9     1.403     0.818  39.28   0
       248    710.8994    454.0243 307.6316009  +6.5093275     747.0385     1713.103     1833.248     90.54781     180.0931     360.4374      2.217     7.91     1162.292      63.5709     107.2106        12     1.379     1.268 -41.85   0
       249    837.4147    444.1101 307.5793250  +6.5176399      988.243     1952.459     1920.576     90.11833     180.1649     360.4733      1.995     6.60     1160.444      63.5709     122.7834        11     1.237     0.987 -85.01   0
       250    822.5305    443.4996 307.5855347  +6.5173958     1092.785      2663.76     2811.689     90.40488     180.5234     360.6526      2.255     8.36      1160.53      63.5709     133.2925        20     1.594     1.347   2.78   0
       251    719.8904    441.4551 307.6282838  +6.5148162      7303.98     19391.18     22887.07     90.26172     180.2367     360.7961      2.582     6.25     1161.122      63.5709     691.1661        71     2.104     1.823  42.33   0
       252    641.5420    436.6597 307.6610238  +6.5141801     1212.411     3157.654     3859.496     90.40488     180.3084     360.6885      2.801     7.16     1161.901      63.5709     150.3107        20     1.700     1.049  14.13   2
       253    613.3985    432.6957 307.6728596  +6.5148763      7220.38     21168.71     29015.33     89.83087     180.0931     360.2221      2.971     7.71     1161.668      63.5709     708.6575        97     2.826     1.822  33.86   0
       254    945.1454    431.2356 307.5349579  +6.5265435     2359.638     4839.177     5457.912     90.26172     180.3801     360.6885      2.129     5.58     1157.377      63.5709     257.5829        30     1.632     1.254  45.23   0
       255    384.4324    427.5749 307.7682397  +6.5093319     11780.71     36536.02     45152.93     89.83088     180.1649     360.4733      2.794     7.09     1161.968      63.5709     1236.583        91     2.229     1.997  38.70   0
       256    129.8575    429.2160 307.8740371  +6.5001186     980.1083     2460.104     3892.883      89.6868     180.3084     360.3657      3.387    10.23     1168.757      63.5709     128.5356        18     2.579     1.132  78.95   2
       257    900.6589    426.7984 307.5536056  +6.5268937     870.8337     2298.402     2959.861      89.6868     180.0213     360.3298      2.651     8.76      1158.27      63.5709      119.583        15     1.518     1.413  11.58   0
       258    913.8883    421.7454 307.5482734  +6.5294203     2979.441     6875.394     7142.837     90.40488     180.2367     360.8319      2.284     5.62      1157.63      63.5709     294.2812        40     1.736     1.468  47.41   0
       259     62.1076    422.2706 307.9024413  +6.5007102     583.6176      1383.77     2175.238     90.40488     180.5234     360.6885      2.386     5.33     1170.297      63.5709     90.39917         7     1.504     0.533 -75.64   0
       260    241.1631    419.7690 307.8280749  +6.5077530      4439.96     8499.798     9343.177     89.97472     180.0931     360.4374      2.008     5.73     1164.624      63.5709     493.6306        29     1.908     0.996  34.48   3
       261    243.1196    417.2018 307.8273479  +6.5088783     5652.717     11384.19     13544.21      89.6868     179.8056     360.3657      2.202     6.94     1164.333      63.5709     623.2987        42     2.323     1.086  36.58   3
       262    142.4088    406.9124 307.8695706  +6.5097466      2076.31     6473.477     7890.372     89.97472     180.0213     360.4016      2.731     7.18     1166.965      63.5709      275.891        49     1.983     1.789 -87.89   0
       263    355.8012    406.9884 307.7808377  +6.5168710     649.2984     1419.784     2155.255     89.97472     180.0213     360.4374      2.337     5.67     1160.565      63.5709     92.03503         5     1.493     0.607 -70.15   0
       264    164.8891    402.5466 307.8603705  +6.5123034     1115.609     3182.562      4000.43     90.40488     180.1649     360.7961      2.782     8.88     1165.875      63.5709     137.5153        23     1.604     1.374  85.31   0
       265    388.4968    396.3342 307.7676008  +6.5223640     682.6601     2272.559     2867.847     90.40488     180.4518     360.6885      3.013     6.72     1159.307      63.5709     102.2406        10     1.942     0.652  14.49   2
       266    976.7726    395.8171 307.5229909  +6.5422176     643.3622      1084.23     1663.754     89.97472     180.0931     360.5451      2.201     5.20     1154.081      63.5709     113.8103         6     1.129     0.677 -80.98   0
       267    441.5585    390.9461 307.7457178  +6.5263645     2984.873     9155.924     11123.99     90.26172     180.4518     360.6885      2.770     7.30     1158.278      63.5709     303.6719        59     2.109     1.836  24.19   0
       268     38.1151    391.9485 307.9134409  +6.5124206     1566.003      4089.35     5156.916     90.40488     180.3084     360.7602      2.752     7.83     1169.967      63.5709     200.0209        36     1.833     1.639  57.16   0
       269    782.0472    388.0772 307.6042264  +6.5389246     6526.454     16753.28     20295.86     90.26172     180.4518     360.6168      2.550     5.87     1157.453      63.5709     623.2675        68     2.086     1.771  16.81   2
       270    773.2142    389.6348 307.6078473  +6.5379871     1055.985     2506.024     3156.658     89.97472     180.0931     360.5092      2.407     7.94      1157.51      63.5709     140.5782        17     1.564     1.126  63.21   2
       271   1023.9069    382.6519 307.5038302  +6.5492208     791.9554     1115.867     901.8962      74.7438      138.905     266.9857      1.451     3.52     1150.599      63.5709     194.1243         6     1.251     0.286  87.65  24
       272    490.1646    373.5160 307.7260919  +6.5351860     1301.438     3307.953     4164.466     90.40488     180.3801     360.6168      2.921    10.16     1156.615      63.5709      141.871        27     1.771     1.636 -30.67   2
       273    463.1591    374.0344 307.7373043  +6.5340685     896.3796     2389.774     3126.664     90.11833     180.3801     360.4374      2.631     7.15      1156.77      63.5709     125.2848        13     1.615     0.887  43.71   2
       274    847.3735    370.9641 307.5776339  +6.5481671     18182.26     44895.75     52190.62     89.83087     180.1649     360.4016      2.466     5.52      1156.58      63.5709     1723.405        85     2.027     1.825  54.28   0
       275    619.3884    363.4199 307.6726946  +6.5436737     1260.708     3594.145     4291.579     89.97472     180.0213     360.5451      2.691     8.49     1155.772      63.5709     153.3331        33     1.867     1.593  40.62   0
       276    703.8741    356.9771 307.6377775  +6.5491546     36930.12     101525.4     120846.2     89.97472     180.1649     360.5809      2.602     6.28     1155.386      63.5709     3462.354       114     2.185     1.938  38.68   0
       277     84.3650    356.1091 307.8954198  +6.5287685      659.973     1473.686     1108.717     90.54781     180.2367     360.6885      2.466     5.56     1168.359      63.5709     90.40039         7     0.985     0.883  61.69   0
       278    566.4994    353.8110 307.6950109  +6.5458729     1095.244     3098.567     3426.195     90.11833     179.9494     360.4016      2.680     8.07      1154.91      63.5709     140.4796        23     1.694     1.362 -14.60   0
       279    103.9488    355.0000 307.8873140  +6.5298840     1917.941     3475.305      4117.59     89.54249     179.8056     360.1144      2.031     6.80     1167.742      63.5709      240.313        17     1.647     0.788   4.32   3
       280    104.8921    351.9997 307.8870230  +6.5311542      2492.42     5432.864     7130.751      89.6868     179.8056      360.258      2.487     7.93      1167.65      63.5709     320.8669        36     2.353     1.323  18.83   3
       281    547.9904    351.2364 307.7027944  +6.5463169     2450.155     5029.894     6139.018     89.83087     180.0931     360.4016      2.247     7.23      1154.63      63.5709     287.1775        21     1.698     0.914  33.53   3
       282    550.4888    349.0004 307.7018305  +6.5473234     2842.585     6430.987     8117.212     89.54249     179.8056      360.258      2.613     6.82     1154.454      63.5709     312.6024        40     2.350     1.172  30.92   3
       283    277.5257    349.2144 307.8153319  +6.5380966     1006.432     1751.083     2663.675     89.83087     180.0931     360.5092      2.477     5.78     1158.996      63.5709     144.2528        11     1.238     0.761  62.51   3
       284    279.4986    346.5043 307.8146028  +6.5392814     1048.126     2137.496     2835.208     90.40488     180.9527     360.4733      2.281     6.07     1158.875      63.5709     139.0798        13     1.721     0.602  43.15   3
       285    411.4793    346.9720 307.7597049  +6.5435101     8693.395     16056.39        18270     90.26172     180.3084     360.6526      1.967     5.97     1155.611      63.5709     980.0543        33     1.939     0.953  40.77   3
       286    413.5166    344.0217 307.7589569  +6.5447961     10081.62     22075.91     26678.96     90.11833     180.0213     360.5092      2.371     7.34     1155.422      63.5709     1085.269        52     2.375     1.214  36.41   3
       287    500.9422    337.3113 307.7228272  +6.5504918     2638.789     4678.247      6198.79     90.40488     180.3084     360.7961      1.975     5.57     1153.396      63.5709     340.0648        17     1.733     0.722  23.94   3
       288    502.3388    334.7170 307.7223336  +6.5516094      3484.99       7847.5     10374.32     90.54781     180.3801     360.6885      2.629     7.38     1153.219      63.5709     361.9381        42     2.220     1.358  22.91   2
       289    770.7748    334.1532 307.6107217  +6.5608088     1482.755     4135.988      5316.81     89.97472     180.4518     360.5092      2.785     8.08     1153.866      63.5709      182.811        38     1.887     1.538  45.81   0
       290    391.5786    319.8789 307.7688920  +6.5540276     2957.186      9481.53     10978.02     89.97472     180.0213     360.6526      2.772     7.60     1154.932      63.5709     307.6885        60     2.082     1.899  37.16   0
       291    759.3522    315.5432 307.6160959  +6.5681101     26675.17     69816.12     82043.55     90.40488     180.3801     360.7602      2.565     5.96     1152.379      63.5709     2431.957        99     2.105     1.904  40.49   0
       292    248.6700    319.4710 307.8283332  +6.5494069     999.6832     2327.506     3825.997     90.40488     180.5234     360.6168      3.022     6.97     1158.936      63.5709     116.0605        14     1.417     0.962  49.97   0
       293    431.1552    316.1178 307.7525607  +6.5569052     930.7894     2653.769     3110.817     90.40488     180.3801     360.6168      2.679     6.44     1153.693      63.5709     122.9563        15     1.759     0.945 -54.10   2
       294    993.6988    312.6475 307.5187340  +6.5771142     1135.205     2169.688     2201.349     90.40488     180.2367     360.8677      2.080     7.03     1147.125      63.5709       125.84        14     1.427     0.971  66.60   0
       295    935.0310    311.3062 307.5431776  +6.5757147      1457.31     3167.894     3891.931     90.54781     180.1649     360.6168      2.391     5.71     1150.213      63.5709     197.4896        18     1.488     1.089  64.68   0
       296    468.0348    309.0487 307.7374620  +6.5610576     535.9193     1324.958     1672.106     90.26172     180.3801     360.5809      2.541     3.77     1151.559      63.5709     84.53894         5     1.037     0.393  57.87   0
       297    418.4431    309.3431 307.7580750  +6.5592763     791.5042     1825.501     2453.132     90.26172     180.3084     360.6885      2.460     4.83     1153.983      63.5709      124.188         8     1.439     0.459   5.05   0
       298    194.3648    302.4006 307.8514909  +6.5546316     911.4484     2995.817     3644.805     89.39795     180.1649     360.4374      2.759     9.09     1161.178      63.5709        152.4        21     1.867     1.595 -42.14   0
       299    757.7482    300.2122 307.6172770  +6.5743853      2894.32     7934.486     9492.657      89.6868     180.3084     360.3298      2.607     6.37     1151.119      63.5709     332.8773        48     1.800     1.752  25.86   0
       300    773.1900    299.2001 307.6108891  +6.5753182     1321.624     3166.969     4011.245      89.6868     180.0213     360.3657      2.678     8.48     1151.061      63.5709     140.1807        16     1.521     1.322 -43.83   2
       301    365.0373    292.0373 307.7808663  +6.5646315     740.3557     2036.827     3556.937     90.11833     180.2367     360.5092      3.012     5.21     1154.125      63.5709     108.1013         6     1.373     0.558  27.64   2
       302   1012.2396    288.7743 307.5118217  +6.5875863     3936.335     8280.507     9203.986     89.97472     180.1649     360.4374      2.155     5.35     1145.263      63.5709     404.1742        38     1.695     1.379  50.30   0
       303    490.3672    288.3173 307.7288719  +6.5703627     948.2269     2314.371     3166.915     90.40488     180.2367     360.5809      2.824     7.89     1149.116      63.5709     120.6041        13     1.695     1.028 -60.10   0
       304    253.2386    284.6514 307.8276068  +6.5639333     2407.685     7408.815     9553.032     90.11833     180.3801     360.6168      2.896     7.50     1157.561      63.5709      290.111        54     2.062     1.794  47.22   0
       305    386.1662    276.6965 307.7725961  +6.5716718     617.8127     1618.603     1801.251     90.54781     180.2367     360.7961      1.837     4.23     1153.221      63.5709     89.77649         6     1.451     0.351  46.51   0
       306    974.4697    274.0730 307.5280217  +6.5923981     729.0688     1770.559     2222.828     90.54781     180.5234     360.6526      2.386     7.34     1146.381      63.5709     89.09497        11     1.602     0.943 -48.21   0
       307    158.2650    270.7560 307.8675699  +6.5664825     710.4995     1659.731     1871.758     90.40488     180.3084     360.6526      2.717     4.43     1162.968      63.5709     110.1628         5     0.798     0.701  28.19   0
       308    567.0192    265.1022 307.6977749  +6.5825092     823.0005     2244.562     3161.676     90.26172     180.2367     360.3657      2.847     7.59     1148.215      63.5709     119.7098        12     1.972     0.818  39.40   2
       309    730.5229    264.5290 307.6297962  +6.5882070      2453.74     6842.165       7647.4     90.69052     180.6667     360.6526      2.616     7.46     1149.216      63.5709     252.0762        49     1.998     1.683  38.27   0
       310    670.6246    265.0558 307.6546892  +6.5859899     979.5414      2396.77     2487.981     89.97472     180.3801     360.4374      2.307     7.47     1148.869      63.5709     119.0385        16     1.445     1.080 -81.82   0
       311    909.9567    266.0843 307.5551195  +6.5935476     1065.209     2180.583     2836.356     90.40488     180.3084     360.6168      2.031     5.60      1148.13      63.5709     140.0018        10     1.340     0.661 -31.41   0
       312    925.1060    255.8902 307.5491604  +6.5982604     635.2289      1435.25     1430.682     90.40488     180.9527     360.6885      2.227     3.91     1147.456      63.5709     96.08923         5     0.999     0.438 -45.11   0
       313    230.3509    249.7148 307.8383023  +6.5775870     962.8279     2945.452     2656.582     90.40488     180.3801     360.6885      2.652    10.22     1158.213      63.5709     110.1044        26     1.931     1.509 -47.02   0
       314    872.2615    247.2716 307.5714268  +6.6000577     902.8427     2203.373     3213.333     90.54781     180.3801     360.7244      2.781     4.87     1147.697      63.5709     124.6021         8     1.026     0.825  -2.81   2
       315    762.7732    248.4510 307.6169228  +6.5959201      959.144     2139.155     2425.518     89.97472     180.5234     360.5809      2.313     6.92     1148.483      63.5709     121.0477        13     1.303     1.041 -64.34   0
       316    462.7584    241.1723 307.7419389  +6.5889002     8393.749     17203.98     19578.75     89.97472     180.3084     360.4733      2.115     5.73     1147.625      63.5709     859.1589        34     2.058     0.953  38.76   3
       317    464.7447    238.8311 307.7411916  +6.5899331      9103.45     22091.88     27687.33     90.26172     180.4518     360.6168      2.511     7.35     1147.401      63.5709     903.5251        55     2.365     1.286  37.67   3
       318    152.5972    231.9104 307.8712373  +6.5823271     946.7569     2575.226     2936.796      89.6868     180.0213     360.2939      2.707     8.99     1163.325      63.5709     125.8988        18     1.904     1.185  65.26   2
       319    789.6334    238.4503 307.6060872  +6.6009444     6434.989     17254.48      21304.1     90.26172     180.3801     360.5809      2.678     6.20     1147.981      63.5709      607.028        70     2.127     1.812  37.98   0
       320    127.2705    230.1631 307.8818286  +6.5821980     634.9001     1271.485     1796.155     90.26172     180.4518     360.7244      2.598     4.42     1165.442      63.5709     101.7792         5     0.771     0.721 -55.73   0
       321    927.1627    228.9008 307.5492085  +6.6094703     817.6705     1666.965      1555.57     90.40488     180.2367     360.9036      1.931     6.22     1146.263      63.5709     120.5264        11     1.511     0.721 -30.13   0
       322    587.8285    225.4264 307.6904535  +6.5995829     2020.609     5787.161      6363.68     89.83087     180.1649     360.4733      2.600     8.22     1147.232      63.5709     198.8395        44     1.915     1.683  29.19   0
       323    550.2888    225.0527 307.7060784  +6.5984822     808.8794     2593.557     2522.538     90.40488     180.1649     360.7961      2.720     9.63     1146.615      63.5709     111.7096        17     1.695     1.526 -34.72   0
       324    310.2403    225.8252 307.8058840  +6.5901272     644.2051     1171.795     1276.704     89.97472     180.1649     360.4016      2.032     4.31     1155.179      63.5709     105.0166         6     0.798     0.663  10.38   0
       325    948.5914    222.0986 307.5405239  +6.6129919     1788.856     3654.975     3816.511     90.11833     179.9494     360.4016      2.085     4.91     1145.261      63.5709     209.4833        26     1.352     1.350  24.65   0
       326    894.6641    221.6728 307.5629669  +6.6113715      6417.58     14915.32      16422.8     90.40488     180.3801     360.6885      2.319     5.43     1146.148      63.5709     633.2596        56     1.879     1.601  34.78   0
       327    692.7068    220.0023 307.6470174  +6.6053254     1422.844     3814.062     4517.779     89.97472     180.0213     360.2939      2.621     7.66      1147.48      63.5709     164.7102        31     1.793     1.519 -73.33   0
       328     21.1166    218.8217 307.9263562  +6.5833128     11266.71     32956.11     39634.57     90.11833     180.0213     360.5092      2.688     6.78     1169.846      63.5709     1176.507        85     2.212     1.903  56.87   0
       329    981.3240    219.4025 307.5270003  +6.6151946     6260.136     13655.42     15557.07     89.83087     179.8056     360.5451      2.244     5.19     1144.177      63.5709     626.2657        51     1.850     1.500  47.19   0
       330    501.4397    214.8485 307.7267372  +6.6010608     827.5421     2379.834     2531.447     90.26172     180.3801     360.5092      2.460     8.46     1145.734      63.5709      114.095        14     1.780     1.123 -72.32   0
       331    832.7672    211.1168 307.5890639  +6.6136662      1275.69     2721.072     2951.425     90.40488     180.1649     360.5809      2.248     7.04     1146.296      63.5709      144.609        22     1.709     1.146  42.39   0
       332    512.4029    211.9148 307.7222763  +6.6026385     1189.386     2959.493     3680.191      89.6868     179.9494     360.3298      2.837     7.62      1145.73      63.5709     127.6462        19     1.518     1.069  16.68   2
       333    885.2889    210.2234 307.5672496  +6.6157855     1080.132     2810.907     2889.947     90.40488     180.1649     360.5092      2.387     8.55     1145.599      63.5709     126.6312        19     1.715     1.191  51.59   0
       334    744.9401    207.7126 307.6257058  +6.6121420     19313.45     51798.93     60551.41     90.40488     180.5234     360.7602      2.554     6.18     1147.155      63.5709     1895.871        87     2.120     1.840  38.68   0
       335    348.2237    207.3947 307.7907083  +6.5990081      3061.44     8879.176     12594.68     89.83087     180.0931     360.4733      3.083     7.61     1153.197      63.5709     304.8367        70     2.402     1.892 -79.14   0
       336    978.5974    206.8147 307.5285555  +6.6203002     1848.833     3747.954     4651.203     89.97472     180.0213     360.4733      2.323     5.28     1143.538      63.5709     185.2031        25     1.573     1.093  70.27   0
       337    455.8073    205.8207 307.7460188  +6.6032605     1907.873     3657.303     4100.137     89.97472     180.0931     360.4374      1.967     6.63     1146.487      63.5709     219.2899        23     1.772     0.949  37.76   3
       338    457.3396    202.8322 307.7454820  +6.6045454     2025.887     4438.013     5770.554     90.11833     180.4518     360.5809      2.372     8.81     1146.349      63.5709     208.0114        28     2.134     1.017  32.00   3
       339    912.7250    204.6965 307.5560237  +6.6189811     4331.942     9662.735     10812.21     89.97472     180.5951     360.6885      2.231     5.18     1144.772      63.5709     432.6617        44     1.782     1.457  53.61   0
       340   1016.7604    205.0783 307.5127410  +6.6222871     1131.035     2200.613     2304.934     90.26172     180.3801     360.0785      2.156     7.34      1142.64      63.5709     126.8552        17     1.465     1.029  54.61  16
       341    114.0384    195.6643 307.8884956  +6.5959942     1846.731     6027.146     7475.929     90.40488     180.3084     360.7602      2.825     8.54      1165.85      63.5709     219.4589        49     1.957     1.852  59.34   0
       342    258.3253    194.6900 307.8285232  +6.6012389     2345.049     5171.188     6571.947     90.40488     180.7382     360.7244      2.347     6.39     1158.112      63.5709     276.0808        23     1.848     0.907  41.45   3
       343    260.8436    192.6940 307.8275432  +6.6021473     2613.543     5614.461     7453.341     90.40488     180.3801     360.7961      2.529     9.20     1158.038      63.5709     278.0223        38     2.427     1.224  39.62   3
       344    282.9886    193.4938 307.8183065  +6.6025597     11427.09     23048.88     25684.56     90.11833     180.0213     360.4016      2.111     6.07     1157.005      63.5709     1209.344        34     1.917     1.035  37.59   3
       345    285.1377    191.2227 307.8174893  +6.6035693     13203.69     29423.17     36011.18     89.97472     180.3801     360.5451      2.390     7.20     1156.954      63.5709     1346.959        59     2.445     1.247  33.82   3
       346    408.1657    187.5932 307.7664457  +6.6091898     20079.45     62990.18     78150.01      89.6868     180.0931     360.4016      2.818     6.98     1148.022      63.5709     1931.169       101     2.260     2.048  34.98   0
       347    164.4296    189.1505 307.8677591  +6.6003750     1740.041     5398.346     6539.127     89.97472     180.4518     360.5451      2.791     9.42     1162.536      63.5709     205.0297        43     1.943     1.726  14.67   0
       348    312.9211    185.3335 307.8061330  +6.6069316     7638.681     22440.13     30060.65     90.54781     180.5234     360.6168      3.005     7.70     1155.232      63.5709     736.8574       109     2.938     2.065   0.65   0
       349    747.3292    183.6405 307.6255196  +6.6221588      16111.4     42839.89     50591.56     90.26172     180.3801     360.7244      2.577     6.21     1146.551      63.5709     1524.147        86     2.110     1.854  37.31   0
       350     64.4765    181.3237 307.9095910  +6.6002486     4222.468      12182.9     14383.77     90.69052     180.6667     360.7602      2.717     6.72     1168.327      63.5709     438.1776        59     2.018     1.828  53.03   0
       351     98.1499    179.9816 307.8956325  +6.6019340     726.4894     2141.852     2165.615     89.83087     180.4518     360.4016      2.498     7.81     1166.454      63.5709       98.026        13     1.640     1.040 -29.91   0
       352   1004.8612    177.8882 307.5185997  +6.6331154     716.2954     1355.945     1665.946     90.40488     180.5951     360.6885      1.753     4.01     1141.657      63.5709     131.0284         6     0.936     0.491  56.76   0
       353   1006.5154    164.1481 307.5183714  +6.6388425     1502.948     3154.098     3811.244     90.40488     180.3084     360.7602      2.385     7.51     1141.016      63.5709      175.879        21     1.671     1.061  61.95   0
       354    281.7517    159.9969 307.8199497  +6.6163453     10451.74     21050.68      23986.1      89.6868     180.0931     360.1862      2.137     6.39     1157.794      63.5709     1210.255        43     2.147     1.056  38.00   3
       355    284.2108    157.7953 307.8190011  +6.6173366     12174.14     28808.92      34909.1     89.97472     180.0931     360.5451      2.434     7.52     1157.705      63.5709      1216.33        54     2.416     1.186  38.07   3
       356    599.0469    161.3399 307.6879406  +6.6264126     736.1429     2031.447     3386.579     90.26172     180.3801     360.7602      4.237     6.73     1144.373      63.5709      112.241         8     2.138     0.595   5.35   2
       357     28.3666    156.9550 307.9254311  +6.6090939     2023.666     6058.334     7127.465     89.97472     180.3084     360.5451      2.671     7.65     1170.461      63.5709     241.9181        46     1.913     1.735  13.27   0
       358    714.6370    154.8260 307.6400834  +6.6329623     3727.656     10148.68     12078.88     89.97472     180.1649     360.4374      2.620     6.37     1145.979      63.5709     384.9315        55     2.005     1.730  44.78   0
       359    125.7034    152.3773 307.8851053  +6.6142541     2116.596     6178.188     7471.233     90.40488     180.0931     360.4374      2.781     7.45     1164.157      63.5709     262.1375        48     1.865     1.830  74.04   0
       360    395.9284    148.5762 307.7728484  +6.6248859      1710.26     5100.751      6530.02     89.97472     180.2367     360.6168      2.852     7.65      1148.02      63.5709     202.5394        42     1.902     1.722  60.53   0
       361    360.7686    147.1831 307.7875184  +6.6242831     1258.717     3922.358     4609.407     89.97472     180.0931     360.5451      2.776    10.87     1151.595      63.5709     163.7416        37     1.902     1.730  61.21   0
       362    463.7271    148.7228 307.7446456  +6.6270952     542.4918     1137.762     1186.943     90.69052     180.6667     360.6885      2.077     5.26     1144.762      63.5709     104.0732         5     1.416     0.551 -48.58   0
       363    115.7260    147.6114 307.8894156  +6.6158862      755.914     1682.355     2178.228     89.83087     179.9494     360.4733      2.801     6.39     1164.455      63.5709     102.4557         8     1.485     0.772 -17.33   0
       364   1006.7901    140.3226 307.5190542  +6.6486869     987.6312     2080.215     2365.213     89.97472     180.0213     360.4733      2.228     7.73     1139.636      63.5709     126.0811        15     1.585     1.098  57.43   0
       365    212.5417    136.2187 307.8495352  +6.6238392     2235.178     7132.002      8737.12     89.97472     180.2367     360.4016      2.782     7.61     1161.603      63.5709     250.1714        53     1.985     1.881  28.20   0
       366    673.6812    135.9607 307.6577510  +6.6393825     2672.489     4846.093     5750.497     90.40488     180.4518     360.5809      1.980     6.14     1144.888      63.5709     319.9169        25     1.768     0.929  33.31   3
       367    674.4835    133.4872 307.6575003  +6.6404303     2401.614     5052.116     6128.998     90.11833     180.5951     360.6885      2.218     7.30     1144.708      63.5709     276.6296        24     2.068     0.895  27.29   3
       368     96.1645    135.1283 307.8979723  +6.6203819     970.6765     2696.383     3851.706     90.26172     180.3801     360.6526      2.486     6.74      1164.68      63.5709     130.3055        14     1.767     0.721  55.95   2
       369    626.3298    132.0719 307.6775761  +6.6394060     4351.357     12532.86     14720.42     90.54781     180.5234     360.5809      2.652     6.99     1144.118      63.5709      423.436        56     2.071     1.758  32.50   3
       370    629.8321    123.4340 307.6764095  +6.6430888     23902.49     68556.16     82537.21     89.83087     180.0931     360.3657      2.680     6.56     1143.868      63.5709     2382.031       108     2.211     2.000  36.49   3
       371    353.3350    127.8052 307.7912626  +6.6320331     1565.435     4783.661     6044.421     89.83087     180.0213     360.4016      2.769     8.04     1152.947      63.5709      218.215        41     1.878     1.792  14.64   0
       372    533.5090    127.3244 307.7163418  +6.6382630     672.3841     1674.443      2256.32     90.40488     180.6667     360.6885      2.484     5.09     1143.421      63.5709     111.7096         7     1.408     0.521  68.50   0
       373    309.2060    117.3051 307.8099699  +6.6348884     1609.534     4587.271     6544.363     90.11833     180.0213     360.4374      3.083     9.44     1156.614      63.5709     160.8483        41     2.031     1.601  -6.10   0
       374      6.6361    100.6479 307.9363708  +6.6316055     732581.4      2244804      2724978     90.11833     180.3084     348.6932      2.769     6.73     1170.256      63.5709     61525.91       363     2.403     2.169  60.73  28
       375    680.3253    110.1751 307.6558530  +6.6502486      728.512     1606.599     1372.088     89.97472     180.1649     360.5809      1.723     4.50     1143.272      63.5709     118.2662         7     1.754     0.329 -17.76   0
       376    693.7952    107.2731 307.6503479  +6.6518963     1549.364     3907.707     4213.212     89.97472     179.8775     360.5451      2.424     7.81     1142.956      63.5709     221.8895        32     1.840     1.479   6.58   0
       377    436.2655     98.5187 307.7577563  +6.6468998     1779.539      4999.49     5665.432     90.69052     180.5951     360.6526      2.636     7.73     1145.267      63.5709     190.6904        41     1.747     1.708  34.25   0
       378    890.3277     94.9365 307.5690154  +6.6635442     1268.886      2794.98     2835.808     90.40488     180.3801     360.6885      2.175     6.66     1138.594      63.5709     137.8977        20     1.428     1.191 -12.58   0
       379    908.4362     93.4809 307.5615319  +6.6647484     2389.408     5228.848     5427.016     90.26172     180.4518     360.6526      2.225     5.73      1138.36      63.5709     252.3966        35     1.730     1.402  36.53   0
       380    601.6318     93.3717 307.6891487  +6.6545560     924.3107     2284.017     2413.234     89.83087     180.0931     360.4374      2.470     6.35     1143.099      63.5709     125.0304        10     1.160     0.976 -47.04   2
       381    400.4564     89.9873 307.7729373  +6.6492224     888.1083     2074.526     2244.439      89.6868     180.3084     360.2939      2.357     6.49     1148.665      63.5709      128.593        10     1.436     0.824  33.05   0
       382    147.6777     87.4488 307.8781574  +6.6417933     1401.226     4271.316     5081.594     90.40488     180.4518     360.6168      2.713     9.71     1162.062      63.5709      150.713        37     1.907     1.665  48.35   0
       383     29.2907     85.3365 307.9274663  +6.6386874     5635.178     16586.83      20833.9     90.40488     180.5951     360.7602      2.792     6.73      1167.25      63.5709     579.2461        73     2.184     1.925  49.29   0
       384    830.7479     79.5384 307.5943136  +6.6679147      3670.44     8547.866     9475.628     90.40488     180.3084     360.6168      2.319     5.72     1138.589      63.5709     364.6008        45     1.776     1.581  40.24   0
       385    776.0980     79.8114 307.6170360  +6.6659793     1789.078     4669.863     5580.057     90.11833     180.0213     360.4016      2.557     7.37     1139.665      63.5709     202.3654        39     1.866     1.531  60.21   0
       386     69.5269     78.5242 307.9109621  +6.6428519     1390.146     3090.688     3853.755     90.69052     180.6667     360.6885      2.360     7.02     1164.225      63.5709      159.225        17     1.585     1.064   6.14   3
       387     70.3360     75.4959 307.9107278  +6.6441290     1348.138     2456.432     3173.128     90.26172     180.5234     360.6526      2.310     7.07     1164.074      63.5709     154.5872        14     1.404     0.996   9.62   3
       388    429.9730     75.7243 307.7611405  +6.6560984      581.962     1301.302      2111.73     90.26172     180.3801     360.6168      2.755     5.07     1147.244      63.5709     96.50183         5     1.205     0.603 -77.59   0
       389    592.5800     74.1175 307.6935605  +6.6622015     682.8983      1669.64     1607.668     89.97472     180.0213     360.5809      2.299     6.65     1142.626      63.5709     82.67432        10     1.482     0.837 -29.30   0
       390     11.2385     74.2012 307.9353504  +6.6426768     983.8591     2025.604     3857.193     89.39795     180.1649     360.3657      2.822     6.47     1167.262      63.5709     135.1841        10     1.653     0.711  30.88   3
       391     12.8023     71.2706 307.9347990  +6.6439391     1069.746     2511.937     3316.802     89.83087     179.9494     360.4733      2.631     7.38     1166.828      63.5709     117.0477        16     1.661     0.918  38.89   2
       392    770.3635     67.4604 307.6198355  +6.6708865     1150.825      2494.31     3313.841     90.40488     180.3801     360.6168      2.460     7.28     1139.125      63.5709     142.2369        15     1.283     1.156 -23.36   0
       393     97.0119     63.0000 307.9000551  +6.6501834     3479.679     6941.927     7484.139     89.83087     179.9494     360.4016      2.062     6.25      1162.51      63.5709     369.3969        24     1.700     1.048  21.62   3
       394     98.3075     60.4417 307.8996026  +6.6512830     4065.591     8550.859     10494.92     90.40488     180.3084     360.7602      2.389     7.10     1162.485      63.5709      465.134        42     2.327     1.244  32.57   3
       395    424.8399     62.0686 307.7637351  +6.6615635     992.3151     2080.244     3463.991     90.26172     180.3801     360.7602      2.473     6.74     1148.854      63.5709     157.4106        12     2.049     0.622  31.89   2
       396    427.4934     59.8783 307.7627051  +6.6625565     1048.875     2300.241     3335.255     90.11833     180.5951     360.7244      2.595     7.42     1148.863      63.5709     139.6646        17     1.735     0.889  27.39   2
       397    639.9413     53.1757 307.6745642  +6.6724288     8702.798     24040.54     29124.77     89.97472     180.3801     360.4733      2.661     6.39     1141.653      63.5709      833.627        71     2.075     1.823  42.88   0
       398    262.8240     56.6315 307.8313056  +6.6583783     718.8162      1941.62     4283.199      89.6868     180.2367     360.4374      3.462     4.26     1160.938      63.5709     107.0371         6     0.983     0.525 -76.48   2
       399    539.6389     51.3364 307.7163466  +6.6698353     1765.828     2783.298     3270.857     90.40488     180.3084     360.7244      1.823     5.47     1142.678      63.5709      241.754        14     1.502     0.653  19.25   3
       400    540.0658     48.6666 307.7162588  +6.6709517     2230.274     5470.031      6509.04     90.40488     180.3801     360.6885      2.647     7.35     1142.666      63.5709     242.4657        34     2.117     1.274  14.19   2
       401    254.1501     42.6101 307.8353860  +6.6638752      1229.03     4164.188     6898.792     89.83087     180.2367     360.2939      6.902    14.31     1161.414      63.5709     167.0885        49     3.250     1.754  56.14   2
       402    626.9879     42.0000 307.6803276  +6.6766093     1252.234     2632.686     4385.502     89.83087     179.9494     360.4016      2.745     6.83      1141.49      63.5709     147.1001        14     1.620     0.807  30.07   3
       403    627.3077     44.9388 307.6800958  +6.6754069     1142.528     2527.705     4186.244     90.26172     180.3801     360.7602      4.344     8.49     1141.575      63.5709     157.0009        15     2.862     0.703  60.17   3
       404    624.7414     44.0882 307.6811919  +6.6756722     1142.182     2123.006     4215.646     90.40488     180.3801     360.7961      2.651     7.31      1141.57      63.5709     196.2545        15     2.575     0.581  66.19   3
       405    444.3937     46.2169 307.7561354  +6.6687616     8862.503     18452.42     20419.94     89.97472     180.0931     360.4733      2.146     6.24     1148.274      63.5709     920.3545        42     2.030     1.170  47.20   3
       406    446.5918     44.1914 307.7552893  +6.6696713     8397.233      17834.1     21054.39      89.6868     180.1649     360.5092      2.262     7.71     1148.071      63.5709      855.951        44     2.360     1.094  39.62   3
       407    266.0774     45.4271 307.8303301  +6.6631125     4009.068     12357.61     16736.95     90.26172     180.3801     360.6168      3.353     7.06     1161.259      63.5709     414.3738        70     2.187     1.968  39.09   0
       408     31.2983     45.3373 307.9279827  +6.6552656     1053.491     3034.517     3584.805     90.11833     180.5234     360.7244      2.614     8.48     1163.676      63.5709     124.0753        24     1.750     1.484  25.26   0
       409    922.7619     44.8107 307.5572030  +6.6853168     1265.817     2606.738     2664.515      89.6868     180.1649     360.3298      2.163     7.52     1135.825      63.5709     139.9155        19     1.521     1.269   4.72   0
       410    123.4590     43.8622 307.8897014  +6.6589716     532.2537     800.3773     1007.193     90.40488     180.3084     360.6885      0.849     1.99     1162.127      63.5709     155.1248         5     0.683     0.446 -64.57   0
       411    693.2305     35.0681 307.6530063  +6.6816835     756.8856     1646.416     2550.329     90.26172     180.3801     360.6168      2.489     4.48     1139.779      63.5709      107.692         7     1.278     0.447  43.72   0
       412    943.7315     34.5137 307.5488251  +6.6902658     803.1075     1615.386      1444.76     90.40488     180.6667     360.6885      1.990     6.75     1134.087      63.5709     112.6304        10     1.260     1.015  75.78   0
       413    736.5577   1020.0895 307.6019603  +6.2765070     800.3972     1221.326      975.732     90.40488     180.3084     329.0394      1.700     4.97     1191.287      63.5709      115.623         7     1.123     0.623  45.80  16
       414    527.4705     25.4148 307.7222795  +6.6801285     1412.319     3885.292     4511.465     89.83088     180.3084     360.5451      2.561     7.86      1142.96      63.5709     160.2667        33     1.779     1.490 -73.28   0
       415    367.9065   1018.9341 307.7552193  +6.2646661     1348.037     2898.147     3261.672     90.40488     180.5951     342.9719      2.256     7.77     1192.499      63.5709     208.2919        21     1.446     1.167  22.55  16
       416    466.7599     23.7220 307.7475891  +6.6787959     818.3292     1844.389     2153.689     90.26172     180.3801     360.6885      2.545     7.86     1146.474      63.5709     116.3402        14     1.662     1.038 -84.46   0
       417    730.2581     23.6916 307.6379860  +6.6876158     1013.647     2459.174     2840.065     90.26172     180.3084     360.7602      2.429     8.19     1137.287      63.5709     114.5981        18     1.545     1.214  28.46   0
       418    978.0471   1015.9526 307.5017263  +6.2862595     675.4351     1254.467     2070.343     90.40488     180.2367     360.6526      2.139     3.77      1187.09      63.5709       110.83         5     1.034     0.394  58.79   0
       419    754.7961   1008.2308 307.5947770  +6.2820106     6198.745     11371.29     12614.99     89.83087     180.2367     360.4016      1.919     4.26      1190.16      63.5709     738.2864        37     1.538     1.291  44.54   0
       420    550.2686   1008.7629 307.6797675  +6.2749637     3007.127     6199.617     6756.562     90.26172     180.3801     360.7602      2.154     5.55      1192.67      63.5709      311.021        38     1.816     1.353  52.19   3
       421    547.5898   1001.0519 307.6811397  +6.2780573     5988.201     12116.25        13416      89.6868     180.2367     360.3657      2.116     4.60     1192.298      63.5709      682.913        46     1.748     1.415  43.07   3
       422    521.2555   1009.9225 307.6917872  +6.2735154     714.8881     1276.457     819.2065     90.40488     180.3801     360.6526      1.845     5.23     1192.549      63.5709     104.0293         7     1.510     0.512  71.15   0
       423    300.6443   1007.7805 307.7835495  +6.2670180     10550.19     21978.91      25074.8     89.83087     180.2367     360.4733      2.230     4.78     1192.503      63.5709     1161.615        68     1.890     1.709  14.88   0
       424    816.4401   1007.7839 307.5691703  +6.2842501      832.338     1772.652     1880.427     89.83087     180.1649     360.4374      2.101     6.40     1188.763      63.5709      110.634        12     1.390     1.051   6.90   0
       425    433.9039   1005.5563 307.7282393  +6.2723969     2876.652     2871.306     2439.965     90.40488     180.3084     360.7961      0.653     0.84     1191.902      63.5709     1345.655         5     0.501     0.373 -78.43   0
       426    916.0907   1001.6324 307.5279569  +6.2901089     7852.246     13432.49     14617.34     90.54781     180.1649     360.6885      1.844     3.97     1186.853      63.5709      890.439        40     1.581     1.214  41.15   0
       427    889.7794    997.8507 307.5390196  +6.2907940     10601.98     19177.51     20722.02     89.83087     180.4518     360.5092      1.922     4.06     1187.324      63.5709     1235.195        52     1.697     1.343  31.69   0
       428    534.2357    997.2410 307.6868180  +6.2791842     2974.235     6480.136     7302.047     90.11833     180.3801     360.4733      2.319     5.27     1192.059      63.5709     326.8418        38     1.687     1.462  36.02   0
