#   1 NUMBER                 Running object number                                     
#   2 X_IMAGE                Object position along x                                    [pixel]
#   3 Y_IMAGE                Object position along y                                    [pixel]
#   4 ALPHA_J2000            Right ascension of barycenter (J2000)                      [deg]
#   5 DELTA_J2000            Declination of barycenter (J2000)                          [deg]
#   6 FLUX_APER              Flux vector within fixed circular aperture(s)              [count]
#   9 FLUXERR_APER           RMS error vector for aperture flux(es)                     [count]
#  12 FLUX_RADIUS            Fraction-of-light radii                                    [pixel]
#  13 FWHM_IMAGE             FWHM assuming a gaussian core                              [pixel]
#  14 BACKGROUND             Background at centroid position                            [count]
#  15 THRESHOLD              Detection threshold above background                       [count]
#  16 FLUX_MAX               Peak flux above background                                 [count]
#  17 ISOAREA_IMAGE          Isophotal area above Analysis threshold                    [pixel**2]
#  18 A_IMAGE                Profile RMS along major axis                               [pixel]
#  19 B_IMAGE                Profile RMS along minor axis                               [pixel]
#  20 THETA_IMAGE            Position angle (CCW/x)                                     [deg]
#  21 FLAGS                  Extraction flags                                          
         1    729.9911     21.6807 307.6450885  +6.6897936     8198.395     11108.83     10334.27     77.97177     155.9435      312.416      1.440     3.94     830.3544     55.09031     1422.046        26     1.394     0.791  55.89   0
         2    450.3779     17.1467 307.7614030  +6.6823121     6857.679      9771.94     9785.757     77.84712     156.3168     312.3538      1.464     3.62     829.8275     55.09031     1101.578        30     1.510     0.814  53.48   0
         3     51.3904     16.7910 307.9271627  +6.6690658     9435.795     13596.63     13943.16     77.84712     156.1303     312.4471      1.528     3.69     827.5771     55.09031     1358.612        31     1.453     0.894  54.73   0
         4    697.2708     15.9859 307.6588721  +6.6910512      1069.04     1234.237     1025.099     77.84711     156.1925     312.4471      1.306     3.80      830.322     55.09031     171.1885        10     1.091     0.587  64.77   0
         5    346.9839     12.1390 307.8045237  +6.6809137     14501.78     20435.78     21050.42     77.84712     156.2546     312.3538      1.466     3.64     835.9651     55.09031     2202.895        32     1.443     0.856  57.61   0
         6    120.4904     12.4638 307.8986031  +6.6731754     2887.496     4102.207     4896.032     78.34455      156.503     312.6024      1.514     3.72     829.0517     55.09031     454.7131        20     1.477     0.736  48.11   0
         7    111.6506     11.2223 307.9023170  +6.6733907     1657.481     2299.719     2836.177     77.84712     156.3789      312.416      1.578     4.75      828.853     55.09031     246.6596        15     1.369     0.708  56.47   0
         8    815.2218     10.3286 307.6100576  +6.6973251     929.1828     1273.732     1211.996     77.97178     156.1925     312.5092      1.489     4.39     828.0449     55.09031     148.2913         8     1.089     0.504  55.29   0
         9    481.5062     10.3553 307.7486983  +6.6861580     730.5621     860.3965     589.6173     78.22049     156.2546     312.6646      1.396     3.67     827.7725     55.09031      121.634         6     1.007     0.384  69.88   0
        10    413.2194     10.1155 307.7770751  +6.6839694     2522.872     3521.496     3163.057     77.97177     156.0058     312.5092      1.446     3.74     831.9788     55.09031     386.6624        17     1.307     0.698  52.84   0
        11   1008.2102      6.6698 307.5300000  +6.7052692     661.6574     885.3408     955.0698     77.84712     156.1303     302.3048      1.338     5.56     823.3672     55.09031     104.0784         9     1.263     0.689  70.72  16
        12    673.9470      5.5774 307.6689093  +6.6945683        12328     17050.97     17602.86     77.84711     156.3168     292.1761      1.442     3.90      830.269     55.09031     2087.879        29     1.427     0.811  57.18  16
        13     92.6989      7.4003 307.9103180  +6.6743311     624.8585     995.3688     740.7133     77.84712     155.9435     307.6546      1.831     4.15     828.2502     55.09031     125.3979         7     1.113     0.613  44.80  18
        14    838.5269      5.0409 307.6005515  +6.7002854     1861.606     2739.564     3424.706     78.22049     156.3789     286.7407      1.498     3.64     827.8575     55.09031     305.2824        15     1.305     0.673  57.05  16
        15    551.5654      5.2408 307.7197637  +6.6906144     1650.124     2249.944     2295.382     78.09623     156.3168     288.5975      1.505     3.54     827.6069     55.09031     246.8762        15     1.269     0.692  57.73  16
        16    908.7731      2.8167 307.5714409  +6.7035463     1735.196     2518.776     3159.348     77.97177     143.6918     257.9262      1.556     4.21     827.6016     55.09031     322.9438        15     1.360     0.674  58.04  24
        17    435.7404      1.8230 307.7679965  +6.6881470     7411.178     8659.751     9202.887     73.61517      131.554     243.0376      1.171     2.59     830.4473     55.09031     1358.799        20     1.056     0.806  26.73  24
        18    273.9128      2.6342 307.8351979  +6.6823857     7153.369     9740.648     10376.48     78.34455     141.7182     255.6191      1.474     4.09     835.0156     55.09031     1128.837        26     1.349     0.889  46.98  26
        19    796.0143      2.3759 307.6183025  +6.6999668     702.6136     1065.027     1651.301     77.72226     138.3195     251.4823      1.505     4.80     827.9285     55.09031     98.30139         9     1.173     0.557  63.15  24
        20    696.0480      1.4442 307.6598652  +6.6970129     4610.132     5218.709     5468.769     69.68435     126.0497     237.0087      0.945     2.03     830.1768     55.09031     1414.835        17     1.223     0.593   8.10  24
        21    665.9785      1.8051 307.6723457  +6.6958591     7968.376     9246.839     9801.131     73.35085     130.9621     242.5976      1.140     2.63     829.9636     55.09031     1603.892        18     1.064     0.702  35.50  24
        22    343.5947    990.5612 307.7731995  +6.2769259     489.7977     463.7205      87.6377     77.47195     156.0681     312.2916      1.058     4.08     859.3184     55.09031     86.79822         5     1.177     0.404  37.03   0
        23    753.2756   1023.4929 307.6020377  +6.2770304     577.7086     746.0894     632.0884     70.37775     127.1238     238.0718      1.270     4.29     859.9518     55.09031      110.197         7     0.999     0.611  24.42  24
        24    384.7838   1022.7396 307.7550265  +6.2650228     1816.498     2263.728      2270.24     76.96888     137.2623     249.5828      1.405     4.63     860.2131     55.09031      235.579        12     1.093     0.753  57.36  24
        25    245.8541    988.3874 307.8138445  +6.2745469     1687.428     2602.183     3100.833     77.72227     156.2546     312.2605      1.724     5.04     857.7289     55.09031     220.4977        18     1.533     0.831  70.25   0
        26     11.0984    989.7739 307.9112430  +6.2660928     3264.981     4954.841     4923.445     78.46841     156.0681     312.5092      1.612     3.91     855.3574     55.09031     410.0403        23     1.369     0.951  53.97   0
        27    644.5043    986.1393 307.6484351  +6.2888182     1045.567     1636.474      1543.05     78.09623     156.3168     312.6335      1.699     5.71      859.522     55.09031     134.6588        12     1.304     0.705  52.98   0
        28    133.6530    986.6378 307.8604773  +6.2715042     549.1525     1038.096     1252.822     78.22049     156.3789     312.5403      2.115     5.38     855.1364     55.09031     94.97571         9     1.443     0.566  69.21   0
        29    784.4992    981.5453 307.5904723  +6.2953880      6633.17     10507.19     11220.71     78.22049     156.3168     312.8199      1.749     3.98     859.0309     55.09031      825.249        35     1.566     1.141  65.17   0
        30    836.2748    983.5243 307.5689126  +6.2962979     2230.433     3552.304     3600.045     78.59209     156.5651     312.6335      1.725     5.00     858.0715     55.09031     266.2433        23     1.592     0.913  54.87   0
        31    254.1113    980.7533 307.8106724  +6.2779750     1446.751      2206.09     2429.292     78.34455     156.1925     312.6646      1.601     5.68     857.6599     55.09031     189.2761        17     1.549     0.848  42.44   0
        32    571.1380    980.8506 307.6790674  +6.2885495     927.4044     1446.506     1465.807     78.34455     156.2546     312.6024      1.780     4.37     859.9117     55.09031     138.0698        12     1.234     0.744  66.77   0
        33    218.6400    980.4418 307.8254070  +6.2769139      911.877     1293.006     1302.147     78.09623     156.3168      312.416      1.262     3.03     856.9238     55.09031     146.8253         7     0.924     0.476  10.21   0
        34     78.6888    978.5693 307.8835628  +6.2729889     2888.219     4358.829     4581.009     78.46841     156.1303     312.4782      1.657     3.56     855.0162     55.09031     392.9108        24     1.430     1.007  64.45   0
        35    972.6837    976.5356 307.5125165  +6.3037281     6209.728     10685.75     10933.41     78.46841      156.441     312.6024      1.861     4.25     856.1918     55.09031     761.3461        38     1.650     1.159  47.27   0
        36    228.8229    972.7833 307.8214364  +6.2804168     614.6193     1087.138     1136.222     78.09623     156.1925     312.4782      1.714     2.88     856.9213     55.09031      92.8205         6     0.737     0.564  47.43   0
        37    655.2979    970.9727 307.6444598  +6.2954394     769.9631     1051.571     719.3582     78.46841     156.0681     312.5092      1.533     5.08     859.4446     55.09031     110.4841         7     1.054     0.692  74.75   0
        38    946.5148    968.2586 307.5236553  +6.3062734     1953.892     3252.334     3585.802     78.34455     156.3168     312.6335      1.876     4.52      856.616     55.09031     226.9606        24     1.477     1.032  57.10   0
        39      4.1775    966.6463 307.9148914  +6.2754066     1025.728      1684.42     1469.239     77.97177      155.257     276.2174      1.684     4.65     854.2084     55.09031     153.8266        11     1.199     0.746  46.91  16
        40    667.2344    964.2102 307.6397299  +6.2986296     4685.586     7325.849     7526.215     77.84712     156.0681     312.3538      1.627     3.78     859.4025     55.09031     601.2524        29     1.471     0.992  53.51   0
        41    279.4168    964.4282 307.8007141  +6.2855622     4803.979     7084.219     7022.008     77.97178     156.0681     312.4471      1.604     3.54     857.8154     55.09031     627.9987        27     1.409     0.970  56.49   0
        42    805.8838    964.5753 307.5821595  +6.3031065      1445.37     2120.525     2462.534     78.22049     156.0681     312.5092      1.598     3.76     858.3639     55.09031     182.8933        13     1.003     0.871 -84.24   0
        43   1016.5464    963.8527 307.4947283  +6.3104239     719.4111     1214.823     1709.328     78.59209     156.1925     312.5714      1.654     4.10     855.4109     55.09031     108.4477         7     0.982     0.489 -83.86  16
        44    489.5179    962.6884 307.7135558  +6.2933170     1057.145     1423.578     1210.866     78.09623      156.503     312.6335      1.444     3.80     859.9629     55.09031     159.1198        11     1.148     0.647  48.65   0
        45     48.0045    961.8998 307.8968584  +6.2788388     2194.231     3245.647     3382.939     78.09623     156.0058     312.1983      1.523     3.46     854.4284     55.09031     287.3195        20     1.263     0.933  48.59   0
        46    898.9803    960.6379 307.5436422  +6.3078355     864.1602      1252.23      1413.29     77.97177     156.1303     312.2294      1.512     5.71     857.0562     55.09031     158.9531        10     1.564     0.605  37.24   0
        47    315.0435    958.3742 307.7861275  +6.2892554      888.288     1210.647     1204.496     77.97177     156.3789     312.4471      1.555     4.94     858.3629     55.09031     121.7463        10     1.136     0.709  50.89   0
        48   1023.7203    954.9468 307.4920458  +6.3143390     533.5643     1190.444     1371.212     67.56149     123.4023     234.3716      2.395     5.44     855.3387     55.09031     91.56464         6     1.275     0.654  58.93  26
        49    990.5737    958.2781 307.5056960  +6.3118605     491.5203     852.7646     772.5168     78.22049     156.2546     312.5092      1.761     4.45     855.8455     55.09031     100.3931         5     1.231     0.457  31.26   0
        50    591.8542    956.7372 307.6712718  +6.2991958     1912.107     2749.464     2691.224     78.34455     156.2546     312.5092      1.556     3.83     859.5034     55.09031     279.0797        15     1.258     0.724  61.57   0
        51    971.3413    957.6113 307.5137024  +6.3114954     591.5462     1019.554     189.5176     77.72227     156.1925     312.2605      1.767     3.97     856.1618     55.09031     116.2277         6     0.928     0.487  -1.37   0
        52    630.9819    953.3847 307.6551404  +6.3018873     1291.937     1984.157     2001.039     78.09623     156.0058     312.4782      1.612     4.63     859.3719     55.09031     179.9795        15     1.236     0.867  24.64   0
        53     80.6335    954.0308 307.8835780  +6.2831831      684.609     964.4731      1623.99     77.84711     156.0681     312.2916      3.822     5.66     854.6718     55.09031     83.16718         9     1.163     0.777  11.72   0
        54    311.0370    950.8646 307.7880418  +6.2922210     1590.743     2311.222     2272.399     78.22049     156.3168     312.6024      1.588     4.06      858.205     55.09031     197.7612        18     1.261     0.920  56.18   0
        55    578.9248    949.6111 307.6768768  +6.3017052     704.8398     897.1393     994.6418     77.97177     156.0058     312.3538      1.356     4.74     859.5057     55.09031     108.1133         7     0.954     0.667  -6.41   0
        56    915.3679    943.3970 307.5374121  +6.3154986     6795.071      11222.1     11884.03     77.59721     156.1303     312.3227      1.794     3.91     856.7926     55.09031     800.4839        38     1.597     1.178  58.91   0
        57    777.9284    946.5270 307.5943656  +6.3096242     854.8436     1386.303     1147.256     78.59209      156.441     312.5714      1.605     6.41     858.3348     55.09031     106.7284        11     1.257     0.919  25.82   0
        58    153.9399    945.0762 307.8534483  +6.2893410      694.059     1060.812     932.9191     78.46841     156.3789     312.5092      1.688     4.97     855.1132     55.09031     111.0009         9     1.096     0.774 -60.56   0
        59    451.3171    940.6630 307.7301493  +6.3011305     2315.491     3322.677     3514.861     78.46841     156.3168     312.5092      1.576     3.40     859.2502     55.09031     327.5343        19     1.236     0.884  58.99   0
        60    620.2919    940.3323 307.6600133  +6.3069180     573.2469     764.3732     801.3203     78.22049      156.441     312.5714      1.730     3.86     859.3233     55.09031     99.93744         6     0.953     0.448  84.86   0
        61    352.8681    939.0575 307.7710717  +6.2984965     10090.68     14692.17     15628.94     78.46841     156.2546     312.5092      1.531     3.61     858.6021     55.09031     1420.498        35     1.461     0.960  56.12   0
        62    273.0244    938.0531 307.8042500  +6.2962351     7344.414     10774.85     11361.17     77.84712     156.3168     312.3849      1.526     3.52     857.1656     55.09031     1002.616        31     1.438     0.954  55.14   0
        63    601.1432    932.4827 307.6682244  +6.3095184     1318.033     1671.859     1593.401     78.34455     156.3168     312.6335      1.523     4.53      859.306     55.09031     169.7155        15     1.255     0.812  58.32   0
        64    785.5399    931.5064 307.5917057  +6.3160787     576.3528     767.8683     1082.913     78.22049     156.3168     312.6024      1.215     3.77     857.8719     55.09031     107.3135         6     0.991     0.413  71.93   0
        65    930.8994    928.3545 307.5314641  +6.3222256      994.488     1464.728     1620.978     78.34455     156.2546     312.7578      1.573     5.17     856.4982     55.09031     144.3638        10     0.978     0.774  52.22   0
        66    429.4956    926.8248 307.7396702  +6.3061123     670.2207      826.041     1012.229     78.46841     156.0681      312.416      1.230     3.00     858.6614     55.09031     125.1867         7     0.853     0.599  -6.55   0
        67    997.4782    924.6436 307.5039467  +6.3259747     1403.279     1867.116     1957.429     78.22049     156.3168     312.5714      0.880     4.22     855.6229     55.09031     966.7547         7     0.962     0.529 -50.30   0
        68    767.3091    921.5573 307.5996054  +6.3195773      1885.37     2627.573     3313.509     78.34455     156.3168     312.6335      1.663     4.20     858.0764     55.09031     232.5615        15     1.271     0.790  62.41   0
        69    591.1119    922.3027 307.6727283  +6.3133853     727.9374     1125.042      884.622     78.34455     156.7511     312.5714      1.644     3.40     859.2473     55.09031     148.5737         8     1.026     0.582  61.86   0
        70    860.1926    921.4327 307.5610486  +6.3227266     519.5578     916.4365     1057.789     77.84712     156.1925     312.3538      1.624     4.79     857.1353     55.09031     122.7051         6     1.294     0.622  18.08   0
        71    631.7300    918.3206 307.6559987  +6.3163865     837.0358     1246.172     1427.384     78.59209     156.5651     312.5092      1.556     4.66     859.1725     55.09031     110.6017         7     0.990     0.622  51.13   0
        72     17.7972    918.5914 307.9108497  +6.2957002     1100.679     1450.325     1177.026     77.72227     156.0058     312.3849      1.545     5.50     852.0666     55.09031     146.0201        12     1.058     0.827  56.34   0
        73    999.0322    917.1337 307.5035509  +6.3291265     1146.954     1783.402     2219.655     78.22049     156.3789     312.4782      1.582     4.58     855.2958     55.09031     164.7332        14     1.273     0.754  49.74   0
        74    643.3119    918.0795 307.6511985  +6.3168730      678.652     667.6839     288.6632     78.09623     156.5651     312.6646      1.298     5.29     859.1481     55.09031     113.4404         8     1.151     0.686  51.31   0
        75    552.5420    917.3899 307.6889041  +6.3141238     1337.765     1765.956     2039.587     77.72227     156.2546     312.2605      1.453     3.94     859.2178     55.09031     216.4288        13     1.210     0.758  60.75   0
        76    686.0569    915.0102 307.6335553  +6.3195677     2620.467      3979.16     4650.471     77.72227     156.3168     312.2605      1.661     3.77     858.9341     55.09031     411.7228        22     1.605     0.812  54.67   0
        77     82.4566    911.0148 307.8842630  +6.3010003     2953.911      4962.28     5066.868     77.72226     156.2546     312.2294      1.797     3.58      853.459     55.09031     412.3849        31     1.493     1.197  44.78   0
        78    847.4039    911.9912 307.5666720  +6.3261977     845.4367     1293.066     1056.689     77.72226     156.0058     312.3849      1.546     4.95     857.1261     55.09031     119.8148        10     1.084     0.641  26.74   0
        79    226.2249    910.0156 307.8246156  +6.3062389     2393.759     3580.205     3413.803     78.09623     156.1925     312.4782      1.557     3.94     855.1179     55.09031      310.937        22     1.427     0.890  56.57   0
        80    100.0731    910.5132 307.8769670  +6.3017991      2008.08     2913.173     2657.014     78.46841     156.6271     312.5403      1.509     3.84     853.9482     55.09031     286.2601        18     1.296     0.874  61.07   0
        81    964.3863    910.4371 307.5181571  +6.3307373     828.9662     1294.668     1285.949     77.84712     156.1303     312.2605      1.800     6.50     855.7476     55.09031     88.40625        12     1.153     1.029   9.84   0
        82    260.3006    906.9786 307.8105715  +6.3086354     892.9099     1485.611     1213.816     78.34455     156.0681     312.3227      1.692     3.75     856.1433     55.09031     135.2014        10     1.081     0.619  69.48   0
        83    680.6211    904.0935 307.6361757  +6.3238925     7298.711     10881.92     10968.54     78.22049     156.1303     312.3538      1.559     3.69     858.8436     55.09031      1023.34        29     1.477     0.918  55.85   0
        84    365.2274    906.2507 307.7670375  +6.3124527     1024.588     1462.756      1722.14     77.97178      156.441     312.4782      1.646     4.38     857.8678     55.09031     148.2894        12     1.258     0.659  64.50   0
        85    818.4740    905.0959 307.5789119  +6.3280794     728.4688     921.0628     592.2034     78.09623      156.441     312.5403      1.467     4.06     857.2554     55.09031     112.1199         7     0.898     0.576   7.48   0
        86    470.0601    901.6467 307.7236713  +6.3178633     544.2424     1024.704     1137.364     78.22049     156.3168     312.6335      1.960     5.49     858.5591     55.09031     90.38519         7     1.275     0.667  71.00   0
        87     40.6267    902.4496 307.9019143  +6.3031303     1257.697     2164.585     1725.105     77.97178     156.3789     312.4782      1.763     5.30     851.7705     55.09031       165.98        16     1.436     0.850  36.68   0
        88    918.3727    900.3306 307.5375962  +6.3333766     2859.626      4541.65     4318.579     77.97178     156.1925     312.4471      1.711     4.18     856.5087     55.09031     324.5797        24     1.477     0.981  53.76   0
        89     53.7782    900.7615 307.8965116  +6.3042691     1208.364     1636.799     1039.306     77.97177     156.0681     312.3227      1.482     4.32     852.1115     55.09031     202.1482        12     1.252     0.777  61.76   0
        90    363.6076    897.3442 307.7680077  +6.3160749     17353.86     25255.24     26776.11     77.84712     156.1303     312.2605      1.574     3.69     857.6375     55.09031     2531.695        39     1.514     0.952  56.77   0
        91     98.0581    898.2910 307.8782131  +6.3067765     1427.288     2029.539     2127.509     78.22049     156.2546     312.6646      1.597     4.21     853.3063     55.09031     187.9622        17     1.291     0.883  59.11   0
        92    234.6615    896.7300 307.8215580  +6.3120059     1433.552     2423.297     2056.707     78.46841     156.3168     312.6024      1.795     4.69     855.3153     55.09031     187.0067        20     1.387     1.011  67.26   0
        93    414.5285    896.5755 307.7468941  +6.3180977     783.1655     876.0408     983.0646     77.97178     156.1925     312.4782      1.329     4.39     857.6769     55.09031     124.2292         8     1.034     0.587  46.50   0
        94    441.4364    888.1824 307.7360039  +6.3224631     1127.281     1321.127     1090.958     77.84712     156.1303     312.3227      1.359     5.10     857.7635     55.09031     163.9101        10     1.093     0.674  52.78   0
        95    126.8960    888.1180 307.8665827  +6.3119441     1782.581     2683.082     2680.982     78.22049     156.6271     312.6335      1.563     3.58      853.783     55.09031     272.2927        17     1.288     0.832  59.98   0
        96    472.9500    886.9427 307.7229625  +6.3240296     557.2091     593.2124     1050.812     78.34455     156.3168     312.5403      1.403     3.83     858.1691     55.09031     89.32227         5     1.059     0.397  57.32   0
        97    694.8941    883.8587 307.6309244  +6.3327220     858.0442      1382.78     1453.143     78.22049     156.3168     312.6646      1.702     5.87     858.4526     55.09031     121.2233        11     1.272     0.763  63.25   0
        98    522.4360    885.1437 307.7024785  +6.3264279     782.2211     1095.276     1162.392     78.22049     156.3168     312.5714      1.379     4.84      858.738     55.09031     121.8075         9     1.252     0.531  30.30   0
        99    879.5881    881.8949 307.5543113  +6.3396943     2024.207     3126.521     2850.113     78.09623     156.0681     312.3227      1.609     4.50     856.6239     55.09031      266.183        19     1.444     0.819  55.04   0
       100    908.7878    882.0591 307.5421829  +6.3405996     2019.358      3257.69     3314.096     77.72226     156.2546     312.2605      1.680     4.30     856.4742     55.09031     282.1292        20     1.412     0.874  47.98   0
       101    842.8082    880.9680 307.5696120  +6.3388508     2973.262     4493.646      4733.89     77.84712     156.1925     312.3538      1.581     3.71     856.8706     55.09031     418.1437        21     1.389     0.850  54.67   0
       102    110.4216    881.5635 307.8736413  +6.3140964      2718.68     3847.974     3741.867     77.97178     156.0681     312.2916      1.491     3.60     852.9964     55.09031     354.9028        17     1.228     0.827  45.10   0
       103    358.3293    879.5474 307.7707938  +6.3232444     796.6307     1117.054     1294.423     78.22049     156.2546     312.4782      1.562     4.83     857.2023     55.09031     124.3832         8     1.251     0.528  73.08   0
       104    578.7178    872.4853 307.6795352  +6.3335352     362718.9     518815.5     539286.1     78.09623     156.5651     312.6025      1.572     4.15     858.9523     55.09031      54086.1       154     1.651     1.141  55.42   4
       105    422.9806    875.0917 307.7441030  +6.3272489     8346.106     12015.61     12344.96     78.22049     156.0681     312.3849      1.498     3.43     857.1684     55.09031     1234.068        31     1.429     0.948  51.85   0
       106    666.4863    875.3390 307.6430021  +6.3352901     1265.936     2067.448     1891.906     78.46841      156.441     312.6024      1.707     4.78     858.6226     55.09031     200.4144        13     1.309     0.691  61.70   0
       107    479.2284    876.4613 307.7207060  +6.3285663     517.1688     849.2218     915.8913     77.97178     156.3168     312.4782      1.447     2.97     857.9308     55.09031     90.23761         5     0.728     0.442  23.54   0
       108    366.0805    873.5060 307.7677779  +6.3259978     13698.88     19648.68     20585.74     78.09623     156.5651     312.6024      1.542     3.61      857.052     55.09031      1848.76        39     1.481     0.980  54.88   0
       109    916.8817    868.6081 307.5392698  +6.3464219     5148.405     8326.524     9299.032     77.97177     155.9435      312.416      1.737     3.90     856.3731     55.09031     714.4932        34     1.587     1.084  47.93   0
       110    684.5693    869.7289 307.6356817  +6.3382099     3777.389      5305.35     5583.067     78.22049     156.3168     312.4782      1.526     3.87     858.3845     55.09031     541.2147        20     1.356     0.778  55.22   0
       111    756.3300    866.0528 307.6060115  +6.3421230     862.3478     1223.575     926.6382     78.22049     156.1925     312.4782      1.417     4.14     857.5462     55.09031     135.0066        11     1.205     0.620  53.56   0
       112    847.8332    862.9952 307.5681236  +6.3464375     1732.991     2425.007     2459.916     77.59721     156.1925     312.3227      1.461     3.90     856.6414     55.09031     271.2159        15     1.303     0.716  68.55   0
       113    659.3550    863.8107 307.6463469  +6.3398107     3544.853     5163.625     5201.436     77.84712     156.1925     312.2605      1.541     4.03     858.5241     55.09031     484.1251        20     1.339     0.833  49.09   0
       114    649.6500    862.6739 307.6504140  +6.3399558     988.1143     1402.514     1796.472     78.34455     156.3789     312.5714      1.592     5.48      858.544     55.09031     171.3031        12     1.419     0.596  58.90   0
       115    201.6936    863.0524 307.8363715  +6.3248014     448.4752     901.2676      401.077     78.22049     156.2546     312.7578      1.580     3.45     854.7921     55.09031      113.545         5     1.642     0.210  54.42   0
       116    975.1364    861.9301 307.5153056  +6.3511190     621.0141     1066.196     869.2966     78.34455     156.3168     312.5714      1.590     4.87     854.2937     55.09031      87.4552         7     1.378     0.487  58.55   0
       117    652.2415    858.4279 307.6494797  +6.3417951     2418.543      3630.43     3933.957     77.97178     156.2546     312.3849      1.646     4.01     858.3341     55.09031     319.1174        20     1.405     0.822  50.95   1
       118    935.9446    856.4383 307.5317598  +6.3520807     3116.407     5067.391      5541.31     78.34455     156.3789     312.5714      1.763     4.28     855.6838     55.09031      410.226        27     1.525     0.991  57.95   0
       119    346.1319    857.3850 307.7765985  +6.3319840     942.9286     1319.793      1284.87     77.84712     156.1925     312.4471      1.404     4.91      856.434     55.09031     143.1258        10     1.240     0.551  49.13   0
       120    473.2424    878.8907 307.7231100  +6.3273632     496.5503     676.3713     1135.161     78.34455     156.3168     312.6024      1.205     3.48     857.9385     55.09031     107.6353         5     1.045     0.335  47.66   0
       121    394.0269    852.4141 307.7568809  +6.3356404     2799.977     4067.902     4265.276     77.97177     156.1303     312.4782      1.571     3.88     856.3223     55.09031     393.0908        20     1.365     0.829  53.39   0
       122    530.3082    842.1177 307.7006463  +6.3444519      3303.37     4718.292     4339.656     78.09623     156.6271     312.6024      1.493     3.67     857.3792     55.09031     484.1777        22     1.337     0.855  54.26   0
       123    874.8557    840.9750 307.5576369  +6.3564283     1177.069      1705.05      1981.28     77.97177     156.3168     312.3538      1.428     3.81     855.9431     55.09031     171.7228        11     1.117     0.657  73.18   0
       124    595.6270    839.4155 307.6736181  +6.3477514     686.9197     1034.576     919.1047     77.97178     156.1303     312.4471      1.584     3.15      857.514     55.09031     138.0563         7     0.967     0.459  79.78   0
       125    577.1786    838.2892 307.6813149  +6.3475996      6541.25     9390.077     9519.522     78.34455     156.1303     312.4471      1.505     3.64     857.4539     55.09031     944.9098        27     1.427     0.870  53.53   0
       126    584.0488    837.8885 307.6784760  +6.3479947     1384.794     1907.096     2022.405     78.34455     156.1925     312.6335      1.346     3.63     857.4562     55.09031     229.9264        15     1.240     0.790  61.05   0
       127    494.8821    837.2009 307.7155181  +6.3452964     1635.552     2253.304     2316.812     77.59721     155.8813     312.2605      1.458     4.06     856.4629     55.09031     259.1659        16     1.416     0.725  50.71   0
       128    289.0206    838.8590 307.8009278  +6.3377170     757.7453     1033.102      950.058     77.97177     156.1925     312.3849      1.390     5.51      855.463     55.09031     128.5845        11     1.146     0.747  49.99   0
       129    136.6018    836.5035 307.8642829  +6.3335753     1401.862     2212.303     2247.799     77.84712     156.0681     312.1983      1.728     3.92     852.3749     55.09031     200.4967        15     1.342     0.754  53.00   0
       130    912.8181    836.4585 307.5420257  +6.3595578     1359.467     1943.878     2232.498     77.97177     156.1925     312.2916      1.599     4.50     855.3588     55.09031     157.7022        16     1.372     0.783  44.49   0
       131    712.6899    835.2158 307.6251567  +6.3533957     766.7086     944.5202     998.0933     78.09623     156.1303     312.3849      1.546     5.14     857.2376     55.09031     116.0549         7     1.317     0.567  55.50   0
       132    547.7935    832.1707 307.6937189  +6.3491428     21049.94     30156.75     31410.32     77.84711     156.0681     312.3538      1.507     3.72     857.1183     55.09031     3095.738        41     1.477     0.934  54.84   0
       133    389.2830    833.8733 307.7594700  +6.3431349     754.5086     1088.645     865.3434     78.59209     156.6271     312.5714      1.582     4.55     855.6301     55.09031     127.0868        10     1.176     0.717  41.89   0
       134    961.3359    830.4531 307.5220813  +6.3636532     3801.048      6024.75     6345.569     78.34455     156.2546     312.5092      1.710     4.05     853.9917     55.09031     475.3281        30     1.541     1.137  67.89   0
       135    193.8497    831.6483 307.8406793  +6.3375011     578.5806     798.7124     470.0948     78.34455     156.1925     312.5092      1.404     3.86     853.3993     55.09031     100.3571         6     1.173     0.364  59.62   0
       136     81.7014    828.3950 307.8873460  +6.3350784     593.9032     673.8474     536.7825     78.09623     156.0058     312.1983      1.401     3.33     850.1041     55.09031     120.2358         6     0.859     0.501  47.60   0
       137     58.1497    822.6804 307.8973149  +6.3366459     1579.418     2295.289     2409.292     78.34455     156.3789     312.5403      1.663     3.77     849.5295     55.09031     247.6512        15     1.278     0.749  52.79   0
       138    340.3949    820.9149 307.7801996  +6.3468461     3457.331     4822.332     4895.164     77.84711     156.0058     312.2294      1.478     3.73     855.1339     55.09031     495.5811        19     1.290     0.795  53.34   0
       139    806.0150    816.7433 307.5870248  +6.3641356     57688.16     85477.82     89138.86     77.72227     156.2546     312.2294      1.558     3.72     856.1774     55.09031     8561.751        67     1.620     1.035  55.73   0
       140     40.3595    819.0815 307.9048210  +6.3375336     2247.622     3294.594     3089.031     78.34455     156.3168     312.4782      1.502     3.76      849.162     55.09031     312.9991        19     1.340     0.854  61.17   0
       141    744.7377    818.5388 307.6124065  +6.3613498     617.5598      871.392     1423.451     78.34455     156.3168     312.5714      1.923     4.57     856.6938     55.09031     95.81085         8     1.379     0.431  50.55   0
       142    263.1207    814.5900 307.8124923  +6.3468664     5699.651     8559.405     10825.83     77.97177     156.0058     312.3849      1.697     3.44      854.213     55.09031     780.1312        31     1.477     0.970  63.51   0
       143    449.5741    815.3712 307.7350575  +6.3527912     922.9273      1094.42     1113.858     77.84712     156.1303      312.416      1.289     4.25     854.9912     55.09031     144.9937         9     1.168     0.576  51.73   0
       144    931.2783    811.9624 307.5351756  +6.3702849     8603.425     13143.53     13633.82     78.22049     156.3789     312.5403      1.620     3.74     854.1612     55.09031     1251.741        32     1.516     0.957  54.35   0
       145    734.2614    811.2936 307.6169975  +6.3639908     23006.59     33197.13     35372.68     78.22049     156.3168     312.6024      1.564     3.82     856.5942     55.09031      3143.67        48     1.701     0.965  64.55   3
       146    727.9342    807.7983 307.6197408  +6.3652225      93136.7     135986.6     142712.6     77.72226     155.9435     312.3227      1.538     3.72     856.5378     55.09031     14271.68        75     1.610     1.034  55.91   3
       147    372.7779    808.7100 307.7671634  +6.3529691     22678.04     32349.12     33157.37     78.34455     156.1303      312.416      1.511     3.59     854.6686     55.09031     3459.252        42     1.469     0.972  54.37   0
       148    231.8539    810.6163 307.8256060  +6.3474579     688.3577     976.2363     1033.772     77.84712     156.3168     312.2605      1.556     4.65     853.0755     55.09031     84.63562         7     1.055     0.583 -78.01   0
       149    422.1783    808.9471 307.7466460  +6.3545257     1421.972      2115.21     1838.337     77.84712     156.3168     312.3538      1.466     3.97     854.6765     55.09031     261.8005        11     1.200     0.598  48.54   0
       150    434.6547    806.5265 307.7415470  +6.3559427     24149.38     34115.64     35702.94     78.22049     156.1925     312.4471      1.540     3.69     854.6132     55.09031     3781.841        46     1.487     0.962  54.03   0
       151    661.0475    807.6965 307.6475146  +6.3630309      897.673     1570.375     1900.493     78.34455     156.1925     312.6956      2.053     6.09     856.4676     55.09031     123.8245        10     1.310     0.796  45.38   0
       152    971.8431    805.3360 307.5185534  +6.3743714     2166.047     3506.324     3744.346     78.34455     156.2546     312.5714      1.754     4.07     853.0892     55.09031     307.9492        20     1.440     0.831  56.72   0
       153    262.7408    793.0917 307.8133695  +6.3557277     760608.2      1605545      1757703     78.22049     156.2546     312.6646      2.177     6.17     853.5638     55.09031     64033.44       562     2.429     1.946  59.06   4
       154    928.1825    803.4695 307.5367433  +6.3736876     6944.447     10502.89     11118.03     77.84712     156.1925     312.4471      1.627     3.74       853.87     55.09031     929.1985        32     1.568     0.925  56.86   0
       155    901.2635    804.2624 307.5478936  +6.3724634     687.3127     833.2489     666.2692     78.34455     156.3168     312.5714      1.177     3.55     854.5144     55.09031     139.1265         6     0.874     0.678  19.72   0
       156    668.6729    802.4605 307.6445232  +6.3654470     7280.063     10092.41     10358.05     78.46841     156.3168     312.5714      1.524     3.55     856.3583     55.09031     1108.352        27     1.420     0.861  54.37   0
       157    457.3153    800.2989 307.7323470  +6.3592720      1889.67     2635.501     2672.583     78.34455     156.7511     312.6024      1.483     4.06     854.3226     55.09031     310.1841        15     1.276     0.710  59.75   0
       158    182.7127    799.7679 307.8463705  +6.3502870     775.7924     1175.915     1304.257     78.46841     156.1303     312.5403      1.338     4.03     851.8526     55.09031     142.1315         7     1.112     0.419  61.98   0
       159    897.0215    794.6727 307.5499738  +6.3762806     760.2699     1461.135     1068.464     77.97177     156.1303     312.5092      1.720     4.56     854.4304     55.09031     136.1605         8     1.242     0.475  42.26   0
       160    622.1599    794.6805 307.6640941  +6.3671045     889.7612     1355.787     1389.196     78.34455     156.3789     312.4782      1.483     4.91     855.4702     55.09031     154.0442         9     1.275     0.536  56.09   0
       161    703.8582    792.5356 307.6302454  +6.3707190      2725.52     3431.573     3500.823     78.46841     156.2546     312.5714      1.433     3.78     856.0881     55.09031     402.3122        19     1.308     0.809  49.24   0
       162    172.7308    793.1752 307.8507354  +6.3526732     1033.387     1193.084      1420.44     77.97177     156.1925     312.4782      1.327     3.63     851.4395     55.09031     196.1961        10     1.210     0.571  50.79   0
       163    147.9038    793.1953 307.8610418  +6.3518315     1201.349     1839.977     1724.125     78.09623     156.0058     312.2916      1.619     3.75     850.8423     55.09031     188.3362        14     1.270     0.703  46.08   0
       164    437.5938    789.2055 307.7409054  +6.3631910     58200.45     83419.32     86637.02     77.72227     156.1303     312.3538      1.535     3.59     853.8774     55.09031     8861.312        71     1.532     1.060  52.67   0
       165    980.6694    790.8503 307.5153700  +6.3806451     769.5626     1147.888     1299.643     78.22049     156.2546     312.5714      1.591     4.66     852.6533     55.09031     113.3698         8     0.978     0.630  74.11   0
       166    555.3741    788.2021 307.6920387  +6.3675461     7820.985      11299.1     11954.14     77.97177     156.0058     312.3538      1.525     3.73     855.0593     55.09031     1125.271        31     1.501     0.892  53.11   0
       167    472.1401    786.8466 307.7266413  +6.3653211     4762.034     6755.743     7657.216     78.22049     156.3168     312.6335      1.505     3.86     853.8477     55.09031      750.584        24     1.441     0.816  51.89   1
       168    800.5678    784.8620 307.5903476  +6.3771144     12200.43     17813.09     18347.67     78.09623     156.3789     312.4782      1.561     3.81     855.3927     55.09031     1773.349        36     1.484     0.936  55.49   0
       169    695.7034    784.1407 307.6339109  +6.3739121     517.6923     801.0178     803.5176     78.09623     156.3168     312.6335      1.408     3.95     855.7281     55.09031     79.91876         6     1.079     0.413  78.77   0
       170    468.8380    780.1637 307.7282355  +6.3679692     2549.297     3888.484     4231.902     78.09623     156.1925     312.3538      1.598     4.04     853.5844     55.09031     385.0851        22     1.522     0.880  46.46   1
       171     29.8264    780.6539 307.9104826  +6.3530415     1201.814     1559.906     1495.409     77.97177      156.441     312.4471      1.417     4.03     848.4884     55.09031     162.2359        10     1.101     0.619  53.86   0
       172    822.1801    778.8454 307.5815744  +6.3803189     1392.903     1813.594     1704.095     77.97177     156.1925     312.3849      1.385     3.49     855.0447     55.09031     191.6499        11     1.099     0.629  51.59   0
       173    158.2850    776.8700 307.8572789  +6.3589187      12503.6     18145.71     19142.98     78.46841     156.5651     312.5714      1.553     3.62     850.4431     55.09031     1720.052        36     1.463     0.953  53.10   0
       174    989.8555    777.8136 307.5119891  +6.3863325     572.5229     926.1169       1100.3     77.72226     156.2546     312.2916      1.845     3.36     852.2032     55.09031     84.30743         6     0.750     0.568  47.06   0
       175    166.3706    777.0221 307.8539170  +6.3591274     3298.166     4931.007     5426.495     77.72226     156.0681     312.3849      1.596     3.59     850.6371     55.09031     439.0241        20     1.304     0.861  56.06   0
       176    150.5181    774.3255 307.8605887  +6.3597083      3206.88     4907.218     5687.005     78.59209     156.6271     312.6024      1.713     3.84     850.1642     55.09031     474.0046        24     1.456     0.884  52.17   1
       177    995.3270    773.3859 307.5098644  +6.3883425      1435.23     2415.585     3126.434     77.84712     156.0681     312.3849      1.765     4.79     851.9754     55.09031     186.5727        18     1.432     0.812  57.92   0
       178    946.0903    773.4116 307.5303071  +6.3866921     6476.229     9777.077      10377.1     78.09623     156.0058     312.3538      1.600     3.78     853.2065     55.09031      868.705        29     1.495     0.941  54.20   0
       179    222.7923    773.0270 307.8306264  +6.3626700     450.1374     811.7648     1392.814     77.97177     156.1303     312.3538      2.372     4.35     852.0206     55.09031     73.77032         5     1.020     0.528 -55.12   0
       180    701.4935    771.2061 307.6319379  +6.3794448     1856.904     2550.095     3180.571     77.97178     156.0058     312.3538      1.447     3.43     855.2633     55.09031     251.9113        16     1.216     0.812  59.40   0
       181    588.4355    770.2626 307.6789105  +6.3760568     2693.048     3722.981     3387.915     78.22049     156.3168     312.5092      1.505     3.95     854.5527     55.09031     380.8127        21     1.342     0.888  48.90   0
       182    436.4046    769.8533 307.7420457  +6.3711395     1284.509       1838.6     1782.363     77.72227     156.0681     312.1983      1.590     4.58     853.1053     55.09031     182.0137        15     1.412     0.705  59.91   0
       183    150.7355    767.8492 307.8607154  +6.3623889     2006.645     3056.666      2887.74     78.22049     156.1925     312.5714      1.603     3.69     849.9218     55.09031     276.7155        18     1.324     0.807  45.14   0
       184    940.2581    765.2974 307.5329984  +6.3898474     3003.309     4376.495     4388.381     78.09623     156.2546     312.6956      1.591     3.90     853.2964     55.09031     416.9984        21     1.371     0.902  58.40   0
       185   1000.7298    764.6667 307.5079107  +6.3921216     1832.479     3082.238     3255.999     78.34455     156.3789     312.5403      1.811     5.27     851.6387     55.09031      242.692        18     1.466     0.854  46.81   0
       186    969.7809    764.9378 307.5207521  +6.3909792     3239.661     4975.277     5039.677     77.97177     156.2546      312.416      1.599     3.67     852.4812     55.09031      440.642        23     1.348     0.977  51.72   0
       187    692.5577    764.6885 307.6358652  +6.3818368     1532.669     2287.884     2246.074     78.34455     156.2546     312.5714      1.647     3.84     854.9744     55.09031     287.1101        12     1.180     0.626  48.46   0
       188    839.9554    762.7611 307.5747293  +6.3875513     1077.349     1475.669     1478.069     78.09623     156.3168     312.4471      1.366     3.81     854.4814     55.09031     191.1291         9     1.078     0.560  59.11   0
       189    915.7672    760.6728 307.5433210  +6.3909405      786.973     1204.797     986.9565     78.22049     156.3168     312.5092      1.505     5.05     853.7289     55.09031     110.3718         9     1.176     0.612  51.01   0
       190    265.3155    759.6891 307.8134184  +6.3696021     2323.143     3422.022     4026.351     78.09623     156.5651     312.6335      1.572     3.68     852.4275     55.09031     292.4786        17     1.202     0.858  46.50   0
       191    783.3088    759.5002 307.5983579  +6.3870078          508     535.5146     151.2132     78.34455     156.6891     312.5092      1.484     4.92     854.7272     55.09031     77.25836         6     0.975     0.702  62.03   0
       192    957.9312    754.8907 307.5260062  +6.3947320     1159.836     1775.041     1646.965     78.34455      156.441     312.5092      1.532     5.00     852.6851     55.09031     165.3442        14     1.285     0.900  34.15   0
       193    285.3622    755.0624 307.8052503  +6.3721841     851.5606      1404.13     1337.774     78.34455     156.3789     312.5403      1.637     5.39     852.4519     55.09031     147.7687        11     1.322     0.619  51.99   0
       194    984.6176    752.6846 307.5149988  +6.3965314     2394.064     3753.424     3869.906     77.97178     156.0681     312.4782      1.646     4.16     851.8439     55.09031       312.89        23     1.524     0.862  56.48   0
       195    180.8580    755.1625 307.8486345  +6.3686369     910.1309     1156.873     1370.291     78.34455     156.3789     312.5403      1.310     4.21     850.2432     55.09031     136.0435         7     0.905     0.558  56.69   0
       196    931.9665    753.7264 307.5368258  +6.3943477     1162.686     1591.849     1109.547     78.22049     156.2546     312.5403      1.486     5.26     853.4528     55.09031     166.8788        11     1.070     0.731  52.51   0
       197    704.1121    751.7043 307.6315005  +6.3875824     1010.609     1452.217     1747.998     78.34455     156.6891     312.5714      1.476     4.19     854.5892     55.09031     161.9922        10     1.211     0.577  53.74   0
       198    495.2755    747.2524 307.7183580  +6.3824394     572.6909     868.3854     421.1578     78.34455     156.3789     312.5403      1.618     4.34     852.7443     55.09031     97.43433         5     0.831     0.709 -66.76   0
       199    425.1681    746.7881 307.7474816  +6.3802843     559.5767     840.2312     947.8691     77.84711     156.0681     312.4471      1.934     5.22     852.1104     55.09031     93.60455         7     1.269     0.608  49.42   0
       200    827.6248    744.6520 307.5804518  +6.3946155     1243.513     1913.889     1333.219     77.97178     156.3168     312.4471      1.529     4.09      854.003     55.09031     235.0768        12     1.385     0.597  61.59   0
       201    652.5472    745.5541 307.6531154  +6.3883989     734.0352     1087.322      800.114     78.34455     156.3168     312.6024      1.703     4.45     853.9426     55.09031     110.6372         8     1.233     0.456  55.45   0
       202    913.9495    741.7423 307.5447052  +6.3986944     1597.723     2519.814     2681.294     78.34455     156.3168     312.5403      1.634     3.93     853.5789     55.09031     254.5305        14     1.316     0.696  43.42   0
       203    888.6211    737.2659 307.5553709  +6.3996981     1058.611     1616.073     1696.872     77.97178     156.3168     312.4471      1.591     5.87     853.6528     55.09031     155.7706        13     1.299     0.746  58.68   0
       204    674.0129    736.6379 307.6445000  +6.3927966     607.9467     772.2666     449.4433     77.97177     156.1303     312.2605      1.316     2.93     853.6041     55.09031     102.4179         7     0.725     0.666   7.74   0
       205    870.7685    733.1907 307.5629191  +6.4007853     1775.718     2521.244     2174.997     77.84711     156.1303     312.3849      1.544     4.23     853.6222     55.09031     231.9018        17     1.381     0.830  55.22   0
       206    133.9572    730.8160 307.8689221  +6.3771119     984.0353     1961.096     2196.233     77.84712     156.1303     312.3227      2.069     7.12     848.4814     55.09031     152.4047        16     1.746     0.812  70.90   0
       207     70.0284    732.1810 307.8954180  +6.3744010     2550.873     3753.763     3789.831     77.97177     156.1303     312.4782      1.472     3.48     848.0461     55.09031     411.7398        18     1.333     0.795  48.29   0
       208    482.0199    731.0898 307.7244014  +6.3886675     608.9578     829.8702     715.5287     78.22049     156.0681     312.3849      1.401     4.91     852.0274     55.09031     113.8556         7     1.305     0.524  57.41   0
       209    588.1651    727.3435 307.6804546  +6.3937644      529.025     656.8469    -44.15758     78.22049     156.3168     312.5714      1.291     4.60     853.4423     55.09031     70.88892         6     0.975     0.617 -65.80   0
       210    682.5886    720.6891 307.6414708  +6.3996665     6825.003     9434.156     10067.32     78.09623     156.0058     312.3849      1.522     3.72     853.5259     55.09031     1076.737        27     1.398     0.853  56.16   0
       211    629.3798    719.9395 307.6635888  +6.3981983     1515.486     2318.558     2843.745     77.97177     156.1925     312.4782      1.488     3.87     853.4702     55.09031     239.7991        13     1.235     0.644  54.36   0
       212    540.2739    720.2066 307.7005775  +6.3951090     903.8865     910.4811     1028.872     77.97177     155.8813     312.3849      1.319     4.17     852.9601     55.09031     134.4047         9     1.053     0.652  45.93   0
       213    550.6859    719.6717 307.6962722  +6.3956781     599.1061     837.0519     678.1151     78.46841     156.5651     312.5714      1.334     3.98     853.0929     55.09031     115.8921         6     0.980     0.462  87.03   0
       214    145.6068    716.6182 307.8645612  +6.3833637      4013.76     5860.101     6095.048     77.97178     156.0058     312.3849      1.548     3.58      848.246     55.09031     607.1526        23     1.438     0.831  59.85   0
       215   1019.7812    716.0004 307.5016169  +6.4128454     2495.055     3823.343     3532.282     77.97177     155.8813     288.2945      1.628     4.12     850.5989     55.09031     349.7255        21     1.426     0.876  59.31  16
       216    656.5395    716.4229 307.6524290  +6.4005575     2299.543     3408.686      3418.89     77.97178     156.2546     312.4471      1.462     4.28     853.4103     55.09031     375.0538        16     1.365     0.680  54.92   0
       217    331.7057    716.5721 307.7872966  +6.3896259     675.8849     977.7021     688.3521     78.46841     156.0681     312.4471      1.705     4.88     850.8286     55.09031     119.4114         6     1.208     0.557  39.62   0
       218    799.5384    712.8134 307.5931735  +6.4068215      21518.3     31266.74     32502.78     77.84712     156.1303     312.2916      1.545     3.76     853.1363     55.09031      3186.21        43     1.512     0.945  55.94   0
       219    267.8784    715.8516 307.8138214  +6.3877834     686.6046     1147.571     1174.757     78.34455     156.3789     312.5403      1.899     5.58     850.4428     55.09031     82.95935         9     1.043     0.841  31.31   0
       220    929.6205    712.5721 307.5391681  +6.4112580     3825.726     5313.743      5064.11     77.84712     156.1303     312.5092      1.545     3.94      852.615     55.09031     540.7983        22     1.394     0.812  51.74   0
       221    498.6520    712.9952 307.7180999  +6.3966933     1397.407     1928.596     1484.687     77.72226     156.0681     312.1672      1.416     3.53     852.0889     55.09031     244.2198        14     1.292     0.711  60.69   0
       222    481.2468    713.7540 307.7253013  +6.3957977     531.9657     609.3568     489.5321     78.34455     156.1925     312.5714      1.425     4.26     851.8062     55.09031      100.372         5     1.004     0.514  52.39   0
       223    527.1760    712.5839 307.7062703  +6.3978175     1032.125     1227.692     1368.719     78.09623     156.1925     312.4782      1.419     5.39      852.547     55.09031     145.4146        10     1.104     0.742  44.69   0
       224    344.2509    712.4697 307.7822251  +6.3917398     688.7845     926.7877     278.9611     78.22049     156.2546     312.5714      1.400     4.82     850.7142     55.09031     130.0024         7     1.299     0.508  45.34   0
       225    300.5395    712.2391 307.8003816  +6.3903698     726.1741     1012.045     823.3671     78.34455     156.3168     312.6024      1.326     4.12     850.4473     55.09031       123.57         8     1.226     0.584  50.24   0
       226    988.8166    708.4202 307.5147262  +6.4149436     413.8952      750.816     446.5145     78.09623     156.1303     312.4471      2.069     5.02      851.301     55.09031     63.67902         5     1.089     0.654  66.23   0
       227    662.3299    706.9091 307.6503419  +6.4046781     922.7781      1380.96     1291.935     78.22049      156.441     312.5403      1.645     3.94     853.3254     55.09031     163.7174        12     1.242     0.712  63.20   0
       228    272.9746    706.4467 307.8120202  +6.3918365     6684.831     9397.138      9458.37     77.97177     156.3789      312.416      1.486     3.56       849.94     55.09031     1019.939        25     1.409     0.813  51.95   0
       229    680.0716    705.6285 307.6430179  +6.4057994     7567.334        10854     11519.75     78.09623     156.3168     312.5092      1.529     3.87     853.3203     55.09031     1131.615        30     1.476     0.855  52.15   0
       230    375.0565    705.6901 307.7696614  +6.3955706     532.2227     802.7733     1102.259     78.22049     156.2546     312.6335      1.367     4.10     850.8433     55.09031     79.34918         5     1.039     0.463  65.94   0
       231    939.9680    698.4793 307.5353401  +6.4174202     1248.784     1794.274     1514.526     78.22049     156.3168     312.5092      1.644     2.81     851.9649     55.09031     241.0139        11     1.016     0.669  50.20   0
       232    751.7505    694.0288 307.6136417  +6.4129811     3995.029     5882.677     6649.948     77.97177     156.3789     312.4471      1.538     3.73      852.992     55.09031     538.1343        23     1.488     0.805  59.08   0
       233    706.9364    694.2725 307.6322415  +6.4113843     1132.513     1629.086     829.5075     78.34455     156.3168     312.5714      1.396     3.93     853.1432     55.09031     189.9789        13     1.237     0.696  61.35   0
       234   1018.1277    690.7029 307.5031438  +6.4232332     8792.454     13812.63     14206.61     78.09623      156.441     304.0985      1.677     3.92     850.9341     55.09031     1155.572        38     1.601     1.044  55.16  16
       235     17.4653    693.1367 307.9185505  +6.3887507     573.7251      635.235     165.9755     78.34455     156.3168     312.5403      1.266     4.16     846.9667     55.09031     111.9896         6     0.994     0.497 -87.23   0
       236    956.6144    691.1033 307.5286731  +6.4210196     2560.111     3745.631       2603.2     78.22049     156.0681     312.3227      1.548     3.75     851.5833     55.09031     377.7156        20     1.362     0.823  51.31   0
       237     37.0345    690.3790 307.9105182  +6.3905469     2102.451     3318.072     3718.473     77.84711     156.1303     312.3227      1.754     4.32     847.1006     55.09031      304.193        20     1.476     0.871  43.22   0
       238   1007.1788    691.1889 307.5076740  +6.4226681     523.1327     537.6273     660.3375     77.97177     156.0058      312.416      1.324     2.74     851.0512     55.09031     112.4898         5     0.711     0.683 -46.35   0
       239    570.5106    688.9204 307.6890669  +6.4090349     622.6085     859.7409     374.0596     78.09623     156.5651     312.6335      1.313     3.65     852.6011     55.09031     106.1672         6     0.789     0.495 -83.23   0
       240     95.4215    685.5095 307.8864401  +6.3945191     28260.16     39998.81     41751.16     78.34455     156.1303      312.416      1.561     3.61     847.5233     55.09031     4046.867        54     1.519     1.036  52.55   0
       241    556.7250    686.4896 307.6948721  +6.4095773     2244.489      3212.38     3183.034     78.34455     156.6271     312.6025      1.561     3.82     852.2654     55.09031     391.5151        16     1.253     0.787  60.89   0
       242    525.3439    683.5991 307.7079986  +6.4097208     1483.165     2431.321     2439.982     77.72227     156.0058     312.2294      1.712     4.97     851.8084     55.09031     230.8827        14     1.489     0.634  58.11   0
       243    946.4132    682.5093 307.5331947  +6.4242274      1045.69     1236.735    -271.2234     78.09623     156.0681     312.3538      1.472     5.11     851.4955     55.09031     149.7516        11     1.250     0.590  51.39   0
       244    565.6514    679.9815 307.6913828  +6.4125623      1043.63     1318.497     986.0805     77.84711     156.3789     312.2916      1.307     4.36     852.3092     55.09031     154.9594         9     1.303     0.485  60.48   0
       245    741.4405    677.7006 307.6184666  +6.4193771     3930.127      5375.63     5580.919     78.34455     156.1925     312.7578      1.489     3.99     852.5552     55.09031     543.0725        19     1.473     0.723  53.23   0
       246    763.5115    675.9706 307.6093596  +6.4208279     4451.691     6437.048     6912.182     78.46841     156.0681      312.416      1.512     3.72     852.3556     55.09031      669.785        26     1.406     0.894  54.73   0
       247    594.8754    673.8829 307.6794519  +6.4160569     3678.739     4995.169     5491.046     78.46841     156.6271     312.6024      1.442     3.48     852.8769     55.09031     643.2185        19     1.292     0.786  56.98   0
       248    255.4891    673.3816 307.8203869  +6.4048987     1920.614     2847.973     2860.228     78.09623     156.0681     312.4471      1.580     3.83     847.8568     55.09031     318.1201        18     1.458     0.743  67.95   0
       249    430.9326    674.4133 307.7475066  +6.4103527     1347.466     1893.744     2207.618     77.84711     156.1303     312.4471      1.418     3.68     851.1209     55.09031     260.5036        12     1.270     0.608  43.25   0
       250    339.0405    672.8256 307.7857144  +6.4079297     1561.812     2233.426     1905.665     77.97177     156.1303     312.3227      1.470     3.57     849.2795     55.09031     267.5687        15     1.279     0.796  58.54   0
       251   1001.7617    670.8939 307.5105977  +6.4308655     8259.554     12336.11     12630.01     78.46841     156.1925     312.6335      1.576     3.81     851.0554     55.09031     1166.437        33     1.513     0.961  52.59   0
       252    556.0002    671.3624 307.6956779  +6.4157974      590.903     709.8682     564.4239     77.34649     156.1303     312.3538      1.318     4.20     851.8396     55.09031     98.31158         7     1.147     0.439  55.36   0
       253    721.5457    669.6206 307.6269968  +6.4220483     1086.362     1550.749     1806.959     77.84712     156.3168     312.3538      1.619     4.68     852.4328     55.09031     185.0115        13     1.374     0.732  64.31   0
       254    113.1553    667.8312 307.8796698  +6.4024120     885.2435     1220.011     1594.212     77.97177     156.3789     312.3849      1.460     3.61     847.1677     55.09031     158.6317        10     1.179     0.584  74.85   0
       255    446.9523    665.3451 307.7411579  +6.4146324     3207.751     4706.235     5111.676     78.34455     156.3168     312.6024      1.581     3.69     850.8691     55.09031     476.6343        24     1.493     0.824  55.84   0
       256    160.2036    664.4351 307.8602493  +6.4053939     26115.92     37575.83     39221.21     77.47195     156.1925     312.3227      1.547     3.65     847.1675     55.09031     3709.399        54     1.532     1.011  51.16   0
       257    828.3983    665.0061 307.5827814  +6.4275189     1326.308     2015.467     2037.482     77.72226     156.0058     312.3538      1.610     3.57     851.7827     55.09031     211.0646        13     1.304     0.619  59.04   0
       258    663.8589    663.8777 307.6511416  +6.4224923      545.158     923.6857     544.1434     78.46841     156.3168     312.4782      1.598     4.50     852.5743     55.09031     99.46997         7     1.360     0.423  58.46   0
       259    379.8684    659.7421 307.7691996  +6.4146985     825.5535     1287.432      704.051     78.46841     156.2546     312.5092      1.570     5.06     849.5594     55.09031     134.7988         8     0.988     0.732 -22.26   0
       260    621.8338    658.9757 307.6687552  +6.4231116     505.1331     985.9136     607.8983     77.84712     156.1303     312.3227      1.356     3.91     852.4135     55.09031     115.0327         5     1.307     0.335  59.13   0
       261    996.6071    653.8703 307.5133039  +6.4377212     7296.281     11329.45     11723.83     77.84712     155.8813     312.4471      1.687     3.90      850.171     55.09031     910.7907        36     1.709     0.936  53.16   0
       262     41.1941    653.2910 307.9100354  +6.4059957      1235.21     1887.399     2024.768     77.97177     156.0058     312.2916      1.654     3.99     846.3376     55.09031     182.8309        12     1.199     0.706  82.01   0
       263    590.1811    649.2012 307.6822245  +6.4260883     52731.59      74054.9     76368.46     77.97177     155.8813     312.2605      1.488     3.67     851.5995     55.09031      8052.74        57     1.520     0.938  54.89   0
       264    954.7702    650.9946 307.5307722  +6.4375150     613.5374     715.4846    -97.54709     77.84712     156.1303     312.3538      1.400     3.95     850.3358     55.09031      94.0379         5     0.862     0.519  39.90   0
       265    233.0915    650.2210 307.8304619  +6.4137075     771.6337     1014.203     1298.523     78.22049     156.1303     312.3849      1.479     4.54     846.9209     55.09031     111.3228         8     1.118     0.523  55.75   0
       266      3.6238    649.9210 307.9257474  +6.4061235     419.3615     606.0266     584.5449     77.97177     151.5214      269.346      1.460     5.04     846.0803     55.09031     84.93164         7     1.605     0.448  59.89  16
       267    549.6951    649.7757 307.6990164  +6.4244974     670.7806     840.6699     732.8568     78.46841     156.0681      312.416      1.374     4.67     851.0184     55.09031     113.0434         7     1.201     0.515  65.26   0
       268    815.0066    648.7717 307.5888825  +6.4337737     584.6471     478.9331     395.8082     77.84712     156.1925     312.3538      1.200     3.86     851.3702     55.09031     113.3052         6     0.922     0.464  41.76   0
       269    197.6103    645.8077 307.8453419  +6.4143386     2948.591      4281.38      4433.43     77.72227     156.1303     312.4471      1.521     3.73     846.7363     55.09031     472.1292        20     1.334     0.828  57.82   0
       270    520.1163    646.0684 307.7114222  +6.4250382     686.5004     826.8451     713.2292     78.59209     156.5651     312.5714      1.315     4.03     850.7368     55.09031     119.5261         7     0.915     0.506  50.63   0
       271     90.3397    640.0955 307.8900727  +6.4130941     1434.297     2202.681     2385.089     78.22049     156.3168     312.6335      1.588     4.66     846.1448     55.09031     226.4846        14     1.495     0.621  50.61   0
       272    487.4247    633.0072 307.7254329  +6.4293358      69236.1     97601.34       101106     77.84711     156.1925     312.3849      1.467     3.61     850.2804     55.09031     10299.64        71     1.537     0.983  55.66   0
       273     30.9411    634.9027 307.9149093  +6.4132412     1893.439     2997.632     3434.449     78.09623     156.3168     312.6646      1.579     4.06     845.8013     55.09031     275.5112        19     1.425     0.851  65.83   0
       274    673.1296    630.1022 307.6484181  +6.4367443     994.6662      1514.68     1557.063     78.22049      156.503     312.5714      1.497     4.88     850.9019     55.09031     155.8544        10     1.145     0.721  51.21   0
       275    161.7339    628.0651 307.8608325  +6.4204580     1896.185     2738.965     2822.019     78.34455     156.3168     312.5714      1.515     4.20     846.3443     55.09031     272.9529        16     1.291     0.810  51.61   0
       276    633.5057    624.9177 307.6650445  +6.4375606     1008.198     1322.727     1400.477     78.09623     156.6271     312.6646      1.462     3.73     850.6064     55.09031     150.5441        10     1.102     0.632  63.49   0
       277    440.8391    625.7431 307.7450194  +6.4307749     972.3201     1355.084     1609.083     78.34455     156.3789     312.5092      1.580     5.03     849.2285     55.09031     139.6538        10     1.149     0.624  53.67   0
       278    515.3140    624.5520 307.7141347  +6.4337593      516.278      924.603     1165.297     78.34455     156.2546     312.5714      1.466     3.69     850.1208     55.09031     93.56677         5     1.299     0.301  45.57   0
       279    332.8011    622.2424 307.7899970  +6.4286005     2227.255     3333.425     3448.098     77.72227     156.0058     312.1983      1.594     3.66     847.1322     55.09031     354.1925        20     1.439     0.775  56.30   0
       280     33.8068    623.7728 307.9140929  +6.4179316     712.3043     1000.441      1668.71     77.84711     156.1925     312.3538      1.449     2.98     845.5095     55.09031     153.5386         5     0.910     0.391 -86.26   0
       281    485.2112    621.1689 307.7267475  +6.4341484     750.6489     1124.293     1990.724     77.84711     156.0681      312.416      1.760     5.00     849.9549     55.09031     106.1875        10     1.434     0.494  53.89   0
       282    759.5535    616.5427 307.6129826  +6.4452274      5859.63     8250.274     8500.252     78.34455     156.3168     312.6646      1.528     4.15     850.4545     55.09031     891.4637        26     1.426     0.830  55.54   0
       283    813.0851    611.7675 307.5909123  +6.4489849        15095      21171.8     21671.34     78.34455     156.1303     312.4782      1.481     3.90      850.358     55.09031     2241.309        35     1.500     0.854  56.42   0
       284    555.4023    611.4175 307.6979269  +6.4405221     1301.617     2197.228     2800.225     77.97178     155.8813     312.3227      2.014     6.14     849.7621     55.09031     188.3724        17     1.648     0.855  82.20   0
       285    636.9289    609.8818 307.6641245  +6.4438817     3172.714     4386.578      4219.75     78.59209     156.6271     312.5714      1.471     3.76     849.8287     55.09031     557.3835        19     1.387     0.735  50.75   0
       286     57.6410    610.8032 307.9046318  +6.4240863     731.3928     980.6589     1314.034     77.59721     156.0681     312.2916      1.745     4.31     845.1594     55.09031     146.1633         6     1.323     0.433  50.12   0
       287    954.2655    606.1093 307.5324739  +6.4560269      1163.29     1639.605     2180.779     78.22049      156.503     312.5403      1.501     4.37     848.6235     55.09031     193.6874        12     1.281     0.629  53.51   0
       288    395.3327    603.4412 307.7646607  +6.4384567     926.3053     1185.743     1048.452     78.34455     156.2546     312.6024      1.245     4.12     847.2708     55.09031     148.6417         9     1.214     0.477  51.59   0
       289    249.3694    603.5841 307.8252645  +6.4335045     1479.028     2308.753     2143.475     77.97178     156.0681     312.4782      1.621     3.66     845.9537     55.09031     227.2054        13     1.237     0.661  52.76   0
       290    889.0326    594.9592 307.5599337  +6.4584559     3021.395     4421.143     4446.994     78.09623     156.1925     312.3849      1.517     3.81     849.5104     55.09031     465.0975        19     1.373     0.751  53.26   0
       291    184.2122    594.8094 307.8526133  +6.4349399     722.8878     1263.969     2102.274     78.09623     156.1303     312.4782      2.091     3.35     845.5074     55.09031     142.3293         7     1.051     0.579  36.09   0
       292    847.8060    592.4171 307.5771382  +6.4581307     2729.255       3805.9     3826.417     77.97177     156.0681     312.3849      1.509     3.67     849.8632     55.09031     376.4103        20     1.378     0.793  53.02   0
       293    818.8762    588.5065 307.5892819  +6.4587801     2864.366     4089.391      4774.17     78.09623      156.503     312.5403      1.510     3.67     849.8873     55.09031     469.4479        22     1.435     0.855  55.95   0
       294    828.4221    583.6359 307.5854800  +6.4611091     172005.6     242503.3     251987.1     77.84712     156.0681     312.3227      1.517     3.72     849.7755     55.09031     25572.96       114     1.618     1.063  57.98   0
       295    761.3477    589.1469 307.6131501  +6.4565962     705.8588     900.0233     1027.958     78.59209     156.1925     312.5714      1.613     4.75     849.7501     55.09031     147.1991         8     1.175     0.545  48.66   0
       296    880.3882    586.0153 307.5638210  +6.4618598     635.9634     832.4611     1428.299     78.22049     156.0058     312.4782      1.559     4.50     849.5012     55.09031     84.51239         6     0.862     0.667  59.84   0
       297    210.0330    582.0009 307.8423209  +6.4410937     63378.48     91800.57     95897.88     77.59721     156.1303     312.2916      1.496     3.54     845.2659     55.09031      9600.31        69     1.545     1.041  54.26   0
       298    275.8305    587.4398 307.8148175  +6.4410562     8718.326     11934.06      11887.4     77.84712     156.1303     312.3849      1.480     3.66     845.6735     55.09031     1272.279        28     1.371     0.886  57.88   0
       299    133.9875    578.2701 307.8740222  +6.4400804     6679.901     9668.793     9441.421     77.84711     156.0681     312.3849      1.525     3.68     844.7275     55.09031     929.7157        27     1.439     0.908  55.29   0
       300    999.2699    575.2953 307.5148091  +6.4702457     1364.686     2013.175     1904.272     78.22049     156.3789     312.5714      1.837     4.82     847.8019     55.09031     197.4894        12     1.333     0.647  55.68   0
       301   1020.2891    574.5313 307.5061058  +6.4712609     777.1188     1006.212     948.9081     78.46841      156.503     282.7845      1.350     2.86     847.5627     55.09031     132.1439         8     0.923     0.594  70.14  16
       302    248.7542    574.0829 307.8265077  +6.4456614     744.1851     971.8017     962.7971     78.34455     156.3168     312.5403      1.451     4.39     845.2473     55.09031     127.2478         7     1.128     0.545  38.89   0
       303    864.9944    570.9653 307.5707144  +6.4675591     4627.734     6735.215     6952.632     77.59721     156.1303     312.3227      1.469     3.79     849.4886     55.09031     801.9368        23     1.446     0.779  53.59   0
       304    383.4324    569.1353 307.7707492  +6.4522190     18658.92     26360.18     27531.14     78.22049     156.3168     312.5092      1.499     3.63     845.8978     55.09031     2747.228        37     1.461     0.898  55.31   0
       305    473.8315    569.6382 307.7331941  +6.4550388     877.7339     1164.389     1526.077     77.97177     156.0681     312.3849      1.357     4.28     847.7173     55.09031     157.4586         8     1.090     0.479  56.67   0
       306    185.1123    567.8903 307.8531415  +6.4460817     2124.681     3326.538     4371.433     78.09623     156.7511     312.6646      1.630     4.56      844.741     55.09031     319.3893        17     1.389     0.728  60.02   0
       307    260.5295    565.9255 307.8218912  +6.4494236      1018.84     1479.613     880.3381     78.59209      156.441     312.5403      1.577     5.38     845.0855     55.09031     153.2539        11     1.476     0.553  46.41   0
       308    818.9326    564.2736 307.5900653  +6.4687853     6248.354     8637.167     9124.762     78.46841      156.441     312.5092      1.439     3.61     849.4299     55.09031     1002.406        23     1.381     0.764  53.93   0
       309    549.8082    564.0154 307.7018321  +6.4599022     7044.747     9749.236     10241.38     77.97177     156.0681     312.3849      1.455     3.61     847.7736     55.09031     1104.108        27     1.363     0.858  53.63   0
       310    190.7548    565.4219 307.8508812  +6.4472900     795.0142     1583.751     2846.633     77.97178     156.3168     312.3849      2.481     5.35     844.7049     55.09031      139.306        10     1.361     0.594  41.19   0
       311    122.2835    565.2006 307.8793201  +6.4450821     1065.357     1422.931      1308.92     77.59721     155.8189     312.2294      1.497     4.43     844.3384     55.09031     163.2309        13     1.212     0.745  57.45   0
       312    407.9913    560.8067 307.7608296  +6.4564797      1444.67     1906.112     1977.958     77.72227     156.1303     312.3849      1.384     4.08     845.9972     55.09031     226.3799        12     1.132     0.673  68.63   0
       313    196.7607    557.1985 307.8486628  +6.4508861     7147.283     10637.62      11597.4     77.47195     156.0681     312.2294      1.579     3.73     844.5443     55.09031      1064.22        31     1.515     0.900  60.32   0
       314    594.5541    557.0098 307.6834847  +6.4642904     2514.148     4191.144     4659.552     77.84711     156.1925     312.2294      1.765     3.78     848.2069     55.09031     359.5333        26     1.361     1.207  39.99   0
       315    835.5399    556.6456 307.5834226  +6.4724880     1554.467     2219.593     2461.602     78.22049     156.2546     312.6335      1.483     4.02       849.29     55.09031     266.2675        14     1.235     0.758  59.74   0
       316    292.0089    553.6384 307.8092309  +6.4555513     93936.92     134662.6     138960.3     77.59721     156.1303     312.2605      1.526     3.72     844.8207     55.09031     13730.55        74     1.526     1.048  55.29   0
       317    877.8284    556.9636 307.5658506  +6.4737669     688.1013     795.8441     614.0029     77.97177     156.0681     312.3538      1.324     3.16     849.0748     55.09031     139.5529         6     0.904     0.448  53.28   0
       318    581.3993    551.0190 307.6891473  +6.4663235     993.3247     1406.654     1219.456     77.97177     155.8813     312.2294      1.463     5.26     847.7813     55.09031     139.2581        11     1.218     0.641  53.92   0
       319    991.4598    547.4365 307.5189784  +6.4814858     1734.127     2528.356     2343.352     78.34455     156.3168     312.5092      1.491     4.25     847.8686     55.09031     257.6379        18     1.397     0.812  55.92   0
       320    815.1714    546.0391 307.5922343  +6.4761869     17228.18     24387.69     25252.29     77.84712     156.0681      312.416      1.458     3.70     849.1008     55.09031     2700.009        38     1.471     0.896  57.97   0
       321    276.0121    548.5920 307.8160424  +6.4570979     1669.855     2370.021     2644.204     77.97177     156.1303     312.4782      1.466     3.70       844.67     55.09031     266.8914        13     1.190     0.668  42.69   0
       322    518.7681    544.4557 307.7153750  +6.4669378     44773.25     66812.98     70511.21     78.22049     156.3168     312.4782      1.641     4.04      846.788     55.09031     6076.823        70     1.647     1.170  45.29   0
       323    669.3452    543.2268 307.6528861  +6.4724795     936.4992     1576.138     2239.912     77.97178     156.3789     312.3849      1.688     3.62     846.9675     55.09031     127.5906        10     1.061     0.649  50.67   0
       324    741.1655    538.9561 307.6232033  +6.4766410     1473.007     2472.036     2854.258     78.09623     156.3168      312.416      1.803     5.89      848.429     55.09031     268.4747        16     1.923     0.592  65.72   0
       325     68.4562    555.9450 307.9019812  +6.4470939      5510.43     7702.029     8431.918     78.46841     156.3789     312.5714      1.506     3.63      844.415     55.09031     748.5637        26     1.426     0.844  56.40   0
       326    231.2195    540.8578 307.8349013  +6.4587877      1910.89     2843.322     2799.347     77.97177     156.1925     312.3538      1.547     3.92     844.4029     55.09031     297.3047        18     1.287     0.889  57.93   0
       327     66.7642    541.0461 307.9031835  +6.4531869     1312.705      1847.23     1729.491     78.09623     156.2546     312.4471      1.536     4.73     844.2305     55.09031      221.845        13     1.336     0.672  58.15   0
       328    678.8157    539.5861 307.6490746  +6.4742987      3400.99     4935.528      5360.27     78.09623     156.0058     312.4782      1.510     3.76     846.9985     55.09031     565.1812        20     1.324     0.837  52.74   0
       329    117.2809    540.7466 307.8822172  +6.4550080     690.3462     963.1216      995.605     78.34455     156.3168     312.6025      1.561     4.61     843.7944     55.09031     105.0574         7     1.126     0.535  63.06   0
       330    688.8900    539.2623 307.6449018  +6.4747689     1426.122     1968.592     2314.885     78.34455      156.441     312.6024      1.495     3.93     847.2268     55.09031      239.287        13     1.253     0.646  63.51   0
       331     96.8314    536.4713 307.8908520  +6.4560857      860.974     1660.383     1619.866     78.22049     156.3168     312.5092      2.086     5.73      843.751     55.09031     127.2734        10     1.527     0.605  39.48   0
       332    416.4627    535.1198 307.7581704  +6.4673666     1814.688     2488.653     2557.757     78.46841     156.3789     312.5403      1.419     3.94     845.1705     55.09031     294.8324        12     1.229     0.634  60.13   0
       333    347.9004    533.3448 307.7867009  +6.4658020     4369.882     6186.651     6586.358     78.09623     156.3168     312.8199      1.487     3.83     844.1524     55.09031     641.9584        22     1.417     0.793  55.51   0
       334    527.7415    532.7863 307.7120383  +6.4720550     2324.948     3018.343     2816.644     77.72227     156.2546     312.2605      1.409     3.53     846.5363     55.09031     390.9741        17     1.227     0.775  60.27   0
       335    163.1037    532.0312 307.8634818  +6.4601446     27670.31     39855.28     41506.69     78.46841     156.1303     312.6335      1.498     3.72     843.5934     55.09031     4006.239        46     1.486     0.977  53.08   0
       336    891.0609    532.0258 307.5611851  +6.4845023     1728.011       2588.4     2366.106     77.97177     156.3168     312.4471      1.546     3.71     848.4093     55.09031     257.8856        15     1.254     0.708  57.11   0
       337    128.2174    530.1177 307.8780323  +6.4597628     2994.369      4483.35     4691.315     77.97177     156.0058     312.4782      1.565     3.82     843.6064     55.09031     406.1907        23     1.392     0.896  50.74   0
       338      8.2516    530.2296 307.9278429  +6.4556844     2071.177     3182.117     3398.775     78.09623      156.441     311.9805      1.662     3.76     844.8867     55.09031     283.2451        19     1.384     0.782  63.02  16
       339    365.0612    528.6610 307.7797314  +6.4683106     1105.527     1413.566     1618.491     78.34455     156.3168     312.5714      1.355     4.59     844.1863     55.09031     189.3998         9     1.145     0.524  61.16   0
       340    988.6602    526.4622 307.5208382  +6.4900507     5417.295     7673.896      7463.57     78.34455     156.3168     312.5714      1.561     3.92     847.4296     55.09031     831.9095        24     1.448     0.806  51.54   0
       341    561.7114    519.1198 307.6983878  +6.4788327     1577.132     2068.024     1857.267     78.09623     156.5651     312.6335      1.416     3.97     846.5789     55.09031     281.1471        13     1.337     0.581  54.53   0
       342     27.3886    516.3744 307.9203614  +6.4620469     27170.56     38985.09     40955.45     77.97178     156.1303     312.4782      1.552     3.66     844.4377     55.09031     3835.073        53     1.541     1.029  56.70   0
       343    460.1092    513.1307 307.7407805  +6.4779050     46551.52     65474.57     67338.47     78.34455      156.441     312.5403      1.464     3.55     845.1964     55.09031     7084.608        55     1.506     0.947  53.57   0
       344    668.1318    512.7582 307.6544060  +6.4850162     13412.57     18332.15     18967.21     78.22049     156.2546     312.6335      1.460     3.99     846.5094     55.09031     1962.676        30     1.418     0.830  58.44   0
       345    308.1078    513.5141 307.8038886  +6.4726538     1135.577     1517.736     1730.131     78.09623     156.7511     312.6335      1.411     4.59     843.1047     55.09031     162.7372        10     1.236     0.538  62.55   0
       346      9.9302    510.6013 307.9278046  +6.4638428     206449.9     298043.5     309778.3     77.84711     155.8813     312.3849      1.544     3.64     844.6086     55.09031     30335.32       118     1.596     1.130  53.72  16
       347    225.2614    510.7339 307.8383844  +6.4710223     20560.15     30742.38     32103.86     78.34455     156.2546     312.5403      1.607     3.83     843.2297     55.09031     2816.758        46     1.662     0.946  50.68   0
       348    190.9776    511.9446 307.8525803  +6.4693718     1783.113     2631.704     2727.864     77.97177     156.3168     312.3538      1.505     4.27     843.2535     55.09031     271.5623        19     1.477     0.793  45.20   0
       349   1002.2781    510.9759 307.5156974  +6.4968969     1181.975     1613.841     1676.821     77.97177     156.1303     312.5092      1.479     4.73     847.0098     55.09031      204.113        10     1.273     0.539  56.88   0
       350    842.0433    510.5857 307.5822551  +6.4917183     973.8628      1549.97     1726.036     77.59721     156.1303     312.2916      1.869     4.67     848.1953     55.09031     176.0602        10     1.202     0.675  74.14   0
       351    930.5180    510.2014 307.5455249  +6.4948264     824.4726     1276.147     921.3464     77.59721     155.8813     312.2916      1.542     3.69     847.3613     55.09031     171.4576         8     1.191     0.552  60.33   0
       352    589.9195    509.5002 307.6869947  +6.4837469     3127.111     4176.986     4022.875     78.34455     156.7511     312.6024      1.500     3.91     846.7209     55.09031     469.7896        18     1.317     0.744  54.97   0
       353    963.8128    506.7076 307.5318139  +6.4973778     4921.314     6876.589     7080.081     78.09623     156.0681     312.3227      1.459     3.69     847.1193     55.09031     808.6812        24     1.388     0.798  56.31   0
       354    124.5784    505.9338 307.8803541  +6.4696231     1185.801     1697.172     1314.228     77.97177     156.3168     312.4782      1.468     4.26     843.2393     55.09031      188.556        12     1.350     0.718  64.20   0
       355    636.8964    505.1273 307.6676320  +6.4871224     7048.802     9950.269     9948.844     77.97177      156.441     312.5092      1.456     3.66     846.5993     55.09031     1105.551        26     1.398     0.803  57.72   0
       356    236.1077    504.5956 307.8340859  +6.4739200     656.1869     992.1624     1173.991     77.97177     156.0058     312.3227      1.743     3.66     842.9131     55.09031     109.1287         6     1.173     0.328  51.67   0
       357    174.7424    500.7357 307.8596976  +6.4734535     413.0836     434.7076      231.967     78.46841     156.2546     312.5714      1.138     3.91     843.0063     55.09031     85.16376         5     1.380     0.317  61.10   0
       358    986.3679    498.9053 307.5227061  +6.5013498     3559.959     5027.542     4454.588     78.46841     156.1925     312.6335      1.479     3.87      846.814     55.09031     516.9033        19     1.356     0.765  60.81   0
       359    549.1390    496.4032 307.7043672  +6.4877894      8182.96     11368.36     11115.29     77.72227     156.0681     312.2605      1.475     3.89     845.8981     55.09031      1218.22        26     1.408     0.807  55.12   0
       360    425.0017    497.8117 307.7558716  +6.4830528     728.9063       1066.9     1425.033     77.97177     156.0058     312.3227      1.448     3.81     843.9843     55.09031     104.1541         5     0.820     0.507  59.65   0
       361    395.0932    496.6232 307.7683315  +6.4825416     3017.247     4170.417     4530.457     78.34455     156.1303     312.3849      1.485     4.08     843.4196     55.09031     416.7738        23     1.363     0.879  60.02   0
       362    764.5338    496.7714 307.6149042  +6.4948347     616.5576     824.3227     693.0117     78.09623     156.2546     312.4782      1.467     3.70     847.2708     55.09031     99.63556         5     0.836     0.588  43.41   0
       363    436.4683    515.6925 307.7505122  +6.4760559     542.2263     693.6742     913.6741     78.22049      156.441     312.5714      1.463     4.22     844.8499     55.09031     93.69836         5     0.998     0.508  46.25   0
       364    905.6108    492.1763 307.5564684  +6.5014370     3420.498     4937.844     5700.911     77.97177     156.1303     312.4471      1.556     3.80     847.3262     55.09031     545.3773        17     1.355     0.717  56.96   0
       365    558.4557    492.7279 307.7006209  +6.4896181     673.6964     911.0504     696.2008     78.22049     156.2546     312.5092      1.225     3.83     845.9175     55.09031     117.3433         7     0.961     0.471  78.79   0
       366    253.3707    491.9876 307.8273395  +6.4797035     614.9645     1134.976     670.8572     77.84711     156.0681     312.4471      1.800     6.16     842.2104     55.09031     93.58087        10     1.609     0.663  56.97   0
       367    912.9839    486.4469 307.5535969  +6.5040478     2296.885     3361.808     4268.734     77.84711     156.1925     312.3227      1.559     3.91     847.0952     55.09031     341.0649        21     1.473     0.810  60.77   0
       368    952.2986    485.9054 307.5372874  +6.5055814     1184.155     1860.934     2044.102     78.34455     156.8749     312.3849      1.628     4.26     846.7199     55.09031      186.636        12     1.275     0.730  62.82   0
       369    291.0334    485.0530 307.8119316  +6.4838294     508.0248     547.6891     201.0763     78.22049     156.2546     312.4782      1.191     4.44     841.5239     55.09031     86.42175         6     1.026     0.546  78.64   0
       370    131.8547    485.7949 307.8780078  +6.4781803      822.807      1159.89     984.5534     77.72226     156.0681     312.2294      1.385     4.33     842.9036     55.09031     145.8196         8     1.063     0.502  52.27   0
       371    736.8256    482.5037 307.6268867  +6.4997993     3292.151     4605.151     4752.381     78.46841     156.0681      312.416      1.506     4.20     846.6959     55.09031     511.8708        20     1.398     0.756  56.20   0
       372    407.7782    480.7719 307.7635937  +6.4895097     3874.188      5496.93     5981.794     77.84711     156.1303     312.4782      1.530     3.47     843.0464     55.09031     606.4177        24     1.529     0.799  50.27   0
       373     98.6112    481.5007 307.8919564  +6.4788360     2001.508     2896.694     2936.193     78.09623     155.9435     312.3227      1.513     3.55     842.9639     55.09031     300.0829        16     1.270     0.740  57.60   0
       374    448.0857    481.1660 307.7468417  +6.4906970     1142.325     1693.832     1670.647     78.34455     156.1925     312.5403      1.517     4.21     843.8079     55.09031     178.2642        10     1.221     0.519  60.45   0
       375    635.6116    477.3169 307.6690932  +6.4985593     11006.75     15260.72     15980.14     77.97178     156.0681     312.3849      1.485     3.58     845.7941     55.09031     1855.209        33     1.450     0.853  52.27   0
       376    798.3202    473.9022 307.6016346  +6.5054025     17586.44        24472     25695.71     78.22049     156.6271     312.5714      1.450     3.82     846.6512     55.09031      2637.23        41     1.506     0.883  53.67   0
       377    318.0294    474.2894 307.8010811  +6.4891777     2930.583     3998.785     3632.174     78.46841     156.0681     312.4471      1.474     3.86     841.3047     55.09031     428.1312        20     1.395     0.844  53.26   0
       378    441.5354    473.6496 307.7498132  +6.4935803     779.4086      1050.09     857.1516     78.22049     156.2546     312.5403      1.606     4.50     843.3042     55.09031     134.6217         8     1.183     0.487  52.60   0
       379    826.9754    470.8002 307.5898373  +6.5076390     1248.428     1703.041      1179.62     77.97177     156.0058     312.3538      1.387     4.81     846.8146     55.09031     207.1506        13     1.458     0.626  43.33   0
       380    749.6299    471.8217 307.6219250  +6.5046362     428.1215     554.3057     742.9283     77.84712     156.1303      312.416      1.345     3.47     846.3913     55.09031     68.39569         5     0.781     0.446  73.20   0
       381    401.1895    470.7763 307.7666641  +6.4934150     1750.557     2263.725     2621.668     77.97177     156.1303      312.416      1.319     3.71      842.444     55.09031     251.5998        14     1.227     0.694  49.96   0
       382    983.3918    468.6389 307.5249482  +6.5137446     2061.724     2977.207       2994.5     77.72227     156.0681     312.2605      1.520     4.03     845.8699     55.09031     295.9189        17     1.424     0.692  61.08   0
       383    802.2928    469.0279 307.6001471  +6.5075471     1454.146     2117.798     2409.436     78.46841     156.0681      312.416      1.501     3.87      846.488     55.09031     220.9213        11     1.188     0.579  54.59   0
       384    135.8488    465.9447 307.8770147  +6.4865082     4829.128       6997.8     7255.025     78.34455     156.3168     312.6024      1.508     3.68     842.3282     55.09031     701.4475        24     1.422     0.830  54.64   0
       385    389.3558    466.9841 307.7717052  +6.4945839      808.681     1122.976     1117.367     77.84711     156.1925     312.3227      1.546     3.97     842.0395     55.09031     122.4418         7     1.091     0.451  35.47   0
       386    773.8659    464.7389 307.6120958  +6.5083690     2447.628     3289.339     3816.554     78.34455     156.2546     312.5403      1.473     3.49     846.2381     55.09031     428.9828        18     1.246     0.756  55.63   0
       387    293.5860    463.1017 307.8116063  +6.4929761      1627.51     2200.216     1800.699     78.22049     156.0681     312.2916      1.428     3.78     840.4833     55.09031     245.0314        15     1.302     0.716  51.39   0
       388    371.7016    460.5797 307.7792509  +6.4966360     3537.257     4826.375     4941.771     78.22049     156.1303     312.2916      1.487     3.57     841.4535     55.09031     547.6045        20     1.344     0.793  57.83   0
       389    727.6625    458.3342 307.6314976  +6.5094704     1874.441     2505.495     2792.871     78.34455     156.3168     312.5403      1.453     3.70     845.7772     55.09031     302.6968        15     1.182     0.757  58.92   0
       390    259.7038    456.5944 307.8258946  +6.4945256     689.2114     1140.365     1240.117     78.09623     156.0058     312.3227      2.110     5.36     840.5758     55.09031     119.0674        11     1.414     0.661  59.89   0
       391    470.2358    452.5187 307.7386004  +6.5032639     609.2065       918.06      406.856     78.34455     156.3789     312.5092      1.609     3.26     842.4453     55.09031     115.9528         5     0.827     0.628  38.21   0
       392    568.9370    450.9530 307.6976626  +6.5072129     1181.174     1775.707     2045.949     78.22049     156.1925     312.6024      1.594     4.26     843.7924     55.09031     185.4924        13     1.339     0.745  51.24   0
       393    491.2069    449.4532 307.7299937  +6.5052313     1471.122     1877.875     1969.432     77.84712     156.1303     312.2605      1.406     4.16     842.4672     55.09031     241.3843        10     1.189     0.549  57.76   0
       394    853.9240    448.3166 307.5793938  +6.5178189      1551.23     2048.793     1565.993     78.46841     156.6271     312.6335      1.332     3.42      846.008     55.09031     257.9839        11     1.121     0.586  60.67   0
       395    839.5207    447.5080 307.5854026  +6.5176724     2247.744     2926.667     2714.708     78.09623     156.5651     312.6024      1.463     3.70     845.9269     55.09031      360.746        15     1.260     0.721  62.55   0
       396    736.7772    445.6229 307.6281359  +6.5150218     16451.07     22534.64      23304.5     77.97178     156.1925     312.5092      1.442     3.74     845.4906     55.09031     2791.757        32     1.425     0.828  53.84   0
       397    639.1100    447.5040 307.6686349  +6.5109828     869.9387      1195.09     1123.124     78.34455     156.7511     312.5403      1.543     5.07     844.3858     55.09031     126.5384         9     1.229     0.592  54.46   0
       398    657.8577    441.4711 307.6610501  +6.5140996     2907.021     3917.877     3916.024     78.46841     156.3168     312.5092      1.443     4.16     844.2914     55.09031     430.0182        19     1.417     0.701  49.97   0
       399    730.9987    440.6649 307.6307010  +6.5168755     713.9184     1268.203     1548.149     77.72226     156.0058     312.3227      1.734     4.08     845.2483     55.09031     118.4486         7     1.132     0.420  55.17   1
       400    652.6686    441.0788 307.6632182  +6.5140881     555.9108     675.7908     807.0811     78.46841      156.503     312.5092      1.344     3.43     844.2265     55.09031     117.1055         5     0.996     0.341  49.19   0
       401    630.2477    436.7475 307.6726743  +6.5151267     14350.44     26403.83     30291.55     78.46841     156.2546     312.5714      2.097     6.84     843.7216     55.09031     2459.207        54     2.412     0.950  39.29   0
       402    962.0533    435.4105 307.5349152  +6.5267505     3995.736     5654.474      5621.74     77.72226     156.2546     312.2916      1.482     3.92     844.4826     55.09031     588.6302        21     1.408     0.761  54.72   0
       403    401.1517    431.5029 307.7679930  +6.5096252     31726.04     44379.45     45770.45     78.34455     156.2546     312.6956      1.493     3.78      840.588     55.09031     4588.188        46     1.518     0.916  54.14   0
       404    438.2141    432.5391 307.7525665  +6.5104389     667.6312     1075.686     707.7583     77.84712     156.1925     312.2916      1.682     4.80     841.0135     55.09031      101.736         7     1.177     0.554  71.44   0
       405    917.1567    430.7536 307.5537166  +6.5271770     1415.522     2684.465     3248.906     78.34455     156.3168     312.4782      2.275     6.87     844.6743     55.09031     248.9573        19     2.180     0.614  45.08   0
       406    147.2636    430.9704 307.8734469  +6.5013281     2497.928     3519.095     3878.479     78.09623     156.3168     312.4782      1.476     3.85     840.9237     55.09031     349.7322        18     1.329     0.766  56.51   0
       407    930.8530    425.9496 307.5481880  +6.5296164      5329.87     7307.642     7348.381     78.46841     156.1925     312.5714      1.467     3.71     844.3079     55.09031     849.7195        23     1.386     0.830  54.82   0
       408    612.4729    427.2046 307.6803747  +6.5184718     569.8441     831.8906     1087.452     77.97178     155.8813      312.416      1.582     3.40     842.8919     55.09031     104.2081         5     0.746     0.448  68.35   0
       409     80.4537    426.4027 307.9013446  +6.5009687     1626.788     2277.049     2544.999     77.72227     156.1303     312.1672      1.531     3.85     842.3831     55.09031     259.2356        13     1.297     0.689  54.00   0
       410    258.6375    422.0909 307.8274928  +6.5087322     14821.56     21336.13     22205.35     78.46841     156.2546     312.5714      1.522     3.70     839.0455     55.09031     2233.201        42     1.503     1.009  54.98   0
       411    986.6691    423.1487 307.5250993  +6.5326321     606.4968      936.929     1259.526     78.22049     156.1925     312.5092      1.228     3.20     843.7582     55.09031     127.7017         5     0.911     0.353  45.61   0
       412     94.0772    416.1043 307.8960325  +6.5056775     920.4933     1360.331      1213.02     78.09623      156.441     312.6024      1.423     4.05      841.999     55.09031     178.1951        11     1.303     0.568  67.86   0
       413    753.9277    415.9260 307.6220026  +6.5278531     804.6326     972.9413     1142.223     78.59209      156.441     312.5714      1.523     3.51      844.517     55.09031     164.0836         8     1.048     0.490  54.25   0
       414    982.1882    413.9561 307.5272660  +6.5362775     1023.229     1400.624     1114.067     77.84712     156.1925     312.2605      1.357     4.15     843.4928     55.09031     160.2303        10     1.118     0.598  68.40   0
       415    721.9091    415.1408 307.6353267  +6.5271082     780.2458     1032.803     1251.229     78.22049     156.3168     312.6646      1.502     3.75     844.2535     55.09031     150.8624         6     0.924     0.436  45.04   0
       416    204.6501    412.0322 307.8502500  +6.5110723     899.0045      1431.94     1547.116     78.22049     156.3168     312.4782      1.633     4.21     839.5334     55.09031     146.4706        10     1.195     0.693  62.00   0
       417    158.9234    410.7023 307.8692842  +6.5100859     5663.347     8105.872     8405.084     77.97177     156.5651     312.5714      1.522     3.75      839.858     55.09031     859.2247        29     1.378     1.024  49.91   0
       418    398.9754    411.7061 307.7695588  +6.5177241     494.4741     545.0143    -10.26248     78.46841     156.0681     312.3849      1.335     3.85     839.5587     55.09031     83.45203         5     0.844     0.503  50.04   0
       419    371.6577    411.6319 307.7809064  +6.5168393     1594.433     2089.873     2103.004     78.22049     156.3168     312.4782      1.436     3.46     839.1205     55.09031     256.4135        15     1.207     0.743  44.09   0
       420    263.7021    409.5431 307.8258097  +6.5140816     1464.683     2114.931     1925.736     78.22049     156.3168     312.7267      1.560     4.29     838.4847     55.09031      268.908        17     1.521     0.674  60.86   0
       421    652.7765    409.7663 307.6642179  +6.5270173     421.0338     643.2809     610.0045     77.84712     156.0681     312.3227      1.412     3.84     842.8765     55.09031      74.4469         5     1.343     0.315  57.87   0
       422    456.2746    409.3026 307.7458427  +6.5206354     746.6863     1055.054     1097.653     77.97178      156.441     312.5714      1.513     4.40     839.7351     55.09031     132.9939         8     1.293     0.536  51.82   0
       423    845.0696    407.0419 307.5844453  +6.5345616      956.902     1154.033     1239.294     78.22049     156.3168     312.6024      1.336     4.53     844.3028     55.09031     132.1357         9     1.122     0.575  61.43   0
       424    181.0925    406.4358 307.8602207  +6.5125915     2791.479     4462.306     4660.734     78.46841     156.1925     312.5714      1.729     4.14     839.5214     55.09031      375.542        27     1.584     0.996  67.55   0
       425    576.6641    405.6166 307.6959669  +6.5261857     1113.707     1642.697     1236.044     77.84712     156.2546     312.3849      1.377     4.31     841.2534     55.09031     215.2466        10     1.262     0.507  44.67   0
       426    404.4840    401.2812 307.7676197  +6.5222118     2368.128     3508.601     3032.953     78.09623     156.5651     312.6025      1.516     3.54     839.0121     55.09031     343.7422        19     1.331     0.836  58.91   0
       427    292.4857    401.4394 307.8141274  +6.5183922     782.0848     1131.869      583.985     78.34455     156.3168     312.5403      1.515     4.16      837.647     55.09031     141.5356         8     1.284     0.509  57.71   0
       428     23.2560    401.8456 307.9259213  +6.5091821     675.3819     978.5635     577.0848     78.34455     156.3168     312.5403      1.508     3.32      842.126     55.09031     136.3428         5     0.933     0.342  40.87   0
       429    992.9836    400.2558 307.5232378  +6.5422925     867.2925     1361.099     1618.339     77.72227     156.2546     312.2916      1.561     4.98     843.2863     55.09031     135.0875         9     1.136     0.619  44.43   0
       430    338.5791    399.0465 307.7950649  +6.5209256     621.1041     843.0302     1118.349     77.97177     156.3168     312.3849      1.356     4.47      838.036     55.09031     111.9435         7     1.248     0.456  51.12   0
       431      5.1851    399.5248 307.9335037  +6.5095323     759.2989     1119.332     710.0323     77.84712     156.0681     288.0586      1.487     4.63     842.1534     55.09031     125.6928         9     1.117     0.550  62.02  16
       432    612.1116    397.0824 307.6815299  +6.5308938     505.8514     892.0555     576.9252     78.09623      156.503     312.5714      1.827     5.56      841.316     55.09031     80.18762         6     1.220     0.714  54.50   0
       433    458.2931    394.7944 307.7454893  +6.5266917     7975.453     11272.09     11912.21     77.97177     156.0058     312.3538      1.493     3.87     839.0232     55.09031     1097.831        29     1.454     0.841  53.37   0
       434     54.6541    395.6750 307.9130895  +6.5127850     3305.408     5164.765     5766.514     78.22049     156.3168     312.5714      1.717     4.32     841.4991     55.09031     458.4766        25     1.442     1.228 -65.60   0
       435    629.3085    395.5547 307.6744387  +6.5320993     563.7137     734.0495     608.2559     78.34455     156.2546     312.6646      1.289     4.85     841.6951     55.09031     95.09064         7     1.068     0.624  66.37   0
       436    798.9730    392.1741 307.6040856  +6.5391612      14175.7     19610.53     20264.16     77.84712     156.1303     312.3849      1.437     3.68     843.9225     55.09031      2301.59        33     1.432     0.842  56.42   0
       437    791.1438    393.7447 307.6072849  +6.5382516     2043.789     2782.514     2931.321     78.46841     156.3168     312.5714      1.456     4.14     843.9588     55.09031     360.9016        16     1.359     0.661  52.05   0
       438    219.0594    394.5916 307.8448503  +6.5187551     595.8315     881.5362     943.6837     77.72226     156.1303     312.2605      1.543     4.05     838.9359     55.09031     99.22345         5     1.034     0.453  63.61   0
       439    558.3740    394.1898 307.7039446  +6.5302908     547.5461      603.977     558.2409     77.97177     156.1303      312.416      1.204     2.45     840.5003     55.09031     109.2077         5     0.726     0.436  68.73   0
       440    313.9441    391.5414 307.8055471  +6.5231975     498.6964     712.1139     908.9487     78.46841     156.3168     312.5714      1.588     4.24     837.5049     55.09031     81.52826         5     0.773     0.664  78.67   0
       441    362.3058    390.5327 307.7854960  +6.5252352     1093.302     1379.024     1124.401     78.22049      156.503     312.5403      1.362     3.01      837.897     55.09031     203.7814         8     1.108     0.484  49.61   0
       442    973.6426    383.7892 307.5318183  +6.5484457      544.661     864.2687     1415.118     77.72227     156.1303     312.2605      1.318     2.11     843.2106     55.09031     139.5695         5     0.718     0.426  67.70   0
       443    207.3849    383.3325 307.8500759  +6.5230107     842.2593     1304.616     1315.288     77.84712     156.1925     312.4471      1.523     4.03     838.6702     55.09031     147.9648         9     1.131     0.544  45.58   0
       444      7.2270    383.7195 307.9331863  +6.5161249     420.2652     1127.068     1918.263     78.22049     156.1303     306.8011      2.375     3.90     840.9946     55.09031     87.79468         5     1.389     0.314 -59.81  16
       445     12.4052    381.4432 307.9311123  +6.5172387     1042.738     2325.697     3889.308     77.72227     156.0058     312.2294      3.023     5.25     840.7716     55.09031     151.1021        15     1.296     1.057 -71.66   0
       446    924.0908    382.2921 307.5524489  +6.5474128      649.552     920.1589     621.9846     78.34455      156.813     312.6024      1.398     3.46     843.3681     55.09031     129.5147         5     0.819     0.460  49.04   0
       447    546.3918    379.7195 307.7094042  +6.5358631     581.6652     562.8829     409.1327     77.97178     155.9435     312.3849      1.109     4.06     839.8243     55.09031     107.6472         7     1.008     0.467  80.77   0
       448    506.4646    378.4372 307.7260295  +6.5350564      3562.26     4862.813     4676.249     78.22049     156.3168     312.6024      1.502     4.02     838.8807     55.09031      566.573        19     1.378     0.719  56.03   0
       449    478.6241    379.0817 307.7375706  +6.5338584      2478.59     3282.405      3703.81     78.09623     156.0681     312.4782      1.450     3.73     838.3621     55.09031     403.9633        15     1.302     0.657  56.27   0
       450    935.0550    378.2889 307.5480282  +6.5494307     786.7349     1106.847     789.2502     78.34455     156.1925     312.6646      1.270     4.77     843.2578     55.09031     140.1744         9     1.227     0.525  48.13   0
       451    864.3331    375.0445 307.5775097  +6.5484125     35531.06     51887.12     53922.54     78.34455     156.2546     312.5714      1.540     3.90     843.4998     55.09031     4977.229        50     1.558     0.970  63.46   0
       452   1009.4517    375.2607 307.5172289  +6.5531588     580.9755     764.2752     270.4398     78.34455     156.2546     312.5403      1.613     4.36     843.0176     55.09031     91.68994         7     1.262     0.430  49.91   0
       453     81.9088    371.3210 307.9025881  +6.5237538     676.0286     1121.259     628.0109     78.09623      156.503     312.6024      1.755     6.37     840.2092     55.09031     96.63342         9     1.227     0.929  12.20   0
       454    356.9237    371.2378 307.7883768  +6.5330194     961.1114     1331.369     1534.591     78.22049     156.3789     312.5403      1.477     3.34      836.837     55.09031     187.9482         8     1.005     0.600  38.31   0
       455     44.1216    368.0348 307.9183910  +6.5238399     1170.683     1480.575     1749.533     78.22049     156.3789     312.5714      1.296     4.39     839.9642     55.09031     158.5154        10     1.161     0.615  40.46   0
       456    635.9355    367.3413 307.6726276  +6.5439670     2835.548     3986.138     4071.737     78.46841     156.2546     312.5714      1.552     4.48     840.5715     55.09031       418.34        19     1.490     0.751  45.58   0
       457    167.7480    366.1910 307.8671114  +6.5287554     679.5535     840.1607     938.6874     77.84712     156.1925     312.2916      1.298     3.75     838.4886     55.09031     118.7399         7     0.886     0.558  36.37   0
       458    720.7571    361.0683 307.6376077  +6.5493904     87762.75     120992.3     125023.4     78.34455     156.2546     312.6335      1.453     3.56     842.5467     55.09031     14034.44        73     1.527     0.955  55.26   0
       459    878.8490    362.4627 307.5718995  +6.5540902     1345.869     1636.783     1567.327     78.22049     156.2546     312.6025      1.430     4.00     843.1376     55.09031     222.4724        11     1.098     0.633  54.61   0
       460    100.1813    360.6763 307.8953567  +6.5287618     1462.793     2253.585     2266.948     77.84712     156.0681     312.5092      1.617     4.23      839.788     55.09031     218.8119        18     1.476     0.819  56.90   0
       461    583.1648    357.7386 307.6948653  +6.5461666     2996.122     4239.139     4428.588     78.34455     156.3168     312.5092      1.492     3.77     839.1441     55.09031     444.3142        19     1.408     0.746  48.40   0
       462    410.5070    358.2379 307.7665576  +6.5401812     640.2899      835.717     1036.411     78.46841     156.2546     312.6025      1.464     4.98     836.6135     55.09031     95.70795         8     1.103     0.637  56.84   0
       463    120.4816    356.7200 307.8870587  +6.5310770     6893.625     10098.98     9991.336     78.46841     156.5651     312.6646      1.586     3.87     839.1973     55.09031     1008.981        28     1.460     0.877  55.32   0
       464    962.3182    357.9675 307.5373805  +6.5587276     956.7746     1537.404     1208.394     78.22049     156.2546     312.4782      1.587     4.85      842.923     55.09031     138.6774         8     1.165     0.573  57.95   0
       465    781.5520    355.8578 307.6125309  +6.5535709     684.5538     749.9852     1079.417     78.34455     156.3168     312.6646      1.366     4.45     842.9391     55.09031     112.9344         9     1.151     0.616  49.13   0
       466    566.4580    353.9809 307.7019296  +6.5471589      7799.52     10934.55     10296.72     77.97177     156.1925     312.3538      1.455     3.72     838.8992     55.09031     1141.371        26     1.409     0.820  53.96   0
       467    295.4891    351.5991 307.8145485  +6.5390660       2863.5     4023.755     3753.511     77.59721     155.8189     312.2916      1.477     3.83     835.9005     55.09031     436.1479        19     1.395     0.723  57.27   0
       468    429.3950    349.1824 307.7590158  +6.5445518     28302.36     40380.38     41290.36     77.97177     155.9435     312.3849      1.520     3.66     836.3671     55.09031     4298.282        45     1.497     0.938  53.29   0
       469    608.0322    348.2817 307.6848528  +6.5509018     651.2979     898.7415     444.4711     78.22049     156.2546     312.4782      1.294     4.07     838.8555     55.09031     126.9774         7     1.142     0.415  55.94   0
       470    537.1418    347.9055 307.7143084  +6.5486860     1353.771     1902.695     1803.426     78.22049     156.3168     312.6646      1.411     3.38     838.3559     55.09031     210.8201        12     1.144     0.628  54.10   0
       471    695.6713    346.9514 307.6484974  +6.5543798     485.8483     678.4555     448.6869     78.34455     156.3168     312.5714      1.558     4.94     841.4146     55.09031     85.92987         7     1.432     0.482  49.36   0
       472    409.3719    347.3317 307.7673938  +6.5446450     1288.109     1781.119     2439.885     78.09623     156.2546     312.4782      1.674     4.37     836.0895     55.09031     179.0226        10     1.168     0.587  49.95   0
       473    508.6309    344.5746 307.7262611  +6.5491069     1297.026     1699.987     1602.457     77.84712     156.1303     312.3849      1.496     4.03     837.5515     55.09031     209.6074        12     1.191     0.644  56.53   0
       474    824.0049    341.2894 307.5953836  +6.5610012     831.9017     1280.737     1455.305     77.84711     156.0058     312.2605      1.776     5.13     842.4236     55.09031     127.1122         9     1.285     0.580  61.74   0
       475    659.7252    340.9297 307.6636281  +6.5556645     709.3172     935.3937     589.4505     78.59209      156.441     312.5403      1.326     4.66     840.2081     55.09031     115.7612         8     1.174     0.524  72.45   0
       476    406.0917    341.4536 307.7689527  +6.5469615     764.5253     1311.624     1842.596     78.22049     156.1303     312.6956      1.998     4.33     835.8531     55.09031     124.0406         8     1.208     0.545  54.08   0
       477    518.4746    339.5498 307.7223406  +6.5515105      9774.28     13448.82     13638.14     78.34455     156.3789     312.5714      1.495     3.79     837.5572     55.09031     1492.539        30     1.449     0.853  56.20   0
       478    787.6781    338.2757 307.6105722  +6.5610331     3445.463     4944.209     5487.572     78.59209     156.5651     312.6024      1.607     3.59     842.1411     55.09031     570.4818        24     1.487     0.876  49.00   0
       479    943.3352    338.2051 307.5459224  +6.5662530     875.1106     1029.353      774.912     77.72227     156.0058     312.3227      1.248     3.67     842.2603     55.09031     169.3968         9     1.224     0.489  53.43   0
       480    734.8348    337.8061 307.6325361  +6.5594629     689.6235     1000.796     1630.358     77.59721     156.0681     312.3227      1.800     3.61     841.7381     55.09031     143.4047         8     1.110     0.627  47.98   0
       481    345.0244    336.4812 307.7944816  +6.5469674     1263.974     1571.856     1458.298     78.09623     156.0681     312.5092      1.380     4.18     835.4388     55.09031     186.0101        10     1.073     0.603  60.63   0
       482    904.1049    334.2414 307.5623487  +6.5665817     472.9881     638.4594     111.3382     78.34455     156.2546     312.6646      1.302     3.87     842.2142     55.09031     106.0765         5     0.872     0.491  51.90   0
       483    280.7196    330.2243 307.8213982  +6.5473936     702.7762     1123.506     504.5428     78.09623     156.0681     312.5092      1.635     3.77     835.8041     55.09031     125.7446         5     0.925     0.442  84.50   0
       484    180.5441    330.0634 307.8630081  +6.5440977     1327.431     1794.098     1829.431     78.46841     156.3168     312.5403      1.465     4.29     837.4388     55.09031      204.616        14     1.352     0.683  50.05   0
       485    457.3939    330.1529 307.7480233  +6.5533446     606.2096      818.572     967.8024     77.84712     156.1303     312.1983      1.370     3.54     836.0341     55.09031     115.8984         5     0.866     0.416  70.31   0
       486    408.2791    323.7861 307.7686350  +6.5543276     8063.753     11686.84     12561.53     77.97177     156.0681     312.3227      1.539     3.83     835.2455     55.09031     1165.224        32     1.489     0.911  58.42   0
       487    264.2943    324.3885 307.8284154  +6.5492514     2395.498     3146.557     3410.799     78.09623     156.0058     312.3227      1.456     3.60     835.9713     55.09031     371.4738        16     1.307     0.685  60.23   0
       488    761.9485    323.4171 307.6217540  +6.5663078     1127.844     1557.892     1611.088     77.84711     156.3789     312.2916      1.381     5.03     841.1464     55.09031     185.5119        11     1.255     0.571  61.97   0
       489    776.2510    319.6049 307.6159405  +6.5683589     59273.36     81916.26      83890.7     77.72227     156.1303     312.1672      1.468     3.77     841.1248     55.09031     8943.146        58     1.494     0.927  55.47   0
       490    447.7393    318.9712 307.7524069  +6.5576369     2616.644     3719.445     3645.247     77.97177     156.3168     312.4782      1.520     4.27     835.5143     55.09031     396.2704        19     1.452     0.779  51.16   0
       491   1011.0023    316.6193 307.5185341  +6.5774174     1780.684     2489.569      2380.16     77.97177     155.8813     312.2916      1.483     4.54     840.5993     55.09031     252.9865        15     1.397     0.660  53.90   0
       492    952.0659    315.8734 307.5430388  +6.5757623     2518.234     3523.761     3630.693     78.46841     156.3789     312.5403      1.456     3.85     841.2698     55.09031     388.5637        18     1.442     0.685  47.95   0
       493    594.2396    316.5286 307.6916412  +6.5635479     1357.757     1881.695     2151.473     78.22049     156.3168     312.6025      1.486     3.58     837.7594     55.09031     225.6162        13     1.170     0.750  55.57   0
       494    484.8508    315.3228 307.7371151  +6.5603855     1282.475     1947.327     1831.871     78.34455     156.3789     312.5092      1.513     4.46     835.8954     55.09031     205.0508        14     1.400     0.701  45.93   0
       495    434.4602    314.8562 307.7580598  +6.5588907     2022.022     2939.013     2917.122     78.46841     156.3168     312.5714      1.512     4.45     835.1766     55.09031     292.2534        17     1.417     0.721  58.16   0
       496    314.2950    314.4491 307.8079817  +6.5550314     805.2645     1072.286     764.5665     78.22049     156.1925     312.6956      1.488     4.82     835.1949     55.09031     108.8893         8     1.091     0.602  62.53   0
       497    855.6057    309.1479 307.5833284  +6.5753231     1144.188     1801.451     2123.491     77.84712     156.1303     312.1983      1.558     4.57     841.2684     55.09031     179.3356        12     1.399     0.542  59.61   0
       498    484.8680    309.6184 307.7372986  +6.5627408      846.029      1119.22     756.7595     77.97177     156.2546     312.4782      1.439     3.23      835.715     55.09031     130.7824        11     1.016     0.705  75.89   0
       499    987.6168    307.2491 307.5285591  +6.5805066     568.1196     689.8251     638.3256     77.84712     156.3789     312.2916      1.376     4.12     840.3269     55.09031     88.30365         7     1.026     0.471  82.50   0
       500    210.9377    306.0199 307.8511909  +6.5550428     2466.188      3455.14     3152.875     77.97177     156.3168     312.4471      1.452     3.58      836.181     55.09031     387.3394        18     1.334     0.770  59.31   0
       501    465.0018    306.1974 307.7456641  +6.5634878     1221.179     1748.484     1810.038     77.72227     155.8813     312.2916      1.430     3.68     835.2785     55.09031     224.8163        10     1.283     0.547  57.50   0
       502    774.7089    304.2256 307.6170935  +6.5746558     6836.939     9358.322     9911.809     78.46841     156.0681     312.3849      1.437     3.61     840.2843     55.09031     1059.006        27     1.402     0.797  52.54   0
       503    307.7104    304.7686 307.8110405  +6.5588065     549.4315     703.8188     531.8564     78.46841     156.1303     312.4782      1.459     4.35     835.1174     55.09031     97.86609         5     0.756     0.714 -22.42   0
       504    246.5651    304.3442 307.8364501  +6.5569303     580.8005     697.2161      675.689     78.22049     156.3168     312.5714      1.617     3.38     835.6566     55.09031     85.86682         5     1.036     0.318  67.35   0
       505    365.8947    303.9131 307.7869034  +6.5611104     754.1894      1045.65     862.9601     78.34455     156.6891     312.6024      1.533     4.21     834.4478     55.09031     109.6603         7     0.911     0.555  46.37   0
       506    107.0914    303.4260 307.8944072  +6.5526253     1277.279     1904.617     1766.131     78.46841     156.0681     312.3849      1.686     4.91     837.7248     55.09031     169.5175        13     1.156     0.770  43.93   0
       507    791.0845    302.0883 307.6103630  +6.5760847     3049.611     4284.128     4365.594     78.09623      156.503     312.6335      1.421     3.67     840.3883     55.09031     478.3839        18     1.364     0.697  52.18   0
       508    493.2879    301.1001 307.7340861  +6.5665389     636.8036     913.8317     1150.997     78.34455      156.813     312.5092      1.557     4.04     835.5198     55.09031     111.8966         6     1.217     0.384  56.94   0
       509    380.7241    296.7357 307.7809843  +6.5645702     1854.874     3635.245      4088.39     78.59209     156.3168     312.5092      2.114     6.38     834.2385     55.09031     217.7666        28     1.782     1.131  16.82   0
       510     94.3207    297.4157 307.8999127  +6.5546770     1286.123     1971.577     2405.033     77.97178     156.0681     312.3538      1.575     3.32     837.6052     55.09031     209.1456        13     1.162     0.727  41.64   0
       511    507.3820    292.9485 307.7285046  +6.5703755     2292.196     2935.146     2596.645     77.84711     156.3789     312.2916      1.387     3.64      835.427     55.09031     319.3759        16     1.266     0.716  58.89   0
       512    269.9137    288.5768 307.8272809  +6.5642222     6362.159       8998.6     9542.056     78.34455     156.1303      312.416      1.524     3.69     835.2276     55.09031     964.9208        27     1.431     0.850  52.00   0
       513    937.5580    287.4222 307.5500113  +6.5870234     631.8849     787.8725     625.5276     77.97178     156.1925     312.3227      1.433     4.61     840.3089     55.09031     108.5335         6     1.331     0.453  50.11   0
       514    918.2776    286.3108 307.5580568  +6.5868396     519.9425     372.9514    -256.1674     78.09623     156.5651     312.6335      1.321     5.19     840.4399     55.09031     88.41669         5     1.233     0.617  70.21   0
       515    834.4836    287.1440 307.5928344  +6.5837016     707.4972     986.9376     1146.826     78.34455     156.3168     312.6335      1.384     3.42     840.1594     55.09031     119.2192         5     0.819     0.413  66.53   0
       516      1.4697    281.9041 307.9389958  +6.5579573     35770.06     42848.29     44743.46     69.68435     126.3575        237.5      1.103     2.87      837.206     55.09031     9799.889        42     1.328     0.822  85.74  24
       517    961.0843    283.7231 307.5403623  +6.5893343     556.6427      415.784     133.7302     78.46841     156.6271     312.6335      1.341     4.84     839.7048     55.09031     99.19623         7     1.171     0.566  60.22   0
       518    789.4095    281.8712 307.6117323  +6.5843742     872.4824     1163.211     1429.523     77.84712     155.9435     312.3849      1.287     4.61     839.4157     55.09031      163.505         9     1.391     0.468  54.86   0
       519    246.7312    281.2911 307.8371533  +6.5664516     636.9351     980.9276     848.7646     78.34455      156.441     312.5403      1.491     4.04     835.0753     55.09031     99.09235         7     1.334     0.351  44.20   0
       520    404.0489    279.2761 307.7718806  +6.5725588     1924.268     2980.661     3465.783     78.22049     156.3789     312.5403      1.708     4.48     833.8179     55.09031     276.5847        14     1.407     0.639  61.62   0
       521    990.8357    278.0083 307.5281943  +6.5926843     1035.905     1479.997     1964.579     77.84712     156.1303     312.3227      1.571     4.27     838.9304     55.09031     162.5269        10     1.178     0.609  56.46   0
       522    211.3380    276.5867 307.8520109  +6.5672055     673.5039     1077.822      1124.81     77.84712     156.1303     312.2916      1.835     5.87     835.4026     55.09031      93.9541         9     1.101     0.882  73.91   0
       523    326.3989    275.2577 307.8042664  +6.5716147     1336.464     1953.792     2120.112     77.72227     155.9435     312.2294      1.485     4.61     834.2453     55.09031     222.2041        13     1.428     0.614  45.05   0
       524    173.7762    275.1610 307.8676593  +6.5665327     1887.491     2532.832     2657.509     77.97177     156.0681     312.3227      1.391     3.40     836.2599     55.09031     313.9193        13     1.192     0.645  55.47   0
       525    583.4935    270.7806 307.6976319  +6.5820726     2536.744     3361.558     3127.588     78.22049     156.0681     312.3849      1.333     3.52     836.0651     55.09031     376.0304        14     1.207     0.655  56.07   0
       526    927.0788    269.9751 307.5549446  +6.5938762     1860.526     2756.855     3327.252     78.09623     156.1925     312.5092      1.597     4.08     839.5694     55.09031     306.1453        21     1.583     0.816  41.06   0
       527    747.1510    268.3361 307.6297361  +6.5885507     5602.338     7894.288     8276.028     78.22049     156.2546     312.6024      1.469     3.71     838.3854     55.09031     913.1693        24     1.404     0.786  53.54   0
       528    688.0060    268.3791 307.6543015  +6.5865576      2411.52     3515.265     3622.988     77.97177     156.0681     312.3538      1.520     3.66     837.7162     55.09031     412.2835        19     1.486     0.796  47.20   0
       529    984.9909    267.8856 307.5309587  +6.5966682     652.3693      782.168     742.9073     77.97177     156.0058     312.3849      1.271     3.72     838.7018     55.09031     112.8417         5     0.817     0.488  66.81   0
       530    402.5997    262.6187 307.7730396  +6.5793861     882.8729     1354.222     1585.656     77.97178     155.8813     312.2294      1.565     4.05     833.5754     55.09031     175.6491        11     1.326     0.588  55.01   0
       531    943.0249    260.4975 307.5486362  +6.5983199     1220.828     1605.699     1177.094     78.46841     156.0681     312.4471      1.444     4.81     838.8792     55.09031     170.6382        10     1.111     0.590  61.74   0
       532    246.4401    253.4180 307.8382079  +6.5779472      2520.19     3572.961     3601.075     77.97178     156.1303     312.3227      1.517     3.62     834.5359     55.09031      439.196        17     1.316     0.736  51.20   0
       533    889.3024    252.5772 307.5712151  +6.5997987     1948.323     2428.145     3097.674     78.34455     156.0681     312.3849      1.404     3.90     838.5883     55.09031     290.9476        13     1.251     0.650  53.92   0
       534    779.8024    252.1547 307.6167129  +6.5963203     1726.266     2297.004     2009.885     77.72226     155.9435     312.1983      1.389     3.69      838.065     55.09031     298.7693        12     1.223     0.581  56.31   0
       535    895.7714    246.7524 307.5687218  +6.6024188      525.433     849.6777      1484.63     77.97178     156.3789     312.4471      1.869     5.34     838.2642     55.09031     94.77185         6     1.212     0.665  35.39   0
       536    268.3963    247.1552 307.8292984  +6.5812691     449.7336     697.7809     344.3198     77.72227     156.0058     312.1983      1.298     3.46      834.211     55.09031     76.09125         5     0.785     0.440  70.76   0
       537    480.4887    243.5029 307.7413271  +6.5898855     25758.85     35529.16     36883.85     78.34455     156.7511     312.5714      1.509     3.69     833.7635     55.09031     4135.845        43     1.483     0.904  54.68   0
       538    341.6398    245.1439 307.7989441  +6.5845560     767.8745     1165.087     1064.575     78.34455     156.3789     312.5714      1.513     5.02     833.5905     55.09031     131.0026         8     1.146     0.623  62.26   0
       539    806.5679    242.6425 307.6059121  +6.6011401     14542.32     20447.41     22374.82     77.84712     156.2546     312.3538      1.545     3.72     837.8041     55.09031     2376.059        43     1.509     1.098  46.27   0
       540    745.4286    238.4132 307.6314490  +6.6008450     755.8989     1299.388     1302.943     77.97178     156.0681     312.4471      1.929     4.51     837.3837     55.09031     123.5171         8     1.133     0.510  53.70   0
       541    486.1002    238.0423 307.7391788  +6.5923275     1557.958     2352.695     2550.885     78.34455     156.1925     312.7578      1.441     3.68     833.6365     55.09031      277.912        12     1.287     0.579  46.21   0
       542    168.8061    236.8457 307.8710080  +6.5821812     2532.942     3725.357      3678.63     77.84711     156.0681     312.1983      1.555     4.03     835.4136     55.09031     376.9664        19     1.448     0.742  55.85   0
       543    143.4593    235.8685 307.8815684  +6.5817331     1121.108     1723.787     1565.616     78.46841     156.2546     312.5403      1.456     3.97     835.8868     55.09031     195.7466        10     1.234     0.555  47.96   0
       544    799.4277    234.7158 307.6091421  +6.6041739      685.827     1167.577     2041.896     78.46841     156.0681      312.416      3.357     6.34     837.4131     55.09031     90.86743        10     1.326     0.851  17.20   0
       545    195.5516    234.8997 307.8599647  +6.5838827     682.6396     962.6127     810.3141     78.34455     156.1925     312.7267      1.245     3.08     834.9194     55.09031     129.8732         5     0.744     0.439  67.05   0
       546    942.8910    233.0267 307.5496058  +6.6096552     1552.999     2042.779     2221.693     78.46841     156.0681     312.3849      1.415     3.57     837.5532     55.09031     254.8371        11     1.215     0.569  55.42   0
       547      6.7053    230.2569 307.9385556  +6.5794517     5314.584     7559.418     8214.009     78.22049     156.3168     302.9146      1.542     3.68     836.7591     55.09031     746.3186        25     1.379     0.862  53.78  16
       548    604.6174    229.2858 307.6902430  +6.5999075     5218.698     7158.577     7534.354     77.97178     156.0681     312.4782      1.431     3.47     835.6031     55.09031     856.0466        20     1.342     0.761  54.10   0
       549    567.3025    229.2045 307.7057453  +6.5986931     2412.325     3421.859     3377.682     78.09623     156.0058     312.2294      1.508     3.64     834.2466     55.09031     382.0297        19     1.368     0.766  58.59   0
       550    324.7732    230.0723 307.8064542  +6.5902117     1107.862     1388.962       931.96     77.97177     156.2546     312.4471      1.375     4.44     833.4301     55.09031     169.2686        10     1.049     0.632  31.92   0
       551    408.8020    228.1700 307.7716157  +6.5938136     1561.243     2145.748     1840.877     77.84711     156.1303     312.3538      1.479     4.38     833.0071     55.09031     264.6703        13     1.364     0.578  55.54   0
       552    965.4715    226.3181 307.5404492  +6.6131768      3010.08     4139.269     3889.848     78.59209     156.6271     312.5714      1.439     3.95     837.2593     55.09031     492.9984        18     1.327     0.729  59.06   0
       553    911.5854    225.7899 307.5628506  +6.6115992     12225.93     16870.77     17845.35     78.09623     156.0681     312.4782      1.475     3.57     837.1346     55.09031     1940.798        33     1.493     0.810  56.01   0
       554    586.5253    225.8220 307.6978736  +6.6007323     951.5499     1401.584     1541.893     77.97177     156.1925     312.4782      1.634     4.42     834.8744     55.09031     162.7643        11     1.316     0.579  54.79   0
       555    339.3542    226.0855 307.8005313  +6.5923463     1028.296      1724.76     1907.864     78.34455     156.2546     312.5403      1.903     4.33     833.3372     55.09031     170.7292        11     1.426     0.515  56.19   0
       556    998.2889    223.6698 307.5269052  +6.6153632     10488.08     14733.35     15078.07     78.34455     156.5651     312.5403      1.521     4.03     837.2353     55.09031     1450.755        32     1.486     0.860  53.65   0
       557    230.6693    226.0526 307.8456751  +6.5887136     803.8591     1187.002     1437.735     78.22049     156.1925     312.4471      1.362     4.38     834.2263     55.09031     128.3149         7     0.989     0.552  39.68   0
       558    709.5853    223.6096 307.6468311  +6.6057588     3147.411     4596.915     4447.519     78.09623     156.0681     312.4782      1.507     3.60     836.8547     55.09031     568.9246        19     1.369     0.720  58.93   0
       559     37.7532    222.4401 307.9259228  +6.5837226      28256.1      40205.4      41955.6     78.22049     156.3168     312.3538      1.561     3.69     836.7316     55.09031     4227.201        47     1.513     0.972  54.23   0
       560    283.8994    223.1704 307.8236624  +6.5916896     1242.044     1736.098     1326.808     78.34455     156.0681     312.6024      1.566     4.23     833.4351     55.09031     175.1955        13     1.283     0.657  61.13   0
       561    518.2764    218.4717 307.7264679  +6.6014830     2445.439     3128.554     2928.603     78.59209     156.5651     312.5403      1.361     4.00     833.1979     55.09031     418.2291        14     1.221     0.643  55.82   0
       562    850.1921    215.1989 307.5887053  +6.6139239      2301.55     3138.443     3336.764     77.72226     156.0058     312.3538      1.496     3.69     836.5259     55.09031     359.3447        15     1.296     0.689  54.89   0
       563    530.2717    214.4120 307.7216210  +6.6035602     2957.584     4175.286     4662.151     77.84712     155.9435     312.3538      1.464     3.71     833.1796     55.09031     462.9301        19     1.330     0.817  47.78   0
       564    902.3609    214.1951 307.5670683  +6.6160779      2088.84     2975.177     3593.053     77.47195     156.0681     312.2916      1.458     3.80     836.5316     55.09031     355.7469        14     1.328     0.636  53.97   0
       565    761.7924    211.7615 307.6255401  +6.6123929     43828.05     60984.61     62792.92     77.59721     156.0681     312.2605      1.458     3.63     836.4133     55.09031     7693.794        49     1.492     0.880  55.28   0
       566    364.8248    211.1436 307.7904518  +6.5993679     6281.372     12433.74     13276.29     77.97177     156.3168     312.3538      2.071     6.25     833.1701     55.09031     762.8911        43     1.951     1.137  88.14   0
       567    995.5656    210.5567 307.5284725  +6.6206855     3144.644     4427.802     4563.567     78.09623     156.3168     312.3849      1.493     3.96     836.3224     55.09031      471.356        18     1.343     0.726  57.67   0
       568    929.7404    208.8545 307.5558727  +6.6191951     8226.511      11394.2     11990.74     78.46841     156.2546     312.5092      1.452     3.53     836.3173     55.09031     1342.638        29     1.442     0.813  52.87   0
       569    473.2027    207.9208 307.7455428  +6.6043292     5542.145     7981.003     7970.226     77.72226     155.8189     312.3227      1.510     3.75     832.8597     55.09031     842.6597        29     1.477     0.865  55.70   0
       570    247.6718    204.6476 307.8393302  +6.5981197     794.7419     1230.365     1701.929     78.34455     156.3789     312.5403      1.567     4.01     833.7425     55.09031     135.0257         7     1.115     0.413  62.73   0
       571    130.4953    199.2795 307.8881800  +6.5964004     5245.429     7413.361     7767.618     78.09623     156.5651     312.6024      1.526     3.59     835.0873     55.09031     778.4851        29     1.450     0.909  51.05   0
       572    276.1602    196.9941 307.8277536  +6.6022349     7235.486     10344.24     10753.22     77.59721     156.0058     312.2605      1.477     3.61     833.3506     55.09031     1084.058        29     1.463     0.876  53.26   0
       573    949.9446    198.7508 307.5478161  +6.6240391     939.1648     1233.853     1622.073     78.34455     156.3168     312.6024      1.324     4.49     835.7125     55.09031     131.2937         8     1.123     0.511  54.99   0
       574    300.8958    195.9755 307.8175135  +6.6034852      37525.5     53629.25     55325.52     78.46841     156.0681      312.416      1.492     3.59     833.1971     55.09031       5939.3        51     1.520     0.958  55.53   0
       575    626.6236    197.4193 307.6821658  +6.6137974     693.7774     223.7948     246.7628     78.09623     156.1925     312.4782     -1.803     5.27      834.808     55.09031     133.4595         8     1.340     0.585  37.28   0
       576    730.3844    195.5073 307.6391285  +6.6180537     903.2849     1293.238     903.3892     78.09623     156.1303      312.416      1.528     4.56     835.6863     55.09031     150.4271         9     1.246     0.474  52.38   0
       577    424.9489    191.4498 307.7661369  +6.6095119     56138.38     78360.45     80919.39     78.34455     156.1925     312.4782      1.507     3.70     832.7614     55.09031     8489.194        56     1.506     0.975  53.29   0
       578    180.8373    192.6889 307.8674912  +6.6008120     4475.443       6333.7     6186.142     78.34455     156.2546     312.5714      1.513     3.66     834.1642     55.09031     684.3745        24     1.423     0.824  56.99   0
       579    442.3110    191.9187 307.7589094  +6.6099000     1514.128     2328.488     2051.619     78.09623      156.503     312.6335      1.591     3.97     832.6707     55.09031     198.4742        14     1.242     0.705  60.94   0
       580    764.2172    187.6681 307.6253359  +6.6224194     36980.47     50711.66     52408.14     77.84712     156.2546     312.4471      1.441     3.77     835.4069     55.09031     5486.023        44     1.462     0.879  55.19   0
       581    595.6647    190.8186 307.6952460  +6.6154868     490.6482     746.3934     1293.684     77.97177     156.3168     312.3849      1.295     2.79      834.131     55.09031     102.3604         5     0.748     0.429  71.23   0
       582    328.9433    189.1649 307.8060914  +6.6072371     20344.61     28998.69     30117.06     78.22049     156.3168     312.5714      1.492     3.57     833.1438     55.09031     3070.375        39     1.497     0.895  54.16   0
       583    712.2735    189.4552 307.6468535  +6.6199470     1189.333     1450.059     1500.761     78.22049     156.1925     312.4471      1.387     4.60      835.213     55.09031      206.657        11     1.355     0.533  57.77   0
       584    336.3043    189.2258 307.8030319  +6.6074588     2223.653      3388.46       3705.6     78.46841     156.0681      312.416      1.691     4.08     833.1405     55.09031     317.4287        18     1.322     0.812  53.92   2
       585    337.5070    184.7458 307.8026823  +6.6093484     635.5376     1042.003     1591.291     78.22049     156.2546     312.6956      1.825     4.01     833.1191     55.09031     113.0782         6     1.070     0.430  74.80   3
       586    812.6008    188.2704 307.6052175  +6.6237856     1390.875     2232.006     2731.336     77.72227     155.8813     312.3538      1.675     3.91      835.395     55.09031     274.0602        13     1.385     0.613  59.94   0
       587     51.2916    187.5212 307.9214719  +6.5985913     715.7505     891.9513     1399.661     78.09623     156.5651     312.6025      1.330     3.03     836.5604     55.09031     141.8635         7     1.020     0.600  69.83   0
       588     81.0312    184.9376 307.9092062  +6.6006577     10021.77     14590.91     14885.78     78.09623     156.3789     312.5092      1.514     3.75     835.6713     55.09031     1424.176        33     1.475     0.907  57.46   0
       589    588.1711    186.4176 307.6985056  +6.6170529     424.5399     577.1247     914.6627     77.97177     156.1303     312.4782      1.509     3.45     833.8304     55.09031     91.24261         5     0.737     0.466  16.44   0
       590    114.7077    182.8347 307.8952891  +6.6026577      1793.92     2654.542     2611.083     78.46841     156.1925     312.6024      1.569     4.56     834.8174     55.09031     296.2628        15     1.451     0.661  52.27   0
       591   1022.7686    182.2007 307.5181151  +6.6332965     1277.553     1902.591     1964.987     76.58941     136.6951     249.0765      1.524     4.43     834.0281     55.09031     195.2067        12     1.299     0.634  63.77  24
       592    598.1265    172.3397 307.6948403  +6.6231969     851.3594      1317.98     911.8429     78.46841     156.3168     312.5714      1.559     3.88     833.5709     55.09031     162.1885         8     1.115     0.610  43.13   0
       593     14.3227    170.1233 307.9374111  +6.6045290     1094.653     1681.971     1623.211     78.59209     156.5651     312.6024      1.786     3.83     837.9713     55.09031      161.522        12     1.284     0.755  66.92   0
       594   1023.3090    168.0472 307.5183611  +6.6391570     2271.072     3058.104      3274.68      72.4181     129.5454     241.1119      1.362     4.08     832.9395     55.09031     380.8296        14     1.213     0.675  74.46  24
       595    606.6218    165.8630 307.6915277  +6.6261545     1297.873     1747.202       1766.2     77.97177     156.3168      312.416      1.436     3.78     833.4617     55.09031     206.7336        14     1.259     0.713  48.60   0
       596    292.5297    165.5962 307.8220058  +6.6157443     574.2761     1114.605     1602.267     77.84712     155.9435     312.3849      1.633     3.99     833.0256     55.09031     99.83887         5     1.225     0.371  36.00   0
       597    614.9182    163.9280 307.6881460  +6.6272306     2338.958     3326.524     3741.579     78.59209     156.6271     312.5714      1.479     3.68      833.412     55.09031     364.5532        19     1.422     0.728  57.77   0
       598    299.7964    162.2237 307.8191003  +6.6173802     33962.09      48001.6     49867.86     77.97177     156.0058     312.3849      1.513     3.63      833.002     55.09031     5001.161        47     1.515     0.932  55.18   0
       599    359.0113    164.0489 307.7944426  +6.6186126     1080.314     1380.143     522.4033     77.72227     156.2546     312.2294      1.361     4.06     832.9845     55.09031     183.4857        11     1.206     0.630  40.80   0
       600     45.0094    160.7038 307.9249815  +6.6094493     4911.134     7167.097     7359.868     78.09623     155.9435     312.3538      1.548     3.70     836.7275     55.09031     684.7108        23     1.405     0.844  52.11   0
       601    731.4336    158.7995 307.6399166  +6.6332413     9172.588     12450.48     12048.04     77.47195     156.1303     312.2916      1.421     3.64      834.093     55.09031     1438.375        26     1.419     0.766  56.40   0
       602    208.6934    159.8973 307.8570200  +6.6152829     1077.896     1462.777     1052.092     78.34455     156.8749     312.4471      1.440     4.77     833.3655     55.09031     174.5286         9     1.076     0.599  61.29   0
       603    285.2862    157.1981 307.8252958  +6.6189678     912.5436     1256.384     1781.541     77.72227     155.9435     312.2605      1.469     4.76     833.1024     55.09031     137.2706        12     1.316     0.656  59.66   0
       604    142.1945    155.9351 307.8847744  +6.6146847      5289.87      7690.81      7903.95     77.84711     156.0681     312.3227      1.529     3.55     833.4933     55.09031     765.9231        27     1.447     0.878  56.48   0
       605    604.3115    154.0381 307.6928821  +6.6309583     911.1668     1464.353     1495.292     78.34455     156.1925     312.5714      1.686     5.50     832.9862     55.09031     132.9702        10     1.182     0.722  51.07   0
       606    481.2158    153.0529 307.7440484  +6.6272459     1630.865     2267.977     1901.944     77.72226     156.3789     312.2605      1.410     3.71     831.6188     55.09031     269.4987        11     1.153     0.616  52.00   0
       607    412.9626    152.0179 307.7724347  +6.6253870     4462.832     6765.706     6628.544     77.97177     156.1925     312.2916      1.566     4.13     832.6108     55.09031     643.1303        31     1.561     1.014  69.77   0
       608    669.9685    153.0476 307.6656413  +6.6335621     938.0493      1061.57     876.3966     78.09623     156.3168     312.4471      1.297     3.77     833.0161     55.09031     162.2991         8     0.877     0.627  45.79   0
       609    377.2685    150.8252 307.7873014  +6.6246831     3483.615     4800.427     4507.967     77.97177     156.1925     312.4471      1.468     3.83     832.9777     55.09031     478.6326        19     1.288     0.766  52.19   0
       610    131.6953    150.8129 307.8893073  +6.6164462     1909.795     2835.607     2575.023     78.09623     156.0681     312.3538      1.515     3.54     833.4464     55.09031     310.8494        18     1.387     0.817  61.11   0
       611    589.6368    150.8684 307.6990838  +6.6317760      666.801     1051.617     1143.504     78.22049     156.3168     312.6646      1.690     4.62     832.7667     55.09031     91.11407         8     1.077     0.564 -31.81   0
       612    693.3903    148.9326 307.6560490  +6.6360434     907.5925     1331.675     1468.136     77.84711     156.1303     312.4471      1.370     3.86     833.1378     55.09031     146.3157         9     1.070     0.585  77.19   0
       613    768.0119    148.9603 307.6250498  +6.6385242     689.4977     867.9951     359.3821     77.84712     156.1303     312.2916      1.462     3.23      833.718     55.09031     144.7271         5     0.967     0.362  57.41   0
       614     70.4817    146.4308 307.9148804  +6.6161973     469.9579     648.6051     198.2397     78.22049     156.1925     312.5403      1.058     3.74     834.9911     55.09031     78.59955         6     0.995     0.404  71.14   0
       615   1023.6782    144.9126 307.5189769  +6.6487191     1110.882     1489.168     1344.241     67.84837     124.4212     234.9923      1.206     3.83     832.3206     55.09031     237.6119         7     1.113     0.392  75.88  24
       616    749.4954    144.8618 307.6328783  +6.6395977     647.9285     836.5347       596.26     78.09623     156.3789     312.6024      1.410     3.51     833.5325     55.09031     108.1916         5     0.869     0.534  41.02   0
       617    229.1398    139.7068 307.8492038  +6.6243034     6115.672     8514.489     8400.902     78.22049     156.2546     312.5714      1.480     3.61     832.8476     55.09031       862.92        25     1.440     0.800  53.05   0
       618    111.7229    139.5576 307.8979808  +6.6204208     2345.757     3464.508     4013.443     78.22049     156.3168     312.5714      1.557     3.89     833.2552     55.09031     350.1777        18     1.340     0.792  57.15   0
       619    690.9842    138.5851 307.6573937  +6.6402343     7214.091     9798.762     10509.58     78.09623     156.0058     312.4782      1.417     3.90     832.7228     55.09031     1222.855        26     1.392     0.789  52.53   0
       620    839.1357    138.4315 307.5958549  +6.6452439     1239.783     1784.122     1666.427     78.09623     156.3789     312.5092      1.461     4.83      833.166     55.09031     189.0428        11     1.119     0.635  52.15   0
       621    643.1368    135.7634 307.6773640  +6.6398000     10531.33     14539.28     15851.12     78.34455     156.3789     312.5403      1.450     3.97     832.3648     55.09031     1608.865        31     1.450     0.837  57.22   0
       622    277.8027    136.5046 307.8290974  +6.6272584     950.4951     1322.271     1370.687     77.97177     156.0058     312.2294      1.508     5.04     833.4166     55.09031     151.2854        10     1.096     0.656  66.06   0
       623    581.3949    135.6178 307.7030168  +6.6377955     582.6334     810.1697     811.3455     77.97178     155.9435     312.3849      1.748     3.43     832.0897     55.09031     76.43475         5     1.029     0.330  68.27   0
       624     41.7876    135.1049 307.9271791  +6.6199073      1128.45     1910.327     1648.656     78.09623     156.0681     312.3538      1.768     5.43     836.0068     55.09031     156.7783        16     1.294     0.969  89.90   0
       625    370.3208    131.5758 307.7908315  +6.6323958     3995.031     6312.756     6737.562     77.97178     156.0681     312.5403      1.742     4.21      833.296     55.09031     618.8595        32     1.522     1.163  71.88   0
       626    552.1042    130.9216 307.7153411  +6.6387541     1874.927     2491.864     2367.373     78.09623     156.5651     312.5714      1.442     3.44     831.6419     55.09031     307.8145        15     1.221     0.711  48.54   0
       627   1016.4783    130.3875 307.5224508  +6.6544751     818.5276     1368.446     1503.464     77.97178     156.0058     312.3849      1.681     4.57     832.3208     55.09031     131.8142         8     1.192     0.499  88.47  16
       628    646.6988    127.3466 307.6761653  +6.6433934     60287.61     82614.65     85103.12     78.22049     156.3168     312.7578      1.444     3.43     832.0353     55.09031     10390.24        63     1.500     0.944  55.15   0
       629    712.5856    128.8124 307.6487463  +6.6449900     548.2816     767.1569     1062.946     78.22049     156.0058     312.4782      1.300     3.11     832.5524     55.09031     99.58087         5     0.730     0.454  70.48   0
       630    325.7456    121.0172 307.8097012  +6.6352596      4002.17     5782.726     5974.556     77.84712     156.2546     312.2916      1.501     3.55     833.9377     55.09031     625.8013        22     1.434     0.808  57.88   0
       631    521.1009    118.6668 307.7286294  +6.6427751     740.1721     1266.223     1245.566     78.34455      156.441     312.5092      1.901     5.12     831.2175     55.09031     112.2532         8     1.125     0.659  57.13   0
       632     23.2546    104.2049 307.9359147  +6.6320382     710720.5      1434010      1546792     77.72227     156.0681     312.2294      2.079     8.01     836.0513     55.09031     61191.66       455     2.221     1.762  56.99   4
       633    725.6622    115.6427 307.6437532  +6.6508630     1052.511     1298.492      1150.14     78.34455     156.2546     312.6335      1.280     3.64     832.1016     55.09031      198.993        10     1.170     0.558  55.65   0
       634    696.9340    114.6113 307.6557218  +6.6503291     1456.542     1826.903     1219.035     77.84711     156.1303      312.416      1.383     3.66     831.8359     55.09031     268.6719        13     1.162     0.745  34.97   0
       635    710.9695    111.1735 307.6500059  +6.6522171     3461.161     4795.497     4181.162     77.84712     156.0681     312.3849      1.435     3.90     831.7742     55.09031     537.5092        19     1.328     0.724  53.13   0
       636     82.7126    109.6401 307.9110348  +6.6317945     595.0399     773.3979     775.8365     78.34455     156.2546     312.5714      1.447     4.81     832.9091     55.09031     99.57733         6     1.018     0.644  70.21   0
       637    452.8115    102.3791 307.7575417  +6.6472118     4637.025     6577.932      6615.11     77.97177     156.0058      312.416      1.447     3.54     831.5427     55.09031     713.8899        24     1.429     0.801  51.85   0
       638    907.4521     98.6419 307.5687996  +6.6639469     2331.546     3136.642     3146.214     78.34455     156.3789     312.5403      1.440     3.49     831.7471     55.09031     406.1053        16     1.311     0.652  51.63   0
       639    925.3018     97.6306 307.5614180  +6.6649593      4300.87     5867.743     6152.228     78.34455     156.0681     312.6024      1.461     3.68     831.8651     55.09031      640.678        25     1.371     0.856  55.60   0
       640    263.5048     95.4423 307.8364122  +6.6437280     855.6203      1355.43     1608.473     78.34455     156.2546     312.6646      1.640     4.82     833.3875     55.09031     139.0701         8     1.072     0.613  56.71   0
       641    416.2793     94.1898 307.7729913  +6.6493682      2215.39       2932.5     2944.891     77.97177     156.0681     312.3849      1.390     3.59     831.7018     55.09031     339.1629        15     1.261     0.662  58.70   0
       642    106.7161     95.3399 307.9015441  +6.6385041     626.8203     827.7905     846.4865     78.46841     156.3789     312.6024      1.258     2.98     831.4995     55.09031     118.0624         6     0.834     0.521  44.71   0
       643    164.1073     91.0826 307.8778473  +6.6421900     3474.443     4906.428     5066.839     78.09623     156.6271     312.6646      1.476     3.83      831.369     55.09031     525.2694        21     1.370     0.831  50.61   0
       644    312.4165     89.6120 307.8162896  +6.6477757     1525.862     2182.677     2740.402     78.09623     156.0058     312.4471      1.683     3.68      834.623     55.09031     213.7622        15     1.238     0.783  52.76   0
       645     46.0068     88.9454 307.9269764  +6.6391021      13490.8     19649.41     20627.73     77.84712     156.0681     312.2605      1.513     3.69     833.8113     55.09031     2091.895        38     1.504     0.925  54.35   0
       646    585.7583     88.4128 307.7027806  +6.6574268     748.7373     1113.975     1196.411     77.72227     156.1303     312.2916      1.491     3.36     830.2749     55.09031     134.7143         5     0.937     0.411  81.83   0
       647    573.0687     88.4242 307.7080517  +6.6569976     971.0727     1386.598      1317.43     77.97177     156.1925     312.4782      1.457     4.53     830.1481     55.09031     154.7303         9     1.101     0.556  60.70   0
       648    966.8696     88.0346 307.5444685  +6.6703057     583.2434     668.7144     715.6842     78.22049     156.3168     312.6024      1.285     4.02     831.3425     55.09031     84.55408         6     1.015     0.456  53.30   0
       649    780.7462     87.7818 307.6217989  +6.6642029      699.985     1276.356      2002.24     77.84712     156.3168     312.3227      2.574     3.15     831.0382     55.09031     150.4007         8     0.996     0.619  39.53   0
       650    605.3524     98.2459 307.6943125  +6.6540232     865.4166     1057.378     518.6569     78.34455     156.1925     312.5403      1.437     5.32     830.7876     55.09031     140.3585         9     1.182     0.677  61.36   0
       651    847.7314     83.4725 307.5941147  +6.6682170     7051.283     9341.765     10008.51     78.46841      156.441     312.5403      1.423     3.45     830.7812     55.09031     1249.954        25     1.366     0.793  51.56   0
       652    437.8418     84.2305 307.7643672  +6.6542016     1157.329     1451.751     1338.266     77.84711     156.2546     312.3849      1.422     4.33     831.3901     55.09031     183.6733        14     1.302     0.710  45.47   0
       653    617.3644     96.1481 307.6893926  +6.6552908     1930.562     2655.192     2660.341     78.22049     156.3168     312.4782      1.369     3.54     830.7877     55.09031     360.2702        14     1.339     0.601  51.86   0
       654    175.3868     87.4159 307.8732849  +6.6440824       706.64     953.5266     1092.329     78.09623     156.0058     312.4782      1.429     5.99     831.3491     55.09031     84.28656         8     1.406     0.719  67.49   0
       655    555.1873     81.7702 307.7157023  +6.6591460     1428.668     1784.805     1764.417     77.84711     156.0681     312.4471      1.398     4.06     829.8022     55.09031     212.4872        13     1.268     0.639  65.49   0
       656     70.8540     81.6663 307.9168996  +6.6429423     1112.917     1608.405     2225.244     78.34455     156.2546     312.5092      1.686     4.73     832.1431     55.09031     170.9319        15     1.417     0.725  44.86   0
       657    792.8616     83.8589 307.6168966  +6.6662266     3555.028     4756.105     4352.518     78.34455     156.2546     312.5714      1.412     3.62     830.8589     55.09031     676.9802        19     1.433     0.668  57.49   0
       658    675.1045     81.2797 307.6659023  +6.6633584     529.4616     604.1614     828.0115     78.09623     156.5651     312.6024      1.211     3.79     830.8841     55.09031      106.821         6     1.193     0.346  57.93   0
       659     86.2252     80.7411 307.9105456  +6.6438411     3450.674     4828.923     4648.427     77.97178     156.3168     312.3849      1.475     3.78     831.4663     55.09031      476.936        18     1.346     0.735  56.20   0
       660    447.5351     80.5471 307.7604636  +6.6560468     1108.004     1700.195     1931.395     78.34455     156.2546     312.5092      1.821     4.83     831.2011     55.09031     158.9565        11     1.215     0.612  53.14   0
       661    610.0183     77.4921 307.6930671  +6.6627461     1645.307     2217.355         2296     78.22049     156.0681      312.416      1.538     4.00     830.1552     55.09031      258.384        16     1.417     0.722  50.04   0
       662     28.9498     76.4761 307.9344802  +6.6436752     2859.509     4397.187     5241.472     78.22049     156.3789     312.5403      1.760     3.97     833.2708     55.09031      440.819        23     1.646     0.871  56.94   0
       663    281.3087     77.3954 307.8296210  +6.6517747     610.9798     790.2662     946.3715     77.97178     156.0058     312.2916      1.370     4.22     834.4356     55.09031     103.8335         7     1.195     0.425  59.86   0
       664    736.8369     73.9842 307.6405002  +6.6684322     520.3535      633.055     682.0946     77.97177     156.1303     312.2916      1.049     2.36     831.0125     55.09031     143.5227         6     0.864     0.434  52.84   0
       665    101.0189     72.0146 307.9046934  +6.6479404     783.6905     1196.828     1098.646     78.09623     156.0681     312.4471      1.645     5.24     830.7165     55.09031     111.3378        12     1.271     0.826  38.61   0
       666    787.4627     71.3055 307.6195578  +6.6712283     2255.124     2994.815     3203.422     78.22049      156.441     312.6024      1.337     3.25      830.472     55.09031     432.1483        16     1.291     0.683  54.05   0
       667    428.1931     71.4071 307.7688043  +6.6591715     1323.987     1688.563     1671.679     77.72227     156.1303      312.416      1.327     3.58     831.4347     55.09031     215.2496        10     1.077     0.613  67.24   0
       668    125.3176     70.3858 307.8946545  +6.6494295     971.3088     1443.722     1673.706     77.97178     156.0681     312.3538      1.593     4.99     830.7779     55.09031     146.2974        12     1.319     0.766  60.84   0
       669    114.0570     65.1106 307.8995091  +6.6512284     10347.35     14975.52     15561.91     78.22049     156.2546     312.6646      1.500     3.69     830.5637     55.09031     1495.996        33     1.490     0.890  57.09   0
       670    443.1683     64.8978 307.7628011  +6.6623601     2809.347     3771.749     3616.256     78.34455     156.1925     312.6335      1.435     3.54     831.0134     55.09031     407.3146        19     1.349     0.767  54.17   0
       671    264.5738     64.6863 307.8369985  +6.6564591     722.5031     696.8847      983.923     78.46841     156.1303      312.416      1.298     3.66     833.7332     55.09031     122.3134         7     1.026     0.617  49.99   0
       672    656.8123     57.0737 307.6743091  +6.6727389     20528.39     28384.67     29544.72     77.84711     156.0058     312.3538      1.436     3.56      830.387     55.09031     3417.092        39     1.434     0.882  56.59   0
       673    280.8730     59.0637 307.8304160  +6.6593269     1542.365     2400.191     3808.536     78.34455     156.3168     312.5403      2.165     4.00      834.702     55.09031     274.9766        14     1.439     0.602  54.36   1
       674    712.2667     57.2077 307.6512670  +6.6745366     586.1482     711.9033     1220.916     77.84712     156.0681     312.3849      1.242     4.29     830.7516     55.09031     91.91376         5     0.853     0.615  54.77   0
       675    556.5625     53.0759 307.7160896  +6.6710364      5831.96     8177.861     8528.887     78.22049     156.3789     312.5714      1.473     3.52     828.9941     55.09031     1011.537        28     1.432     0.866  60.61   0
       676    274.9650     53.3305 307.8330624  +6.6614951     2415.797     3608.638     5162.479     78.22049     156.2546     312.6646      1.921     3.57     834.4392     55.09031     384.8933        19     1.302     0.871  54.79   0
       677    643.2245     47.5848 307.6802707  +6.6762015      3534.44     5719.658     6804.586     78.09623     156.1303     312.4782      1.841     5.91      829.953     55.09031     600.7769        30     2.145     0.760  65.79   0
       678    462.1690     48.7768 307.7554469  +6.6696510     24981.72     35402.87     36497.78     77.72226     156.0681     312.2916      1.505     3.97     830.0679     55.09031      3675.99        43     1.498     0.907  54.49   0
       679     24.1496     51.5477 307.9373114  +6.6538032     1438.011     1987.776     2002.437     78.46841     156.1925     312.5714      1.516     3.51     830.7812     55.09031     216.2626        14     1.208     0.748  55.57   0
       680    940.0076     48.9296 307.5569294  +6.6855527     2168.045     3111.813      3600.49     77.84712     155.9435     312.4471      1.509     4.19     829.3401     55.09031     303.4271        18     1.421     0.748  69.30   0
       681    282.7234     49.1337 307.8299800  +6.6634878     10325.97      14564.3      15674.9     78.46841     156.3789     312.5092      1.503     3.70     834.9697     55.09031     1517.788        32     1.477     0.856  52.24   0
       682     48.1853     48.8433 307.9274179  +6.6557281     2577.041     3756.913     3626.084     77.59721     156.1303     312.2916      1.532     3.89     830.2617     55.09031     377.3341        23     1.414     0.867  56.06   0
       683    342.5714     49.4406 307.8051080  +6.6653687     1184.967      1515.66     1708.721     77.97178     156.0681     312.3849      1.354     3.01     835.3285     55.09031     234.5591        11     1.155     0.585  49.26   0
       684    575.1586     48.2035 307.7085270  +6.6736698     781.3453     963.7078     620.0775     77.72226     156.0681     312.2916      1.288     4.79     828.9749     55.09031      160.883         9     1.198     0.543  65.08   0
       685    547.4789     48.6441 307.7200112  +6.6725618     637.6785     814.8143      1219.88     78.34455     156.3168     312.5403      1.328     4.04     828.8108     55.09031     152.1998         7     1.333     0.418  44.91   0
       686    270.6857     45.7597 307.8350937  +6.6644765     3452.129       4974.4     5918.387     78.34455     156.2546     312.5403      1.535     3.47     834.2874     55.09031     530.7753        18     1.307     0.748  53.80   0
       687    323.9104     44.0860 307.8130394  +6.6669531     1111.941     1635.696     1547.171     78.09623     156.7511     312.6646      1.491     3.91     835.4146     55.09031     186.7811        11     1.104     0.653  49.03   0
       688    960.5375     39.0354 307.5487294  +6.6903210     1091.427     1446.883     1758.621     78.22049     156.3168     312.5092      1.513     5.64     828.0857     55.09031     140.8793        14     1.431     0.706  58.83   0
       689     86.0417     40.8925 307.9119593  +6.6602830     498.2772     542.8505     439.1898     78.34455     156.2546     312.6335      1.598     5.00     829.5923     55.09031     80.79218         5     1.178     0.601  76.37   0
       690    712.1805     38.3747 307.6519310  +6.6823077     2058.738     2749.643     2716.429     77.97177     156.1303     312.4782      1.425     4.13     830.5439     55.09031     333.8141        15     1.296     0.708  54.26   0
       691    116.8073     38.4918 307.8992598  +6.6623082     681.9392     1042.082     1678.084     77.97177     156.0058     312.3538      1.973     4.26     829.7714     55.09031     96.33551         6     1.085     0.476  58.46   0
       692    277.5909     33.2784 307.8326433  +6.6698601      1006.34     1296.266     1615.869     77.97178     155.8813     312.3849      1.313     3.71     834.8931     55.09031     154.5941         9     1.084     0.560  56.19   0
       693    223.0361     33.8972 307.8552855  +6.6677735     935.5264     1263.659     971.3213     78.34455     156.1925     312.6956      1.416     4.61     831.4343     55.09031     162.7742         8     1.027     0.588  58.08   0
       694    200.2305     31.2223 307.8648489  +6.6681117     11948.54     16970.12     17049.68     77.84712     156.1303     312.3849      1.473     3.64      830.993     55.09031     1780.347        32     1.443     0.869  54.81   0
       695     13.3732     31.3564 307.9424660  +6.6617748     1048.355     1635.605     1878.283     77.97178     156.3789     312.4471      1.754     4.76     828.3263     55.09031     174.7524         9     1.170     0.549  48.65   0
       696    945.8496     28.8584 307.5551703  +6.6940325     4409.073      6420.83     6534.427     78.34455     156.3168     312.6024      1.518     3.63      828.029     55.09031     720.5819        25     1.425     0.873  56.21   0
       697    544.4844     29.3707 307.7218992  +6.6804172     3375.806     4546.603      4907.87     78.34455     156.0681     312.3849      1.433     3.48      828.249     55.09031     600.6321        17     1.297     0.704  54.73   0
       698    746.7515     27.5810 307.6379286  +6.6879178     2318.118     2966.147     2934.184     77.84712     156.3789     312.3227      1.348     3.59     830.1589     55.09031     386.3359        13     1.242     0.598  54.35   0
       699    482.6292     27.7987 307.7476485  +6.6789954      2024.07     2893.234     2677.998     77.84712     156.1303     312.3538      1.497     3.89     828.5078     55.09031     310.1398        16     1.348     0.727  50.69   0
       700   1010.6656     25.1115 307.5283665  +6.6977385     2024.962     3167.053     3246.156     78.34455      156.503     312.5403      1.615     3.76     824.9835     55.09031     314.0364        20     1.408     0.851  69.53   0
       701    805.6948     24.7124 307.6135363  +6.6910698     467.7768     753.0997     579.0611     78.34455     156.6891     312.6024      1.374     4.24     828.6072     55.09031     75.99438         6     1.368     0.375  50.37   0
       702    995.4709   1020.7549 307.5015880  +6.2862330     559.2896     1084.644     1153.329     78.34455     155.6319     277.3402      1.982     3.42     855.7618     55.09031      86.2475         5     0.749     0.450 -68.94  16
       703    650.2005     20.9178 307.6782627  +6.6874423     4172.688     5663.882     5131.214     77.59721     155.8189     312.2294      1.386     3.77     829.6534     55.09031     677.3863        18     1.354     0.670  51.56   0
       704    352.3482     20.6872 307.8020091  +6.6775652     999.4351     1474.489     1364.103     78.34455     156.1925     312.6335      1.519     4.84     835.8103     55.09031      163.953        11     1.314     0.552  60.12   0
       705    405.8908     19.0571 307.7798205  +6.6800329     912.2321      1221.89     1368.235     78.22049     156.1925     312.6335      1.491     3.94     832.4165     55.09031      160.599        11     1.157     0.834  78.80   0
       706    771.7571   1012.7429 307.5947235  +6.2820847     7872.804     12422.81     12950.05     78.22049     156.2546     312.5403      1.704     3.86     859.7509     55.09031     1004.283        42     1.668     1.090  49.69   0
       707    566.9980   1013.3049 307.6797035  +6.2750143      4366.77     6867.726       7477.1     77.84711     156.0058     312.1672      1.678     3.77     860.3643     55.09031     560.3948        27     1.464     0.979  59.56   3
       708    564.2791   1005.5125 307.6810921  +6.2781400     8700.075     13079.63      14126.1     78.09623     156.5651     312.6646      1.634     3.82      860.322     55.09031     1143.014        35     1.539     0.979  57.52   2
       709    525.9293     14.0624 307.7301192  +6.6861151     1042.965     1377.047     2030.643     78.34455     156.3168     312.5714      1.411     3.60     827.8619     55.09031     187.7238         8     0.897     0.640  57.64   0
       710    537.4103   1014.5736 307.6919434  +6.2735013     1099.009     1847.878     1858.948     77.97178     156.1303      312.416      1.740     4.49     860.7693     55.09031     191.1937        14     1.348     0.848  38.39   0
       711    317.1548   1012.0740 307.7834555  +6.2671598     14844.09     23028.98     24542.11     78.22049     156.3789     312.5714      1.624     3.64      859.178     55.09031     1957.099        43     1.538     1.077  51.49   2
       712    442.0851     13.0911 307.7649838  +6.6837083     807.0606     1016.857     1331.412     78.09623     156.7511     312.6646      1.387     3.19     830.2199     55.09031     145.0472         5     0.950     0.374  59.95   0
       713    321.7986   1009.4841 307.7816145  +6.2683845      1192.73     1947.712     2603.255     77.59721     155.8813     312.2605      2.051     4.51     859.2222     55.09031     163.8445        14     1.268     0.824  59.55   3
       714    441.7593   1012.4361 307.7317201  +6.2711836     1036.954     1473.892     1669.731     78.09623     156.3168     312.3849      1.436     4.84     860.3845     55.09031     142.1784        12     1.169     0.709  54.78   0
       715    143.4324   1012.9001 307.8555384  +6.2609921     515.0445     700.4072     793.7561     78.34455     156.1925     312.6956      1.567     4.83     855.1909     55.09031     86.03033         5     1.227     0.538  37.64   0
       716     14.3402   1013.2416 307.9091104  +6.2565150     591.8149     905.8256     465.9989     78.34455     156.3168     312.6024      1.527     5.06      856.407     55.09031     85.08521         7     1.052     0.688   0.60   0
       717    832.9495   1011.8094 307.5693522  +6.2845110     961.8436     1597.196     1898.805     77.84711     156.1925     312.2294      1.804     4.08      858.548     55.09031     157.6042        12     1.167     0.730  37.35   0
       718    288.6235   1009.6956 307.7953783  +6.2671853     975.4101     1413.816     1724.112     78.46841     156.0681      312.416      1.681     4.12     858.6558     55.09031     153.6334         9     1.102     0.604  75.78   0
       719    932.9546   1006.1419 307.5280258  +6.2901835     7722.613     13734.85     14390.98     78.34455     156.3168     312.6335      1.893     4.36     857.2304     55.09031     992.8535        44     1.734     1.195  49.05   0
       720    906.6047   1002.2797 307.5390928  +6.2908999     11025.98     19245.33      20683.9     77.97178     155.8189     312.2916      1.889     4.14     857.3231     55.09031     1337.226        54     1.756     1.295  53.00   0
       721    619.4615   1002.6771 307.6582796  +6.2811548     1384.981     2423.773     2748.211     78.59209     156.3789     312.5403      1.939     4.71     859.5998     55.09031     197.6212        19     1.471     1.000  55.77   0
       722    550.5908   1001.2758 307.6869157  +6.2794313     4311.484     6817.324     7177.011     77.97178     155.8813     312.3538      1.709     4.02     860.4471     55.09031     528.1482        29     1.477     1.035  58.71   0
       723    660.3235   1000.7045 307.6413828  +6.2833342     1450.137     2217.313     2138.074     78.09623      156.441     312.6024      1.604     4.31     859.5974     55.09031      223.583        15     1.323     0.848  60.86   0
       724     85.4144    999.9557 307.8800544  +6.2643870     1058.941     1575.038     1593.435     77.72226     156.1303     312.2916      1.562     4.76     855.2859     55.09031     157.8591        14     1.245     0.899  76.38   0
       725    503.9312    997.9973 307.7063941  +6.2792241     2143.501     3072.105      3168.09     77.72227     155.9435     312.3227      1.508     3.96     860.4733     55.09031     283.8489        18     1.356     0.822  54.21   0
       726    938.3123    989.8018 307.5263446  +6.2971071     39579.46     68863.62     73601.01     77.59721     155.9435     312.2605      1.841     4.15     856.9695     55.09031     4709.039        70     1.765     1.260  55.80   0
