#   1 NUMBER                 Running object number                                     
#   2 X_IMAGE                Object position along x                                    [pixel]
#   3 Y_IMAGE                Object position along y                                    [pixel]
#   4 ALPHA_J2000            Right ascension of barycenter (J2000)                      [deg]
#   5 DELTA_J2000            Declination of barycenter (J2000)                          [deg]
#   6 FLUX_APER              Flux vector within fixed circular aperture(s)              [count]
#   9 FLUXERR_APER           RMS error vector for aperture flux(es)                     [count]
#  12 FLUX_RADIUS            Fraction-of-light radii                                    [pixel]
#  13 FWHM_IMAGE             FWHM assuming a gaussian core                              [pixel]
#  14 BACKGROUND             Background at centroid position                            [count]
#  15 THRESHOLD              Detection threshold above background                       [count]
#  16 FLUX_MAX               Peak flux above background                                 [count]
#  17 ISOAREA_IMAGE          Isophotal area above Analysis threshold                    [pixel**2]
#  18 A_IMAGE                Profile RMS along major axis                               [pixel]
#  19 B_IMAGE                Profile RMS along minor axis                               [pixel]
#  20 THETA_IMAGE            Position angle (CCW/x)                                     [deg]
#  21 FLAGS                  Extraction flags                                          
         1    727.1843     20.3042 307.6453302  +6.6898069     6497.851     10647.18     11106.33      86.0645     172.0605      344.258      1.768     3.99      1022.17     60.71125     836.4348        33     1.515     1.117  34.87   0
         2    647.4167     19.5382 307.6785183  +6.6874588     3242.601     5634.801     5737.193     85.78997     172.1975     344.2237      1.829     4.29     1024.497     60.71125      368.422        28     1.478     1.126  36.37   0
         3    447.5784     15.8110 307.7617230  +6.6823132     5012.144     9407.732     10152.81     85.92735     171.9919      344.258      1.996     4.39     1030.224     60.71125     548.9985        39     1.706     1.246  40.62   0
         4     48.5048     15.3947 307.9276358  +6.6690942      6834.44     12605.92     13334.19      86.0645     171.9233     344.1552      1.954     4.56     1052.141     60.71125      765.296        43     1.662     1.340  44.65   0
         5    693.9940     14.5870 307.6593218  +6.6910594     813.6193       1384.5     1058.001     85.92735     172.0605     344.2922      1.632     4.56      1023.35     60.71125     130.8682         7     0.995     0.593  60.94   0
         6    344.1491     10.7778 307.8048912  +6.6809263       9942.5     19355.66     21221.69     85.78997     172.3344     344.2922      2.051     4.53     1042.889     60.71125     1128.097        53     1.726     1.435  43.80  16
         7    117.8150     11.1735 307.8989671  +6.6731669     2027.656     3773.153     3929.792     85.92735      172.129     344.3607      1.935     5.32      1050.14     60.71125     230.1704        28     1.536     1.298  34.95   0
         8    522.6226     11.5341 307.7306699  +6.6865912     704.1608     1336.313     1948.612     85.92735      172.266     344.3265      2.899     5.79     1026.008     60.71125     99.11975        10     1.339     0.705  61.34   0
         9    109.0486     10.2421 307.9026430  +6.6732569     1367.005      2402.36     2768.934     86.33816     172.1975     344.3607      2.026     5.43     1050.306     60.71125     180.6952        19     1.476     0.929  21.98   0
        10    410.3011      8.8062 307.7774573  +6.6839572      1907.05      3334.16     3679.641      86.0645     171.8547     344.1552      1.980     4.70     1033.547     60.71125     218.1423        22     1.330     1.155  17.53  16
        11    671.0248      4.1295 307.6692244  +6.6946104     9312.482      16406.6     17400.04     85.92735     170.6148     303.8185      1.841     4.14     1023.845     60.71125     1135.081        42     1.623     1.217  38.92  24
        12    835.8959      3.5949 307.6006982  +6.7003345     1541.404     2636.719      2909.49      86.0645     166.4862     296.0718      1.814     4.25     1017.319     60.71125     229.9329        17     1.363     0.856  33.93  16
        13    812.0312     10.0462 307.6104022  +6.6968745      597.446     887.7606     877.5459     85.92735      172.266     344.3265      1.410     4.39     1017.541     60.71125      103.705         6     1.170     0.469  28.96   0
        14    548.7902      3.5713 307.7200608  +6.6907547     944.4921     1741.404     2029.946     85.92735     166.3444     295.7928      2.067     6.51     1024.803     60.71125     115.4496        13     1.234     0.964  36.91  16
        15    906.0029      1.8986 307.5716084  +6.7033722     1262.092     1828.876     2419.341     81.70572     145.6261     268.8021      1.600     4.58     1016.354     60.71125     233.0974        14     1.330     0.848  26.04  24
        16    271.4642      1.9505 307.8354070  +6.6821338     4411.735     7037.094     7025.051     82.56731     146.5947     269.9406      1.728     5.13     1050.225     60.71125     582.3094        27     1.671     0.952   2.04  24
        17    663.1602      1.3357 307.6725885  +6.6955013     2877.637     3600.084     3724.287     74.92861     136.7716      259.151      1.136     3.29      1023.75     60.71125     704.0731        13     1.252     0.527  -1.08  25
        18    432.8405      1.3915 307.7683384  +6.6877739     2633.549     3492.532      3626.14     75.39938     137.5455      259.969      1.297     4.30     1031.279     60.71125     516.2748        15     1.486     0.580   0.27  24
        19    693.3051      1.1745 307.6600615  +6.6965749     1161.219     1524.748     1458.554     72.85351     134.0716     255.9914      1.121     3.53     1022.805     60.71125     304.3591         8     1.202     0.378   1.51  24
        20     82.7795    998.5550 307.8799919  +6.2642741     849.4195     1396.557     1140.919     85.92735      172.129     344.2237      1.567     5.00      1078.03     60.71125     134.7124        10     1.470     0.481  36.69   0
        21    974.3947   1023.8127 307.5087651  +6.2836498      1284.53     1482.677     1520.058     72.03948     133.9836     256.2216      0.918     2.25     1063.203     60.71125     387.5452         7     0.962     0.390   0.45  24
        22    750.9418   1023.0084 307.6016166  +6.2765367     1104.223     1411.456     1359.018     82.42434      147.237      270.508      1.439     5.61     1068.707     60.71125     151.8729        11     1.413     0.629  21.12  24
        23    734.6930   1023.3591 307.6083546  +6.2758498     2254.364     2722.813     2457.871     79.36241     141.8514     264.9572      1.235     4.13     1069.385     60.71125      377.437        13     1.233     0.639  16.38  24
        24    381.9080   1021.4338 307.7549648  +6.2648551      1944.05     3081.585     2987.277     86.47466     166.2735     295.7131      1.708     4.56     1075.559     60.71125     255.4634        18     1.370     0.893  50.26  24
        25    813.4589    997.8486 307.5764945  +6.2890111     679.5177       1196.6     1623.231     86.33816      172.266     344.4977      1.721     4.19     1065.413     60.71125     106.3467         5     0.888     0.564  43.50   0
        26    500.8951    996.3251 307.7063876  +6.2792046     2348.132     3293.294     3447.809      86.0645     172.4713     344.4293      1.579     4.40     1073.178     60.71125     287.1028        18     1.343     0.879  32.74   0
        27    935.2797    988.1677 307.5262137  +6.2970674     47882.06     69846.68     72980.41     86.20144      172.266      344.395      1.574     3.96     1063.266     60.71125     7088.345        57     1.550     1.024  42.53   0
        28      8.3937    988.1169 307.9112440  +6.2660859     3089.332     4956.797      4910.87     85.92735     171.9233     344.1209      1.694     3.94     1078.286     60.71125     437.0256        25     1.490     0.985  40.32  16
        29    242.7010    986.5903 307.8139695  +6.2745799     1745.596      2719.03     3042.711      86.0645     171.8547     344.2237      1.634     4.06     1075.473     60.71125      221.225        18     1.308     0.903  62.10   0
        30    641.3981    984.6334 307.6484167  +6.2887276     799.7758     1255.542     1234.036     85.51456     172.0605     344.1895      1.738     6.30      1069.68     60.71125     96.51294        12     1.253     0.890  34.97   0
        31    833.1488    981.9382 307.5688510  +6.2962376      2623.49     3653.927     3935.147     86.33816     172.1975     344.4293      1.554     4.09     1064.585     60.71125     360.9863        20     1.348     0.907  38.16   0
        32    781.3701    979.7512 307.5904347  +6.2954145     7097.546      10713.1     12149.96     85.92735     172.3344     344.3265      1.648     4.30     1065.768     60.71125     983.2357        31     1.532     0.918  37.44   0
        33    568.4732    979.4344 307.6788861  +6.2884384     941.3024     1634.415     1762.292     86.20144     172.1975      344.395      1.853     4.12     1071.552     60.71125     176.0315        12     1.394     0.840  20.00   0
        34    251.0476    978.9489 307.8107614  +6.2780151     1534.884     2393.736      3026.58     86.47466      172.129     344.4293      1.742     4.70     1075.555     60.71125     226.8215        12     1.258     0.718  40.53   0
        35    214.7551    978.2422 307.8258608  +6.2770901     887.1379     1517.186      1716.08     86.20144      172.266      344.258      1.951     4.24      1075.45     60.71125     132.8616         8     1.168     0.639   1.73   0
        36     75.8326    977.0052 307.8836089  +6.2729394     2833.461     4168.044     4406.272     85.65237      172.129     344.2237      1.567     4.35     1077.518     60.71125     342.0884        19     1.368     0.853  40.16   0
        37    969.6021    974.9715 307.5123993  +6.3036595     7483.978      10849.9     11027.71     85.78997     171.9919     344.2237      1.547     4.10     1060.671     60.71125     1026.385        28     1.476     0.862  42.87   0
        38    226.2476    971.3859 307.8213194  +6.2803067     708.8839     1116.553     1391.801     85.65237      172.129     344.1209      1.511     4.48     1075.227     60.71125     99.49683         7     0.992     0.574  55.55   0
        39    652.1157    969.0507 307.6444904  +6.2955203     712.4968     1229.642     1243.024     86.33816     172.1975      344.532      1.872     4.65     1068.792     60.71125     101.9325         7     1.123     0.547  50.52   0
        40    943.2407    966.7357 307.5236278  +6.3061829     2280.783     3268.626     3223.909     86.33816     172.1975      344.532      1.523     4.21     1061.516     60.71125     314.5901        19     1.455     0.802  38.05   0
        41    276.4642    962.9648 307.8007450  +6.2854674     4433.269      6951.61      7067.99     86.20144      172.266     344.4635      1.688     4.04     1075.698     60.71125     538.3922        27     1.401     1.033  42.22   0
        42      1.7515    964.9305 307.9147906  +6.2754369     977.8923     1293.947     1658.385     80.54259     143.5869     266.5992      1.388     3.78     1077.134     60.71125     163.9631         9     1.017     0.596  59.50  24
        43    803.1017    963.2027 307.5819647  +6.3029729     1288.148     1841.243     1454.098      86.0645     171.9919     344.0866      1.540     5.41     1064.406     60.71125     205.5088        15     1.424     0.723  42.48   0
        44    664.1512    962.5598 307.6397098  +6.2986026     4834.993     7378.142      7553.82     86.20144      172.266     344.3607      1.640     4.16      1068.23     60.71125     630.1971        23     1.417     0.899  40.21   0
        45   1013.5534    962.6313 307.4945556  +6.3102180     819.8572     1389.175     1585.163     85.78997      172.266     344.3265      1.928     5.18     1057.917     60.71125     126.5813        10     1.224     0.657  45.05   0
        46     45.1169    960.2386 307.8969368  +6.2788312     2237.168     3252.704     3301.566     86.33816     172.1975      344.395      1.596     3.85     1076.985     60.71125     301.3994        20     1.351     0.894  42.61   0
        47    486.5227    960.9147 307.7135551  +6.2933464     1084.008      1629.01     1722.764     86.33816      172.608      344.532      1.721     5.25     1072.783     60.71125     129.7264        13     1.049     0.921   2.91   0
        48    895.8188    958.9889 307.5435892  +6.3078027     999.6631     1274.571     863.5913     85.92735     171.9233     344.3265      1.359     4.70     1062.297     60.71125     176.4624         9     1.196     0.524  42.94   0
        49    967.5007    956.2515 307.5139022  +6.3113200      832.869     1189.188     1062.344     86.33816      172.266     344.6689      1.488     5.77     1059.685     60.71125     123.2523        11     1.441     0.662  53.22   0
        50    987.7261    957.0022 307.5054746  +6.3116832     750.2829     937.0502     856.3886     85.78997     171.7174     344.2922      1.400     4.25     1058.828     60.71125       102.48         7     1.145     0.450  34.31   0
        51    312.4395    956.5443 307.7860184  +6.2893241     896.9736     1319.395     1376.846     86.33816     172.3344      344.395      1.845     5.37     1075.532     60.71125     112.8317        10     1.213     0.672  44.42   0
        52   1020.1053    955.6799 307.4920675  +6.3133066     813.8214      1555.41     1854.936      86.0645     172.5396     314.0879      2.170     6.38     1057.321     60.71125     162.0675        10     1.706     0.669  55.62  18
        53    588.8546    954.9621 307.6712460  +6.2992252     1672.439      2323.14     2253.827     86.33816     172.3344     344.4635      1.458     4.46     1070.271     60.71125     231.5543        14     1.268     0.755  41.47   0
        54    628.1953    951.3813 307.6550239  +6.3020180     1372.272     1825.526     1881.856     85.92735     171.8547     344.2237      1.518     5.33      1068.99     60.71125      164.833        11     1.066     0.751  45.85   0
        55    307.8310    949.1014 307.7881848  +6.2922431     1478.381     2393.501     2252.367     86.33816     171.9919     344.5662      1.781     5.87     1075.476     60.71125     246.8052        16     1.485     0.811  47.37   0
        56     78.1196    951.9399 307.8835098  +6.2833663     863.7255     1429.355     2139.812     86.47466      172.266      344.395      1.900     5.24     1076.862     60.71125     115.9028        10     1.291     0.600  61.36   0
        57    774.5836    945.4453 307.5944106  +6.3093548     944.4095     1120.332     689.2441     85.78997      172.129     344.1895      1.450     4.51     1064.772     60.71125     147.8694         8     1.025     0.588  50.03   0
        58    912.3287    941.8318 307.5373081  +6.3154377     7815.219     11252.94     11362.19     86.20144      172.266      344.395      1.559     3.95     1060.911     60.71125     1101.138        25     1.410     0.869  39.62   0
        59    448.2570    939.0173 307.7301917  +6.3011087     2009.912     2949.301     3084.358     85.78997     172.1975     344.1552      1.610     3.94     1073.147     60.71125     275.7479        17     1.308     0.802  36.78   0
        60    349.8921    937.4962 307.7711053  +6.2984443     9392.018     14615.96     15307.41     86.33816     172.8129      344.395      1.692     3.87     1075.194     60.71125     1172.779        37     1.492     1.105  40.56   0
        61    269.9981    936.3854 307.8043316  +6.2962263     6857.729     10899.06     10800.49     85.92735     171.9233     344.2237      1.701     4.02     1075.356     60.71125     894.7828        32     1.515     1.033  37.46   0
        62    598.0373    930.8315 307.6682463  +6.3094966     1250.484     1694.249     1353.537     85.92735     171.9919     344.2237      1.518     4.71     1069.094     60.71125     162.0236        16     1.377     0.776  43.49   0
        63    928.2603    926.8383 307.5311942  +6.3221599     1125.802     1989.697     2242.098     86.33816     172.3344     344.4635      1.692     5.76     1059.611     60.71125     157.8458        16     1.387     0.867  37.66   0
        64    884.1912    925.7922 307.5495377  +6.3211241     827.7617     1236.705     818.3649     85.65237     172.0605     344.2922      1.711     6.14     1060.702     60.71125     128.6221        11     1.469     0.722  22.89   0
        65    426.6372    925.2447 307.7396388  +6.3060726     556.0005     775.6733     505.2474      86.0645      172.266     344.3265      1.605     5.31     1073.239     60.71125     84.20459         5     1.432     0.557  52.26   0
        66    232.3794    926.3802 307.8202977  +6.2990967     655.2249     717.9658     1011.555      86.0645     172.1975     344.3607      1.629     3.99     1075.289     60.71125      103.139         5     1.176     0.387  36.78   0
        67    996.3641    923.8299 307.5030020  +6.3256693      1375.88     1754.371     1819.412     85.92735     171.9919      344.258      1.524     0.00     1056.834     60.71125     834.0952        10     1.617     0.607  53.07   0
        68    857.8852    920.5776 307.5606420  +6.3224010     657.6661     1024.306     905.9075     86.20144     171.9919     344.3265      1.371     4.16     1061.293     60.71125     101.3993         6     1.036     0.476  56.36   0
        69    764.5839    919.9357 307.5994249  +6.3195555     1687.088     2659.693     3003.291     85.78997      172.129     344.2922      1.641     4.51      1064.21     60.71125     255.7159        17     1.375     0.871  42.18   0
        70    587.9223    919.9916 307.6728145  +6.3136350     666.3052     1111.962     990.3298     85.92735     171.7174      344.258      1.507     5.26     1069.052     60.71125     123.3792         9     1.426     0.547  38.23   0
        71    995.7732    915.6830 307.5035215  +6.3290139     1529.652     1973.292     1638.944     86.20144     171.9919     344.3607      1.499     4.67     1056.492     60.71125     195.6719        14     1.207     0.809  44.38   0
        72    640.4625    916.4317 307.6511078  +6.3168601     720.1315     912.4108      673.718      86.0645     172.3344      344.395      1.624     4.74      1067.43     60.71125     123.1008         7     1.218     0.522  47.57   0
        73    628.9951    916.7281 307.6558617  +6.3163547      743.595     1125.477     794.1134     85.92735      171.786     344.3265      1.576     5.56     1067.719     60.71125     126.6547         8     1.334     0.673  37.48   0
        74     15.0932    916.9039 307.9108801  +6.2957167     796.7249     1396.395     1461.231     86.33816     172.8129     344.3607      1.572     3.77     1075.255     60.71125     153.9236         6     0.962     0.424  43.44   0
        75    549.5512    915.5860 307.6889038  +6.3141719     1163.039     1845.786     1931.088     85.65238     172.1975     344.1209      1.676     5.74     1070.296     60.71125     152.2023        14     1.394     0.755  26.42   0
        76    682.9620    913.4865 307.6335513  +6.3194952     2460.074     4044.621     4191.394     86.33816     172.1975     344.4293      1.799     4.65      1066.28     60.71125     309.2072        19     1.456     0.840  40.41   0
        77    973.5126    911.7021 307.5129037  +6.3299170     713.3611     1035.528     1110.298     86.33816     172.7446     344.4635      1.585     4.53     1057.201     60.71125     100.0073         7     0.906     0.644  17.69   0
        78    843.7837    909.6201 307.5668695  +6.3264560     992.0969      1464.11     990.9225      86.0645     172.0605     344.3265      1.681     5.77     1061.443     60.71125     130.5956        12     1.300     0.720  51.33   0
        79     79.7003    909.7542 307.8842852  +6.3008391     3052.969     4997.615     5164.563     86.33816     172.1975     344.6689      1.807     4.15     1076.033     60.71125     369.5042        25     1.450     0.993  40.82   0
        80    579.9830    909.9501 307.6764519  +6.3175163     521.6982     625.1418     261.0717     85.78997     172.3344     344.1552      1.422     3.66     1068.979     60.71125     78.37573         5     0.633     0.608 -88.40   0
        81    223.1654    908.5110 307.8247310  +6.3061666     2294.462     3626.715     3530.526     86.47466     172.1975     344.4293      1.699     4.40     1075.371     60.71125     295.1039        20     1.450     0.880  42.25   0
        82     97.3066    908.7468 307.8770057  +6.3018463     1708.576     2595.674     1930.268     86.20144     172.1975     344.6689      1.683     6.05     1076.251     60.71125     249.2196        17     1.429     0.815  49.45   0
        83    961.0533    908.4779 307.5181884  +6.3308337     946.0622     1164.172     1502.819     86.47466      172.266     344.4293      1.344     4.44     1057.557     60.71125     156.6462         8     1.012     0.575  41.43   0
        84    980.1454    906.5223 307.5103224  +6.3322768     443.7131     611.7708     822.0005     86.47466      172.266     344.4293      1.908     4.19     1056.752     60.71125      79.2616         5     1.516     0.331  41.50   0
        85    257.8482    905.4152 307.8104282  +6.3086077     800.2291     1053.203      557.438     85.65237     172.1975     344.1552      1.610     5.80     1075.316     60.71125     104.8251        10     1.098     0.864  -3.25   0
        86    677.5447    902.3843 307.6361765  +6.3238990     7247.479     11254.46     11713.81     85.65238     172.1975     344.1209      1.671     3.86     1065.954     60.71125     930.9976        30     1.475     0.988  42.68   0
        87    815.5255    903.1204 307.5788284  +6.3281981     874.6921     1251.568     1450.712     86.61095     172.5396      344.532      1.535     5.24     1062.092     60.71125     118.7494         9     1.243     0.624  17.93   0
        88     37.6055    900.8478 307.9020738  +6.3031031     1049.251     1682.376     1196.864     85.65237     172.0605     344.0866      1.718     6.34     1075.331     60.71125     150.9637        14     1.493     0.757  38.65   0
        89    915.3530    898.7159 307.5375033  +6.3333433     3062.982     4289.272     3926.566     86.33816      172.266     344.4635      1.535     4.07     1058.935     60.71125     432.3353        22     1.361     0.882  36.34   0
        90     50.7290    899.2742 307.8966758  +6.3041937      1192.93     1622.184     1391.994     86.61095     172.4029     344.4635      1.578     5.12     1075.482     60.71125     163.9419        12     1.191     0.756  61.97   0
        91    360.6523    895.6878 307.7680508  +6.3160689     15700.09     24927.59     26024.66     86.33816      172.129     344.5662      1.721     4.00     1074.823     60.71125      1877.87        42     1.561     1.137  42.40   0
        92     95.6706    896.7562 307.8780923  +6.3067427     1335.768     2043.556     2010.638     86.20144      172.266     344.4635      1.580     5.27     1076.079     60.71125      174.566        14     1.358     0.779  41.57   0
        93    231.5672    895.2498 307.8216903  +6.3119243     1272.556     2040.596     1661.013     86.20144      172.266     344.3607      1.642     5.86      1075.37     60.71125     144.9545        13     1.204     0.803  27.20   0
        94    123.8441    886.3800 307.8667409  +6.3119731      1715.15     2648.219      2164.42     85.78997      172.129      344.258      1.627     4.66     1076.023     60.71125     244.3977        18     1.475     0.799  46.92   0
        95    438.7289    886.7061 307.7359194  +6.3223914     928.0593     1432.992     1657.422     86.33816     172.3344     344.4293      1.735     5.58     1072.362     60.71125     135.5219        11     1.258     0.697  29.52   0
        96    519.0691    883.9037 307.7026379  +6.3262359     601.3309     951.1749     1559.063     86.20144     172.4029     344.4293      1.594     5.99     1070.142     60.71125     95.89624         6     1.286     0.785 -81.93   0
        97    691.7690    882.5345 307.6309370  +6.3325708      825.252      1375.53     2193.441      86.0645     172.3344     344.3607      1.984     4.88     1064.849     60.71125     143.6862        10     1.434     0.630  35.63   0
        98    905.6179    880.3671 307.5421657  +6.3405963     2052.653     3162.883       3200.6     85.92735     172.0605     344.2922      1.620     4.13     1058.573     60.71125     276.6365        17     1.379     0.809  39.86   0
        99    839.7958    879.4716 307.5695422  +6.3387730     3095.923     4673.992     4582.005     85.92735     171.8547      344.258      1.587     4.03     1060.687     60.71125     406.1914        20     1.446     0.835  50.23   0
       100    107.6527    880.0048 307.8736834  +6.3140621     2384.068     3982.925     4463.269     85.65237     171.9919     344.0181      1.778     4.42     1075.904     60.71125     272.4945        22     1.409     0.981  54.84   0
       101    876.3287    879.7997 307.5543532  +6.3398549     2107.312     3096.518     2898.994     85.65237     171.7174     344.2237      1.630     4.95     1059.646     60.71125     287.3276        15     1.391     0.735  50.21   0
       102    575.7120    870.8638 307.6795467  +6.3335141     321996.6     508577.4     531484.4     86.33816     172.4713     344.4293      1.694     3.93     1067.696     60.71125     38972.43       160     1.700     1.311  40.87   0
       103    420.0174    873.5355 307.7441384  +6.3272039     7352.209     11825.37     12420.25     85.78997     172.1975      344.258      1.729     4.16     1072.588     60.71125     983.6019        34     1.533     1.068  36.86   0
       104    663.3778    873.7559 307.6430284  +6.3352481     1192.024     1704.576     2007.199     85.78997      172.129     344.2237      1.915     5.79     1065.152     60.71125     136.2164        12     1.221     0.772  39.21   0
       105    363.1421    871.8944 307.7678220  +6.3259775     11815.62     19396.03     21278.93     86.20144      172.266     344.6346      1.744     4.09     1074.643     60.71125     1544.324        40     1.558     1.140  38.36   0
       106    681.4534    868.2825 307.6357036  +6.3381118     3593.731     5692.875     5524.146     86.33816      172.266     344.4977      1.738     4.08     1064.471     60.71125      450.334        28     1.488     1.161  47.78   0
       107    913.7445    866.9545 307.5392410  +6.3464057     5502.073     8529.975     9799.825     86.33816      172.266     344.4293      1.718     4.10     1057.822     60.71125     694.0681        35     1.787     1.067  26.08   0
       108    752.5870    864.6245 307.6062742  +6.3419962     647.2712     847.6857     1072.106      86.0645     172.0605     344.3607      1.652     6.64     1062.767     60.71125     119.5509         7     1.290     0.960  27.09   0
       109    656.3610    862.2319 307.6463326  +6.3397726     3475.951     5553.055     5929.325     85.92735     172.0605     344.2237      1.765     4.27     1064.887     60.71125      418.058        22     1.392     0.938  32.93   0
       110    844.7221    861.1375 307.5681133  +6.3465083     1776.226     2615.872     2603.366     86.61095     172.3344      344.395      1.574     4.14     1059.979     60.71125     221.1475        13     1.231     0.699  51.06   0
       111    647.0266    861.4025 307.6502386  +6.3398034     882.7339     1300.389     2093.843     85.78997     171.9233     344.2237      1.656     5.68     1065.106     60.71125     115.0527        10     1.040     0.873  -2.00   2
       112    649.2753    856.7798 307.6494604  +6.3417874     2169.909     3375.015     4338.067     85.92735     172.0605     344.3607      1.775     3.80     1064.941     60.71125     266.1268        19     1.234     0.953  44.49   3
       113    971.5971    859.9387 307.5154414  +6.3512292     815.0243     1161.057     1074.859     85.65237     172.0605     344.1209      1.671     5.64     1055.223     60.71125     116.1447        11     1.267     0.707  46.41   0
       114    932.9100    854.8779 307.5316851  +6.3520311     3595.858     5224.096     5764.352      86.0645     172.5396     344.4977      1.589     3.95     1056.588     60.71125     487.0374        19     1.374     0.811  47.73   0
       115    343.3610    855.6718 307.7765890  +6.3320140      942.973     1536.296     1741.587     86.20144      172.266     344.4977      1.782     5.45     1074.766     60.71125     125.6919        10     1.131     0.740  55.10   0
       116    391.2014    850.8858 307.7568762  +6.3355923     2465.935     4155.314     4454.749     85.51456      171.786     344.1209      1.794     4.22     1073.099     60.71125     319.1779        23     1.338     1.133  25.80   0
       117    527.3102    840.7222 307.7006739  +6.3443430     2866.055     4464.054     4265.455      86.0645     172.5396      344.532      1.681     4.13      1068.31     60.71125      326.741        20     1.257     0.986  34.60   0
       118    871.8218    839.5096 307.5575829  +6.3563426     1143.739     1606.984     2318.811     86.33816     172.0605     344.2922      1.676     5.82     1058.028     60.71125     165.8585        12     1.419     0.672  57.50   0
       119    574.1519    836.7158 307.6813486  +6.3475632     5931.761     9323.312     10342.76     86.33816      172.266     344.4635      1.704     3.84     1066.609     60.71125     769.8683        29     1.463     1.031  46.77   2
       120    581.2619    835.8970 307.6784223  +6.3481390     1271.638     2072.636     2215.525      86.0645     172.3344     344.4977      1.694     5.45      1066.34     60.71125     170.9819        18     1.492     0.916  25.22   2
       121    492.1848    836.0364 307.7154252  +6.3451034     1446.781     2194.243     2516.728     85.92735     172.0605     344.1895      1.638     4.26     1069.196     60.71125     202.3936        14     1.244     0.838  54.59   0
       122    909.7147    834.7589 307.5419995  +6.3595668      1493.28     2189.529     2212.075     86.33816     172.1975      344.395      1.581     4.36     1056.511     60.71125     194.1432        12     1.200     0.720  42.94   0
       123    133.7921    834.9254 307.8643543  +6.3335542     1230.246     2023.306     2185.763     85.92735      171.786      344.258      1.796     5.88     1075.037     60.71125     170.7114        17     1.431     0.921  30.53   0
       124    710.6154    833.4440 307.6247636  +6.3534717     731.0762     1081.283     1588.624     85.78997     172.0605     344.2237      1.633     4.18     1062.832     60.71125      125.531         6     1.076     0.602  23.62   0
       125    544.8080    830.6177 307.6937458  +6.3491006     18338.64     29632.94     30869.01     85.92735     171.9919      344.258      1.742     4.12     1067.366     60.71125     2331.742        50     1.615     1.136  38.20   0
       126    385.8536    831.8027 307.7597439  +6.3432934     771.9521     1099.762     659.0076     85.65237     172.0605     344.0181      1.618     5.33     1072.693     60.71125     126.4539         7     1.150     0.698  32.25   0
       127    958.3724    828.7352 307.5219861  +6.3636746     4138.659     5736.617     5606.547     85.92735      172.266     344.3265      1.510     3.73     1054.891     60.71125     643.6221        21     1.330     0.849  41.64   0
       128    712.1721    821.8064 307.6245096  +6.3583294     522.5909     800.9984     941.1981     85.78997     172.0605     344.2237      1.635     4.33     1062.488     60.71125     79.95117         5     0.762     0.701  45.04   0
       129     55.4933    821.1230 307.8973505  +6.3366246     1357.167     2216.648     2109.765      86.0645     172.5396     344.4635      1.809     5.02     1074.312     60.71125     195.5864        14     1.317     0.807  39.65   0
       130    337.4529    819.2949 307.7802754  +6.3468375     3078.487     5055.491     5379.122     86.20144     172.1975     344.7031      1.761     4.52     1073.786     60.71125     356.1439        24     1.420     1.053  35.65   0
       131    802.9336    815.0788 307.5870275  +6.3641352      54613.4     82847.28     85716.96     86.47466     172.4029      344.395      1.603     3.83     1059.916     60.71125     6802.541        62     1.555     1.108  40.20   0
       132     37.4164    817.3303 307.9049890  +6.3375834     1989.759     3152.656     3095.272     85.78997      172.129     344.3265      1.663     4.06     1074.179     60.71125     263.4618        21     1.402     0.957  26.61   0
       133    259.6543    791.6254 307.8135344  +6.3556562     768661.2      1953331      2157004     85.92735     172.3344      344.258      2.387     5.63     1074.297     60.71125     63639.38       603     2.681     2.117  68.22   4
       134    446.2816    813.8469 307.7352465  +6.3527308     816.2444     1481.622     1313.661     86.33816      172.266     344.4635      2.028     5.57     1069.911     60.71125     118.1805        10     1.193     0.805  55.78   0
       135    928.2244    810.2788 307.5351334  +6.3702924       9270.1     13730.39     14632.69     85.92735     172.0605     344.4293      1.596     3.79     1054.852     60.71125     1222.968        31     1.469     0.939  39.83   0
       136    731.2056    809.6337 307.6170124  +6.3639913     20432.77     33663.51     36602.48     85.65237     172.0605     344.1895      1.747     4.09     1061.688     60.71125     2573.691        42     1.516     1.111  41.01   3
       137    724.9139    806.2219 307.6197415  +6.3651902     85909.89       134448     141650.1     86.33816     171.9919     344.2922      1.695     3.92     1061.708     60.71125     10572.41        82     1.638     1.214  37.53   3
       138    369.8210    807.1405 307.7672395  +6.3529406     18713.14     31343.28     32997.91     85.92735     172.1975     344.2922      1.783     4.15      1072.43     60.71125     2325.059        48     1.615     1.197  42.48   0
       139    431.6547    804.9631 307.7416240  +6.3559098      19872.7     33137.66     35447.74     86.20143      172.266     344.4635      1.795     4.13     1070.196     60.71125     2335.055        47     1.622     1.177  39.16   0
       140    658.2161    806.2454 307.6474520  +6.3629541     747.9252       1428.3     1565.481     85.78997      172.129     344.1895      1.661     4.72     1063.314     60.71125     104.7645         8     1.275     0.495  61.12   0
       141    419.0518    807.0314 307.7467900  +6.3546339     1273.507      1913.95     2109.346     86.20144     172.4029     344.3607      1.599     4.15     1070.828     60.71125     195.2544        12     1.147     0.822  30.41   0
       142    968.6860    803.6063 307.5185468  +6.3743951     2183.803     3080.941      2854.48     85.78997     171.9233     344.1552      1.550     4.13     1054.016     60.71125     302.1041        17     1.261     0.878  45.66   0
       143    925.1307    801.7181 307.5367070  +6.3737246     6949.587     10244.19      11104.6     86.61095     172.5396     344.4635      1.617     3.93     1054.587     60.71125     896.8605        26     1.434     0.912  47.14   0
       144    665.7005    800.8336 307.6445251  +6.3654388     6310.022     9934.806     10772.56     86.33816      172.129     344.6004      1.698     3.78     1062.986     60.71125     765.8979        30     1.459     1.050  41.16   0
       145    454.5256    798.7902 307.7323308  +6.3592242      1603.06     2575.743     2527.766     85.92735     171.8547     344.2922      1.752     4.51      1068.94     60.71125     192.3104        17     1.285     0.893  29.82   0
       146    179.6302    797.4545 307.8465827  +6.3505653     587.5933     802.2713     130.4553     86.20144     172.3344     344.3607      1.384     4.23     1074.199     60.71125     117.9849         7     1.354     0.377  34.83   0
       147    893.2636    792.6090 307.5502542  +6.3764248     793.1373     1049.971     1043.442     85.78997     172.0605     344.2237      1.383     4.19     1055.094     60.71125      122.365         6     0.950     0.527  44.36   0
       148    618.8492    792.8170 307.6642613  +6.3671845     734.6501     1217.809     791.2188     85.78997     172.3344     344.1552      1.766     4.74     1063.604     60.71125     142.6088         7     1.127     0.566  40.46   0
       149    169.7764    791.9429 307.8508634  +6.3525107     1001.753      1672.99     1843.258     85.92735      172.266     344.2237      1.817     5.48     1074.129     60.71125     138.4927        12     1.247     1.072   6.82   0
       150    700.7418    790.8333 307.6303038  +6.3707382      2305.95     3804.349     3688.252     86.20144     172.3344     344.3607      1.753     4.42     1061.521     60.71125     264.7728        20     1.372     0.978  39.44   0
       151    145.5117    791.5683 307.8609568  +6.3518511     1041.716      1845.74     1730.933     86.47466     172.0605     344.3607      2.039     5.93     1074.066     60.71125     131.2462        12     1.328     0.745  40.76   0
       152    434.6212    787.6355 307.7409778  +6.3631644     48038.89     81183.06     85550.27     85.78997     172.0605     344.1552      1.815     4.04     1069.302     60.71125      6151.05        73     1.679     1.291  38.09   0
       153    978.0266    789.2846 307.5151479  +6.3806202     620.4187      907.321     519.1746     86.47466     171.9919     344.2922      1.368     4.36     1053.399     60.71125     95.96399         7     1.116     0.484  46.60   0
       154    741.7831    816.1398 307.6123982  +6.3616575     570.6183     866.3988     910.0421     85.78997     172.1975     344.1552      1.659     3.49     1061.602     60.71125     95.44897         5     1.039     0.339  44.54   0
       155    552.3648    786.5900 307.6920942  +6.3675343     6459.604     10839.49     11370.04     85.78997     171.9919     344.1895      1.799     4.06     1065.538     60.71125     729.6323        37     1.512     1.278  34.10   0
       156     86.5766    789.1580 307.8855228  +6.3508678     614.2329      1170.94     2005.212     85.92735      172.129     344.1895      2.540     5.71     1073.768     60.71125     87.30273         8     1.353     0.679  18.87   0
       157    469.1917    785.3912 307.7266908  +6.3652479     4017.403     6794.071      7789.25     85.65237     172.0605     344.2922      1.836     4.29     1067.887     60.71125     472.0535        28     1.554     1.073  40.96   0
       158    797.5446    783.2457 307.5903397  +6.3771011     11657.72     17771.17     18299.62     86.33816      172.266     344.4293      1.671     3.94     1058.688     60.71125     1457.897        36     1.481     1.060  38.92   0
       159    465.7213    778.5524 307.7283640  +6.3679558      2069.49     3745.204     4437.574     86.33816     172.3344     344.3607      2.017     5.29     1067.806     60.71125     253.2802        22     1.622     0.920  43.95   1
       160     26.7043    779.1830 307.9107350  +6.3529756     1072.809      1982.46     1904.331     86.20144     172.0605      344.258      1.834     5.42     1073.577     60.71125     209.7705        17     1.610     0.930  35.87   0
       161    819.2941    777.3151 307.5815030  +6.3802753     1281.353     1812.835     1572.398     86.20144     172.6763     344.5662      1.534     5.33     1057.423     60.71125     163.1023        11     1.142     0.704  46.68   0
       162    163.7086    775.7310 307.8539342  +6.3590015     2739.201     4583.273     4935.236     86.33816     172.4029     344.4293      1.865     4.31     1073.906     60.71125     327.3784        25     1.461     1.039  41.60   0
       163    155.3975    775.2866 307.8574022  +6.3589061     10540.31     17687.96     19212.03     85.65237     171.8547     344.1209      1.813     4.00     1073.868     60.71125     1265.434        40     1.571     1.167  38.02   3
       164    147.7389    772.7182 307.8606711  +6.3597096     2818.586     4839.833     4959.394     86.47466      172.266     344.4293      1.820     4.14     1073.798     60.71125     366.0565        25     1.493     1.063  46.68   3
       165    992.3222    771.7878 307.5097970  +6.3883214     1461.798     2196.501      2289.94     85.92735     171.8547      344.258      1.588     5.61     1052.582     60.71125     213.4761        13     1.310     0.678  47.30   0
       166    943.0904    771.7492 307.5302540  +6.3866984     6870.427     10376.79     10783.24     86.33816     172.0605     344.6004      1.611     3.90      1053.29     60.71125     898.5609        30     1.476     0.938  34.91   0
       167    698.5383    769.4417 307.6319412  +6.3794983      1528.36     2173.666     2246.838     86.33816      172.266      344.532      1.624     4.46      1060.22     60.71125     185.5022        15     1.304     0.868  30.72   0
       168    585.5161    768.6321 307.6789274  +6.3760579     2113.025     3462.552     3521.248     86.33816     172.0605     344.3607      1.788     4.50     1063.327     60.71125      248.448        19     1.378     0.914  43.72   0
       169    433.4622    768.3048 307.7421134  +6.3711080     1068.982     1986.129     2348.772      86.0645     172.3344     344.4635      2.036     6.79     1068.397     60.71125     139.4111        16     1.351     1.064  26.92   0
       170    147.7771    766.0974 307.8608799  +6.3624448     1787.417     2801.392     3210.292     86.33816     171.9919     344.2237      1.931     4.33     1073.696     60.71125     257.5269        19     1.456     0.844  38.72   0
       171    937.2573    763.7584 307.5329467  +6.3898040     3140.208     4645.457     4802.208     86.20144      172.266     344.4635      1.563     4.14      1053.11     60.71125     454.0214        22     1.383     0.877  45.42   0
       172    689.7177    763.0900 307.6358204  +6.3818268       1373.2     2248.598     2540.975      86.0645     172.5396     344.4977      1.746     5.02     1060.114     60.71125     187.9189        15     1.368     0.823  58.67   0
       173    997.6348    762.9777 307.5078861  +6.3921364     1957.808     2596.964     2728.491     85.78997     171.9919     344.1552      1.520     4.26     1052.156     60.71125     295.8986        16     1.374     0.709  45.54   0
       174    966.6781    763.2962 307.5207379  +6.3909745     3158.361     4630.952     4629.627      86.0645     172.5396     344.4977      1.555     3.87     1052.624     60.71125      428.759        20     1.421     0.814  33.12   0
       175    837.0251    761.1331 307.5746813  +6.3875488     1000.389     1535.214     2109.529     85.92735      172.129     344.3265      1.651     4.73     1055.856     60.71125      167.915        10     1.151     0.734  72.04   0
       176    261.9117    757.9813 307.8137369  +6.3696247     1661.579     3548.097     5774.302      86.0645     171.9919     344.3265      4.519     6.79     1073.237     60.71125     190.4722        31     1.847     1.293  35.46   2
       177    250.7364    759.2513 307.8183368  +6.3687256      614.322     1251.766     2167.328     86.33816     172.1975      344.395      2.147     3.81     1073.265     60.71125     81.48682         5     0.917     0.455 -44.73   0
       178    954.7679    753.1896 307.5260268  +6.3947515     953.2687     1581.062     1356.047     85.78997     171.9919      344.258      1.575     5.32     1052.459     60.71125       161.03        10     1.328     0.601  51.51   0
       179    928.6127    752.2288 307.5369267  +6.3942774     1256.584     1824.438     1659.048     85.78997     172.0605     344.3265      1.555     4.01     1052.837     60.71125      187.944        12     1.248     0.735  33.83   0
       180    282.6930    753.8196 307.8052440  +6.3720399     691.0366     936.6367     1285.357     86.20144     172.0605      344.258      1.304     3.49     1073.096     60.71125      121.531         5     1.125     0.313 -11.92   0
       181    981.8410    751.1154 307.5148476  +6.3965093     2596.352     3725.808     4056.348     86.33816     172.1975      344.395      1.526     3.79      1051.96     60.71125     362.6003        18     1.391     0.752  45.38   0
       182    701.4283    750.5510 307.6313780  +6.3873957     920.8051     1520.131     2054.505     85.92735     172.3344     344.3265      1.869     7.00     1059.053     60.71125     126.0765        14     1.545     0.889  38.20   0
       183    912.2352    759.0757 307.5435010  +6.3909044     761.5054     1309.868     1609.334     86.20144     172.3344     344.4293      1.857     6.42     1053.481     60.71125     122.0034        12     1.519     0.762  50.32   0
       184   1023.0325    744.0618 307.4979696  +6.4007929     1652.302      2023.07      2205.25     82.56731     146.9162     270.2462      1.249     3.99     1051.031     60.71125     255.1331        12     1.042     0.784  54.44  24
       185    824.6716    743.1387 307.5804207  +6.3945678     1143.516     1743.706     2130.447     86.47466      172.266     344.4977      1.734     5.37     1055.466     60.71125     165.1724        13     1.416     0.691  62.58   0
       186    649.9252    743.9303 307.6530006  +6.3884101     651.6422     833.3251     1176.624     86.47466     172.4029     344.4293      1.669     3.64     1059.919     60.71125     118.5852         5     0.969     0.393  44.84   0
       187    911.1060    739.9977 307.5446128  +6.3987451     1435.077     2346.707     2828.814     85.92735     171.9233     344.0866      1.764     6.14     1052.874     60.71125     194.1138        16     1.642     0.721  48.56   0
       188    885.6934    735.9410 307.5553085  +6.3995738     905.5534     1361.602      1845.97     86.20144      172.266     344.5662      1.709     5.35     1053.328     60.71125     114.9216        10     1.318     0.613  45.82   0
       189    868.0117    731.9062 307.5627913  +6.4006508      1360.37     1930.541     2314.654      86.0645     171.9233     344.2237      1.572     5.27     1053.615     60.71125     188.0547        14     1.310     0.808  34.74   0
       190     67.2545    730.7629 307.8955330  +6.3743319       2071.3     3791.808      4175.19     86.20144      172.266     344.4635      1.959     4.38     1072.839     60.71125     310.8726        21     1.442     0.932  51.39   0
       191    130.8160    729.0642 307.8691833  +6.3771677     717.5823     1448.308     1653.467     85.78997      172.129     344.2922      2.450     5.99     1072.946     60.71125     129.8738        12     1.900     0.532  77.66   0
       192    679.6282    719.1646 307.6414953  +6.3996289     5627.213      9420.63     9773.239     85.92735     171.9919     344.2237      1.782     4.26     1057.893     60.71125     680.1074        32     1.556     1.090  39.48   0
       193    626.5246    718.3504 307.6635874  +6.3981917     1272.226     2133.632     2813.647     86.20144     172.3344     344.4293      2.237     4.58     1059.307     60.71125     170.3988        14     1.386     0.670  29.63   0
       194    653.5535    714.9852 307.6524705  +6.4004841     1994.859     3141.601     3155.099     85.65237     172.0605     344.1552      1.734     4.17     1058.436     60.71125     252.9772        22     1.369     1.067  42.04   0
       195    142.7293    715.0795 307.8647084  +6.3833423     3188.026     5477.087     5405.635     86.61095     172.5396      344.395      1.792     4.52      1072.53     60.71125     407.1622        32     1.604     1.184  42.87   0
       196   1016.6351    714.3615 307.5016271  +6.4128450      2750.24     4000.786     4381.834      86.0645      172.129     343.9838      1.554     4.18     1049.157     60.71125     366.7675        15     1.261     0.744  38.94  16
       197    796.5481    711.2281 307.5931821  +6.4068076     19456.54     30397.32     31913.44     85.92735     172.4029     344.3265      1.701     3.94     1054.959     60.71125     2386.975        45     1.569     1.092  40.17   0
       198    524.6873    711.9651 307.7061164  +6.3974249     725.3272     1130.672     1297.096     86.33816      172.129     344.4293      1.881     5.34      1063.25     60.71125     100.5034         9     1.152     0.698  69.05   0
       199    926.5284    710.9518 307.5391828  +6.4112534     3868.366     5595.575     5749.541     86.33816     172.3344     344.4635      1.605     4.06     1051.163     60.71125     510.9287        21     1.344     0.861  42.45   0
       200    495.5332    711.3300 307.7182513  +6.3967121     1090.221     1958.887     1368.611     86.33816     172.3344     344.4293      1.836     5.61     1064.144     60.71125     135.6532        14     1.370     0.867  36.69   0
       201    986.0118    707.9978 307.5145658  +6.4144538     499.1458     746.4509     727.8159     85.92735     171.9233     344.1895      1.375     3.70     1049.506     60.71125     75.85217         5     1.026     0.383  57.20   0
       202    270.1355    704.8992 307.8121193  +6.3918199     5238.906     9451.467     9555.621     86.33816     172.3344     344.4635      1.916     4.66     1071.205     60.71125     659.9147        37     1.650     1.208  45.46   0
       203    677.1017    704.0733 307.6430545  +6.4057765     6286.127     10538.25     10589.07     85.92735     172.4029      344.395      1.763     3.96     1057.167     60.71125     762.9025        33     1.491     1.119  32.70   0
       204    658.7158    704.4304 307.6506819  +6.4050151     655.7769     1080.018     1190.998     86.33816     172.0605     344.2922      1.909     4.95     1057.769     60.71125     91.04028         7     1.438     0.482  50.50   0
       205    936.9928    696.5097 307.5353210  +6.4175659      1229.75     1840.959     1905.833     85.92735     171.9233     344.1895      1.658     4.07     1050.208     60.71125     166.1222        12     1.122     0.733  39.17   0
       206    748.7565    692.4525 307.6136734  +6.4129668     3453.669     5872.277     6896.006     86.33816      172.266     344.4293      1.847     4.47      1054.68     60.71125     402.1406        29     1.554     1.097  42.14   0
       207    703.9557    692.9230 307.6322728  +6.4112775     992.9513     1553.444     1489.677     86.20144     172.3344     344.4635      1.712     4.83     1055.796     60.71125     141.2017         9     1.002     0.658  78.42   0
       208   1015.1415    688.9760 307.5031019  +6.4232784     9222.509     13351.14     13864.72     85.92735      172.266     344.2922      1.515     3.78     1047.371     60.71125     1233.307        29     1.395     0.936  40.92  16
       209    953.6158    689.4683 307.5286508  +6.4210272     2426.181     2730.522     1834.746     85.78997     172.1975     344.3265      1.099     4.10     1049.276     60.71125     347.4004        18     1.422     0.771  47.32   0
       210     34.2922    689.2536 307.9106377  +6.3903649     1784.833      3323.64     3522.538     86.20144     172.1975     344.6004      1.917     6.16     1072.715     60.71125     199.7778        21     1.455     1.106  30.37   0
       211    554.0116    684.9377 307.6948458  +6.4095661     1873.356      2990.95     2928.361     85.78997     172.0605     344.2237      1.732     4.82      1060.68     60.71125     235.8948        21     1.428     1.009  57.42   0
       212     92.5284    684.0114 307.8866202  +6.3944858     22756.26     39299.93     41771.47     85.78997     171.8547     344.2237      1.845     4.10     1072.713     60.71125      2651.41        59     1.686     1.292  42.02   0
       213    522.6844    682.5726 307.7079424  +6.4094954     1214.748     2183.143     2218.436     86.47466     171.9919     344.2922      1.957     4.93      1061.53     60.71125     188.5635        16     1.310     1.054   4.17   0
       214    943.3949    681.0189 307.5331823  +6.4241761     1050.154      1506.32     1401.117     85.92735     171.8547     344.2237      1.534     4.62     1049.205     60.71125     155.7371        11     1.239     0.673  19.68   0
       215    562.5878    678.8318 307.6914887  +6.4123742     811.2039     1663.108     1409.848     85.78997     171.9919     344.3265      2.004     6.77     1060.119     60.71125     105.2679        10     1.310     0.982  74.40   0
       216    738.4424    676.1641 307.6185086  +6.4193490     3223.589     5068.606     5109.477      86.0645      172.266      344.258      1.690     4.37     1054.007     60.71125     379.4862        23     1.434     0.937  33.68   0
       217    760.4978    674.4808 307.6094009  +6.4207799      3857.13     6187.142     6467.978     86.20144      172.608     344.4977      1.739     4.05     1053.737     60.71125     419.4182        27     1.503     1.003  44.67   0
       218    591.9719    672.2415 307.6795020  +6.4160777     2785.062     5017.632     5195.229     85.92735     172.1975      344.258      1.912     4.83     1059.149     60.71125     336.6421        28     1.636     1.077  49.09   0
       219    428.1307    672.8853 307.7475577  +6.4103323     1169.873     2253.814     2323.193     86.47466     172.5396     344.4635      1.920     6.02      1063.91     60.71125     149.5381        18     1.545     1.012  75.97   0
       220    252.6745    671.8040 307.8204960  +6.4049007     1448.996     2628.876     2079.272     85.92735     171.7174     344.3265      1.858     4.82     1069.873     60.71125     202.2097        17     1.371     0.974  32.95   0
       221    336.4427    671.4832 307.7857016  +6.4078408     1255.239     1942.113     2100.684     86.33816      172.266     344.3607      1.669     5.72     1067.281     60.71125     162.7858        17     1.340     1.022  38.55   0
       222    998.7079    669.3295 307.5105916  +6.4308446     8536.932      12473.3      13006.5     86.33816     172.4029     344.4635      1.597     3.89     1046.572     60.71125     1141.179        28     1.454     0.898  39.67   0
       223    719.4947    669.6144 307.6266028  +6.4214214     760.3914     1347.726     1302.105      86.0645     171.9919      344.258      1.863     3.64     1054.294     60.71125     108.2235         6     0.913     0.680 -23.96   2
       224    157.2753    662.9038 307.8604354  +6.4053756     20516.36     36416.56     38645.06     85.92735     172.4029     344.4635      1.894     4.17     1070.537     60.71125     2617.546        54     1.692     1.278  43.42   0
       225    825.3718    663.2915 307.5828215  +6.4275642     1103.455      1923.32     1913.154     86.47466     171.9919     344.2922      1.823     6.25     1052.352     60.71125     134.7114        14     1.539     0.712  53.31   0
       226    444.0845    663.7267 307.7412387  +6.4146482     2528.745      4382.32     5010.153     86.47466      172.608     344.4635      1.888     4.93     1063.149     60.71125     309.3468        25     1.432     1.085  17.83   0
       227    110.0897    665.2625 307.8799603  +6.4028176     693.3062     1052.579     1681.457     86.33816     172.4029     344.4977      1.611     4.23     1071.923     60.71125     125.8771         7     1.284     0.398  25.92   0
       228    993.6621    652.3712 307.5132591  +6.4376797     7223.657     11268.41      12188.9      86.0645      172.266      344.395      1.713     4.38     1045.915     60.71125     940.9795        31     1.593     0.937  39.31   0
       229     38.7627    651.8621 307.9100506  +6.4059550     1042.943     1692.817     1247.297     86.33816     172.3344     344.4293      1.686     6.21      1072.24     60.71125     127.1289        13     1.373     0.948  49.70   0
       230    587.2488    647.6857 307.6822943  +6.4260601     40917.96      71353.9     75365.86     86.33816     172.1975     344.4635      1.871     4.25     1058.284     60.71125      4787.44        73     1.705     1.327  38.34   0
       231    951.4529    649.2459 307.5309039  +6.4375651     628.6504     762.1931     854.0665     86.33816      172.266     344.4977      1.518     3.63     1047.528     60.71125     112.9536         5     1.105     0.442  35.37   0
       232    546.9722    648.0188 307.6990188  +6.4245763     696.2468     1329.081     1265.886     85.92735     172.0605     344.3265      1.913     5.00     1059.602     60.71125     104.5659         6     1.135     0.673  61.80   0
       233    230.6831    648.5253 307.8304227  +6.4137758     669.9654     1326.779     1889.819     86.47466      172.608     344.4977      1.734     3.43     1068.928     60.71125     126.0569         5     0.773     0.439  21.93   0
       234    194.8036    644.2651 307.8454750  +6.4143315     2335.111     4150.287         4580     85.51456     171.9919     344.1895      1.828     4.38     1069.389     60.71125     313.9021        28     1.396     1.281  25.69   0
       235    999.0021    644.8301 307.5112939  +6.4409716     703.3512     898.4061     1539.305     85.78997     172.0605     344.2237      1.295     3.86     1045.359     60.71125     105.3027         6     0.943     0.454  37.73   0
       236     87.9314    638.7500 307.8900670  +6.4130212     1270.878     2035.236     2272.784     86.20144     172.1975     344.4293      1.761     6.57     1071.193     60.71125     159.6382        15     1.329     0.910  18.63   0
       237    484.4914    631.4843 307.7255400  +6.4293145     52709.03     94348.33     99920.47      86.0645      172.608      344.532      1.904     4.35     1061.087     60.71125     6331.414        75     1.741     1.363  39.46   0
       238     28.0940    632.9703 307.9151252  +6.4133975     1380.652     2358.268      2812.72     86.47466     171.9919     344.3265      1.840     5.71      1072.05     60.71125     184.2163        16     1.334     1.033  31.69   0
       239    670.4254    628.5945 307.6483771  +6.4367223     764.2355      1391.64     942.7776     85.78997     172.0605      344.258      1.883     4.01     1054.422     60.71125     112.1295         7     1.063     0.576  43.38   0
       240    158.9277    626.4638 307.8609855  +6.4204783     1489.081     2707.686     2135.838     86.33816      172.266     344.4635      1.916     5.07     1069.798     60.71125     223.5488        18     1.410     1.024  40.28   0
       241    438.9918    624.4371 307.7446844  +6.4307020     722.1197     1294.532     1639.581     85.51456     171.9919     344.1552      2.115     6.33     1062.115     60.71125       90.271         8     1.150     0.980  18.64   0
       242    630.7189    622.9716 307.6650663  +6.4377181     784.6737     1338.463     1395.589     86.20144     172.0605      344.395      1.680     5.01     1055.554     60.71125     105.3094         7     1.217     0.583 -67.97   0
       243    330.0279    621.0038 307.7900771  +6.4284707     1665.351     3234.969     3276.604     85.78997     172.0605      344.258      2.007     5.26     1065.039     60.71125     237.6848        21     1.393     1.128  68.44   0
       244     31.8758    622.4124 307.9139127  +6.4178842     588.3385     997.6512      1579.59     85.92735     171.9233     344.2237      1.791     5.17     1071.782     60.71125     99.08606         5     1.018     0.742  32.71   2
       245     29.4923    621.0061 307.9149508  +6.4183848     574.1426     943.0469     1157.968     85.92735     171.9233     344.2237      1.578     3.74     1071.837     60.71125      89.5769         6     0.771     0.635 -30.84   2
       246     37.6183    620.5717 307.9115893  +6.4188372     435.3877     693.8268     855.5557     85.92735     172.0605     344.3607      1.838     4.29     1071.619     60.71125     74.23657         5     0.993     0.527 -43.35   0
       247    482.0789    619.7242 307.7269403  +6.4340900     853.0063     1253.077     1667.094     86.61095     172.5396      344.532      1.441     3.91     1060.862     60.71125     116.4238         6     0.917     0.478 -32.82   0
       248    756.4377    614.9755 307.6130955  +6.4452172     4649.254      7731.04     7445.059     85.92735     172.0605     344.2237      1.759     3.79     1052.528     60.71125     605.4388        33     1.538     1.128  45.16   0
       249    810.0027    610.2020 307.5909979  +6.4489751     12733.99     21039.01     21682.82     85.65237      171.786     344.1552      1.752     4.17     1050.918     60.71125      1503.79        39     1.572     1.102  39.67   0
       250    552.2114    609.9567 307.6981285  +6.4404689      990.259      1908.25     2192.479     85.78997     172.0605     344.1209      2.257     5.76     1058.495     60.71125     135.0342        13     1.193     0.971  34.32   0
       251    634.0258    608.4064 307.6641842  +6.4438433     2441.631      4450.66     3979.312     85.78997      172.129     344.2237      1.868     4.82      1054.84     60.71125     253.7278        26     1.543     1.067  40.79   0
       252    950.8850    604.4758 307.5326474  +6.4560342     1130.196     1823.335     2358.252     86.47466      172.608     344.4977      1.974     5.42     1045.697     60.71125     137.2999        11     1.064     0.779  61.13   0
       253    392.2951    601.7098 307.7648573  +6.4385237     729.4398     1489.636     1105.854     86.33816     172.8129     344.4635      1.951     6.27     1062.535     60.71125     102.0443         9     1.267     0.871  79.16   0
       254    246.3684    601.9228 307.8254856  +6.4335456     1091.586     2172.223     2907.939     86.20143      172.266      344.395      2.526     5.70     1066.517     60.71125     138.4542        14     1.187     1.002  89.96   0
       255    886.0745    593.5609 307.5599473  +6.4583828     2731.125     4247.203     4420.291     86.20144      172.266     344.4977      1.685     4.02     1047.862     60.71125      316.012        22     1.349     0.997  46.65   0
       256    181.4565    592.8918 307.8527638  +6.4350973     651.3567     1311.885     2386.381     86.20144     172.1975     344.5662      3.609     6.85     1068.158     60.71125     103.6093         8     1.387     0.949  31.08   0
       257    844.7820    591.0131 307.5771924  +6.4580587     2257.061     3808.796      4043.86      86.0645     171.9233     344.3265      1.807     4.59     1049.036     60.71125     315.6593        19     1.437     0.902  41.31   0
       258    815.8502    586.9639 307.5893516  +6.4587663     2361.729     4006.475     5116.278     86.20144     172.1975     344.3607      1.946     4.40     1049.693     60.71125     279.2606        23     1.485     0.972  46.66   0
       259    825.4444    582.1045 307.5855286  +6.4610929     144299.8     235560.2       247454     86.33816     172.1975     344.5662      1.768     4.02       1049.2     60.71125     16874.89       112     1.701     1.314  42.05   0
       260    272.9509    585.9553 307.8149815  +6.4410305     6242.123     11574.82     11953.13     86.33816      172.129     344.4293      1.947     4.63     1065.158     60.71125     794.5444        39     1.715     1.219  39.76   0
       261    759.0394    587.0641 307.6129561  +6.4568300     553.3672     1117.954     1761.652     86.33816     172.1975     344.4635      2.513     3.73     1051.233     60.71125     89.00012         5     1.027     0.390  31.79   0
       262    207.1296    580.5097 307.8425163  +6.4410717      47349.2      87518.1     93953.15     86.20144     172.5396     344.4293      1.966     4.43     1066.612     60.71125     6048.679        80     1.782     1.415  41.65   0
       263    131.1558    576.6700 307.8742150  +6.4401074     4887.503     9042.271     9626.836     86.33816      172.266     344.4293      1.963     4.67     1068.736     60.71125     618.0483        34     1.576     1.223  39.46   0
       264   1017.0282    572.4472 307.5062391  +6.4714623     599.3065     680.4377      692.718     85.92735     172.3344     342.5751      1.569     4.61     1041.128     60.71125     90.60498         7     0.952     0.632  57.66  16
       265    245.9547    571.6362 307.8266846  +6.4460382      624.062     1116.285     1444.488      86.0645     172.1975     344.3607      1.949     4.54     1064.981     60.71125     98.79944         6     0.846     0.691 -25.81   0
       266    861.9871    569.4094 307.5707709  +6.4675535      4070.82     6637.854     6838.651      86.0645     171.9919     344.3265      1.715     4.06     1047.517     60.71125     519.1714        28     1.534     0.986  46.62   0
       267    380.4941    567.6214 307.7709154  +6.4522050     13551.16     25460.06     26906.99     86.20144     172.0605      344.258      1.976     4.57     1061.815     60.71125     1631.995        57     1.722     1.395  42.09   0
       268    182.0578    566.7106 307.8534023  +6.4459285     1500.816     3234.347     4947.229     86.20144     172.1975     344.5662      3.139     6.00      1067.09     60.71125     172.6759        25     1.456     1.281  13.35   0
       269    546.8559    562.4145 307.7019613  +6.4599222     5197.113     9559.978     10109.54     85.65237      172.129     344.1209      1.912     4.45     1056.292     60.71125     689.7396        35     1.598     1.208  38.70   0
       270    257.9108    564.0924 307.8219722  +6.4495542     811.8594     1353.305     662.7745     86.33816     172.8129     344.4977      1.809     6.32     1064.316     60.71125     103.4333        10     1.138     0.986  23.05   0
       271    815.9626    562.7170 307.5901225  +6.4687828     5315.938     8578.663     9294.834     86.33816     172.1975      344.395      1.740     3.98     1048.585     60.71125     674.7345        29     1.462     1.049  46.50   0
       272    996.6738    574.0132 307.5146450  +6.4701382     1256.188     1756.315     1233.237     85.78997     171.9233     344.2237      1.542     5.67     1042.191     60.71125     155.2819        13     1.174     0.792  22.08   0
       273    405.0709    559.0430 307.7609932  +6.4565703     1128.854     2173.857     1408.243     86.20144      172.266     344.4635      2.011     7.38     1061.156     60.71125     134.9242        17     1.448     1.054  35.82   0
       274    193.9916    555.7108 307.8488168  +6.4508712     5226.855     10189.22     11532.73     85.78997     171.9233     344.1209      2.063     4.60     1066.086     60.71125     682.2969        42     1.628     1.436  32.07   0
       275    591.6108    555.6638 307.6835916  +6.4642059     1955.746     3813.877     4338.405     85.78997     172.0605     344.2922      2.086     4.99     1054.583     60.71125     258.4664        25     1.433     1.220  14.84   0
       276     65.6896    554.4045 307.9021734  +6.4471027         4276     7580.139      8108.64     85.78997     171.9233     344.1209      1.925     4.40     1069.382     60.71125     576.2145        33     1.662     1.136  53.22   0
       277    832.8394    554.9287 307.5833718  +6.4725617     1376.363     2072.321     2276.573     86.20144      172.266     344.4977      1.774     4.37     1047.716     60.71125     183.3397        17     1.337     0.928  45.50   0
       278    289.1067    552.1405 307.8094146  +6.4555355     67610.72     128764.9       137672     86.20144     172.1975      344.532      2.004     4.49     1063.013     60.71125     8262.271        87     1.797     1.464  41.60   0
       279    578.4429    549.3859 307.6892757  +6.4663582     870.0569     1250.776     1710.135     85.51456     171.9919     344.1552      1.834     5.78     1054.736     60.71125     105.8245         9     1.047     0.900  70.58   0
       280    273.1158    547.0672 307.8162313  +6.4570943     1135.559     2204.341     2754.186     86.61095     172.5396     344.4635      2.347     4.47     1063.101     60.71125     145.7892        14     1.348     0.919  -3.80   0
       281    812.1967    544.4632 307.5923031  +6.4761951     14422.93     23799.09     25166.43     85.65237     171.9919     344.1895      1.775     4.12     1047.837     60.71125     1710.174        47     1.619     1.152  42.02   0
       282    515.8598    542.9433 307.7155002  +6.4669261     33016.84     63715.02     69928.27     86.47466      172.266     344.4635      2.072     4.70     1056.175     60.71125     3690.509        80     1.886     1.472  30.92   0
       283    988.4476    545.5773 307.5190208  +6.4816072     1503.284     2021.251     1939.076     85.92735      172.266     344.2922      1.600     4.97     1041.472     60.71125     198.8511        16     1.388     0.761  38.05   0
       284    228.3021    539.4505 307.8351113  +6.4587367     1411.245     2936.775     3435.738     86.20144     172.1975     344.6004      2.304     5.28     1063.688     60.71125     196.9272        23     1.434     1.308  73.91   0
       285     64.3965    539.6797 307.9032110  +6.4531395     970.9714     1596.048     1324.644     85.65237     171.7174     344.1552      1.809     7.12     1069.052     60.71125     133.4742        13     1.529     0.929  31.79   0
       286    686.1313    537.9221 307.6449122  +6.4746897     1103.512     2094.039     1564.254     86.47466     172.4713     344.4293      1.877     6.29     1051.727     60.71125     166.7297        18     1.511     0.972  37.11   0
       287    675.5579    537.7541 307.6493118  +6.4744061     2382.891     4199.063     3652.656     86.20144      172.266      344.258      1.882     4.46     1052.164     60.71125     348.2632        25     1.514     1.055  38.97   0
       288    737.9087    536.9512 307.6234281  +6.4768190     1131.658     1985.177     1874.404     86.33816      172.129     344.6004      1.858     4.96     1049.453     60.71125     165.8252        14     1.312     0.988  63.48   0
       289    413.5263    533.5158 307.7583439  +6.4673946      1431.99     2700.146     2498.344     86.47466      172.608     344.4635      1.975     6.57     1059.793     60.71125      157.667        19     1.428     1.040  57.15   0
       290    345.0044    531.8199 307.7868755  +6.4657999     2904.146      5550.76     5699.518     85.92735     171.9233     344.2237      2.026     4.88     1060.689     60.71125     358.7225        29     1.496     1.265  25.08   0
       291     94.0052    534.3208 307.8910899  +6.4563470     627.5684     1382.066     1401.366     85.92735     171.7174     344.1895      2.542     4.54     1068.248     60.71125      115.683         5     1.242     0.471  28.73   0
       292    160.2714    530.5506 307.8636823  +6.4601289     21033.29     38727.41     41318.73     86.33816      172.266     344.4635      1.966     4.44     1066.343     60.71125     2551.942        57     1.734     1.350  41.53   0
       293    887.9935    530.4622 307.5612761  +6.4845034     1470.159     2537.415     2808.736     85.65237     172.0605     344.1895      1.865     5.24     1045.027     60.71125     181.0626        20     1.519     0.946  40.07   0
       294    525.0782    531.1772 307.7120674  +6.4720932     1719.684     3093.771     3361.483     85.92735     172.0605      344.395      1.963     4.90     1055.175     60.71125      199.985        22     1.473     1.080  21.43   0
       295    125.4529    528.8263 307.8782090  +6.4596720     2124.458     4009.136     4166.608     85.92735     172.4029     344.3265      1.978     5.08     1067.185     60.71125     285.0975        23     1.363     1.156  15.08   0
       296      5.5919    528.6901 307.9280190  +6.4557011     1709.848     2874.592      2667.83     85.92735     171.9233     322.0971      1.797     4.80     1069.901     60.71125     198.2933        20     1.368     1.070  55.75  16
       297    985.7280    525.0000 307.5208438  +6.4900141     4927.319     7618.113     7228.045     85.51456     171.7174      344.258      1.659     4.08     1040.516     60.71125     606.2496        30     1.492     1.022  37.67   0
       298    362.4153    526.9620 307.7798050  +6.4683892     702.5132     1235.398     1260.671      86.0645     172.0605     344.1552      1.887     3.26     1060.002     60.71125     132.8546         6     0.810     0.640  49.64   0
       299     24.5438    514.9225 307.9206120  +6.4620232     21492.18     38531.84     41013.67     86.33816      172.266      344.395      1.915     4.34     1069.169     60.71125     2645.829        57     1.739     1.312  46.45   0
       300    558.6501    516.9968 307.6985957  +6.4790714     1007.921     2043.798      1759.01     85.65237     171.9919     343.9838      2.105     5.66     1053.492     60.71125     159.6235        15     1.292     1.149  69.58   0
       301    665.1826    511.2529 307.6545184  +6.4850032      9859.23     17507.54     18675.87     85.78997     172.3344     344.1209      1.880     4.33     1050.505     60.71125     1097.408        45     1.664     1.236  37.85   0
       302    457.1718    511.6292 307.7409477  +6.4778935     32887.46     62690.29     67168.21     85.78997     171.9919     344.1552      2.008     4.51     1055.985     60.71125     3788.981        65     1.752     1.402  41.28   0
       303      7.0873    509.1167 307.9280630  +6.4638337     161267.5     288248.9     305947.4      86.0645     172.4713     336.9163      1.913     4.34     1069.516     60.71125     20711.48       116     1.783     1.430  44.27  24
       304    305.5335    512.5057 307.8039320  +6.4724528     786.9546     1130.058     1176.775     86.33816     172.4713     344.4293      1.544     4.55     1060.113     60.71125     120.3025         7     0.907     0.653 -65.88   0
       305    222.4031    509.2592 307.8385866  +6.4710058      14896.2     29339.38     31762.73     85.65237     172.0605     344.1552      2.069     4.83     1062.334     60.71125     1793.666        57     1.834     1.399  42.60   0
       306    188.0841    510.4125 307.8528085  +6.4693780      1263.87     2253.648     2382.957     85.92735      172.129      344.258      1.879     4.93     1063.781     60.71125     162.2677        19     1.252     1.121  60.82   0
       307    999.0601    509.7605 307.5158162  +6.4967511     1076.571     1689.607     1911.549     86.33816      172.266     344.4977      1.643     5.58     1039.109     60.71125     139.0649        12     1.319     0.720  47.45   0
       308    839.1450    509.6473 307.5822780  +6.4914709     712.0024      1218.43     656.4661     86.33816      172.266     344.4977      1.640     4.83     1045.923     60.71125     106.2356         8     1.234     0.536  22.77   0
       309    927.5777    508.8127 307.5455552  +6.4947624     705.7475     1022.674     892.5471      86.0645     172.0605     344.3265      1.636     4.71     1042.594     60.71125     115.1877         6     1.360     0.462  48.76   0
       310    587.1362    508.0717 307.6870596  +6.4837092      2390.51     4203.604     4704.995     86.33816      172.266     344.4635      1.923     4.52     1052.084     60.71125     279.1042        27     1.529     1.094  38.11   0
       311    960.8472    505.0750 307.5318547  +6.4974139     4381.079     6980.996     7022.508     86.20144     172.3344     344.4293      1.648     4.04     1040.756     60.71125     585.8756        30     1.500     1.117  33.65   0
       312    634.0380    503.6835 307.6677169  +6.4870886     5297.363     9534.806     9965.921     86.33816     172.1975     344.3607      1.927     4.60     1050.627     60.71125     638.1444        34     1.555     1.216  38.41   0
       313    122.3915    504.0879 307.8803211  +6.4697844     837.6485     1631.193     1485.026     85.92735     171.9233     344.1895      2.021     4.78     1065.927     60.71125     96.27881         9     1.145     0.567  28.51   0
       314    983.4453    497.4270 307.5227208  +6.5013245      3523.09      5182.63     5226.918     85.78997     172.3344     344.3265      1.584     4.16     1039.251     60.71125      501.879        22     1.472     0.832  41.78   0
       315    546.2358    494.9396 307.7045005  +6.4877647     5764.496     10883.56      11344.1     86.33816      172.266      344.395      1.965     4.68     1052.675     60.71125     644.7367        41     1.650     1.304  34.70   0
       316    392.1336    494.8867 307.7685418  +6.4826298     2083.042     3969.419     3645.862     86.33816     172.4713     344.4635      1.943     4.55     1057.041     60.71125      277.631        27     1.510     1.205  18.65   0
       317    902.6215    490.6809 307.5565375  +6.5014186     3061.376     4859.587     5822.204      86.0645     171.9233     344.3607      1.749     4.04     1042.872     60.71125     415.9847        22     1.454     0.907  39.69   0
       318    910.0607    485.0949 307.5536341  +6.5039732     2056.455     3237.974     3701.706     86.20144      172.266      344.532      1.758     4.39     1042.288     60.71125     276.1508        19     1.352     0.987  38.88   0
       319    949.2282    484.1631 307.5373878  +6.5056626      1082.51     1807.824     1632.838     85.78997     171.9919     344.2237      1.750     4.34     1040.319     60.71125     147.4164        13     1.244     0.812  28.62   0
       320    734.1398    481.1753 307.6268769  +6.4997258     2359.108     3921.107     3697.838     85.92735      172.266     344.2922      1.767     4.34     1048.188     60.71125     298.1188        24     1.457     1.062  38.58   0
       321     95.7773    480.1597 307.8921930  +6.4787712     1429.136     2807.712     2699.989     85.92735     172.0605     344.1895      1.994     5.89     1065.816     60.71125     214.1593        20     1.414     1.109  42.06   0
       322    444.5320    480.4106 307.7472570  +6.4903618      643.164      1503.37     1964.498     85.78997     172.0605      344.258      2.488     4.13     1054.093     60.71125     89.71423         5     0.979     0.498 -87.57   0
       323    405.0429    479.4321 307.7637006  +6.4894438     2855.689     5209.743     5483.294     85.78997     172.1975     344.2237      1.935     4.81     1055.582     60.71125     327.6581        31     1.590     1.195  33.23   0
       324    632.6957    475.7989 307.6692169  +6.4985586     7866.499      14677.5     15529.95     85.78997     171.8547     344.0181      1.976     4.54     1048.888     60.71125     927.9755        46     1.689     1.332  37.95   0
       325    795.3499    472.4215 307.6017341  +6.5053829     14265.26      23816.7     25761.78     85.78997     172.3344     344.2922      1.814     4.01     1045.506     60.71125     1566.927        52     1.608     1.277  39.73   2
       326    799.0807    467.4974 307.6003497  +6.5075407     1080.938     2077.907     2546.125     86.20144      172.608     344.4977      2.173     6.17     1044.996     60.71125     141.9161        13     1.459     0.734  36.48   3
       327    315.2957    472.8706 307.8012186  +6.4891467     1952.487      4035.07      3843.77     86.20144     172.3344     344.4293      2.047     5.68     1057.025     60.71125     226.3046        31     1.688     1.258  42.04   0
       328    824.1897    469.3755 307.5898513  +6.5076025     932.5569     1689.353     1309.997     85.92735     172.0605     344.2922      1.645     5.03      1044.51     60.71125      152.437        10     1.368     0.541  31.60   0
       329    980.5325    467.4517 307.5249406  +6.5136059     2117.868     3222.523     3945.312     86.20144      172.129      344.395      1.733     4.14     1037.575     60.71125     310.2482        17     1.329     0.804  46.05   0
       330    398.3441    469.0638 307.7668355  +6.4935010     1259.861      2196.13      2655.39     86.47466      172.266     344.4293      1.733     5.54     1054.778     60.71125     153.8833        14     1.244     0.891  -1.19   0
       331    132.9012    464.4838 307.8772986  +6.4864910     3508.085     6573.024     7415.946     86.33816     172.7446      344.532      1.983     4.70     1063.507     60.71125     423.1321        34     1.661     1.228  39.07   0
       332    770.8793    463.3775 307.6122090  +6.5083013     1920.785     3086.326     3204.478     85.92735     171.9233      344.395      1.718     4.19     1045.818     60.71125     253.7653        22     1.401     0.987  50.39   0
       333    386.5878    464.4599 307.7718770  +6.4950084     632.3043     1004.695     742.1069     85.65238      172.129     344.1209      1.567     3.88     1054.573     60.71125     99.71924         5     1.077     0.400 -73.34   0
       334    290.6214    461.2169 307.8118674  +6.4931318     1183.783     2364.622     2531.216      86.0645     171.9919     344.3607      2.050     7.02     1056.821     60.71125     175.9103        16     1.409     0.980  58.33   0
       335    368.9383    459.3035 307.7793862  +6.4965465     2447.229     4596.753     4837.853      86.0645     172.3344     344.4977      1.998     4.59     1054.605     60.71125     318.4623        26     1.449     1.166  48.64   0
       336    724.8364    456.9566 307.6315608  +6.5094163     1258.472     2338.873     2030.555      86.0645     172.1975      344.258      1.878     7.30     1046.866     60.71125     188.5828        18     1.555     0.961  29.31   0
       337    998.3394    455.6115 307.5179386  +6.5190881     686.7374     1234.873     1698.444     85.65237      172.129     344.1209      2.064     4.62     1035.799     60.71125     98.92053         7     0.921     0.658  68.65   0
       338    566.0443    449.9899 307.6977884  +6.5069887     665.6491     1129.549     1258.631     85.78997      172.129     344.1209      1.845     4.61     1049.118     60.71125     97.28162         6     1.305     0.463  11.02   0
       339    850.9789    447.2046 307.5794654  +6.5176511     1348.897     2321.028     2119.487     85.92735     171.9919     344.2237      1.785     5.21     1042.389     60.71125     182.2435        19     1.442     0.996  58.20   0
       340    488.2920    447.9600 307.7301697  +6.5052265     1055.198     1845.918     1958.381     86.47466     172.1975     344.4977      1.832     6.24     1049.523     60.71125     143.3931        15     1.383     0.914  32.18   0
       341    836.4313    445.9423 307.5855539  +6.5176874     1836.966     2874.656     2879.041     86.20144      172.266     344.3607      1.665     4.62     1042.645     60.71125     227.6252        19     1.479     0.850  39.57   0
       342    733.8974    444.1158 307.6282285  +6.5150213     12402.64     21794.03     23438.53     86.33816     172.6763     344.4977      1.894     4.30     1046.101     60.71125     1517.882        46     1.644     1.252  37.11   0
       343    654.8826    440.1939 307.6611992  +6.5140026     2218.861     4017.558     4908.792     85.92735     171.8547     344.1895      2.071     5.20     1046.704     60.71125     269.3345        24     1.488     1.097  42.50   0
       344    627.3552    435.3315 307.6728037  +6.5150909     11052.79     23754.98     29536.95     86.33816     172.1975     344.4635      2.463     6.92     1047.211     60.71125     1258.116        73     2.625     1.294  35.37   0
       345    959.1316    433.9471 307.5349632  +6.5267291     3524.613     5517.635     5719.851     86.20144     172.1975     344.3265      1.620     4.14     1036.774     60.71125     416.2501        24     1.464     0.972  42.72   0
       346    398.2791    430.0339 307.7681843  +6.5096157     21569.26     42356.91     45774.49     86.20144      172.266     344.4635      2.066     4.74     1051.264     60.71125     2339.548        67     1.809     1.443  38.99   0
       347    144.5163    429.6117 307.8736558  +6.5012807     1730.006     3235.173     4013.627     85.92735     172.0605      344.258      2.128     4.78     1061.737     60.71125     229.4731        23     1.454     1.106  17.62   0
       348    914.0194    428.7341 307.5538879  +6.5273793     1462.534     2791.817     3192.581     85.92735      172.266     344.3265      2.110     7.09     1039.099     60.71125       210.66        19     1.992     0.706  48.06   0
       349     77.8512    425.1159 307.9015121  +6.5008981     1144.317     2311.054     2657.849     86.33816     172.1975      344.532      2.111     7.53     1063.988     60.71125      125.452        19     1.502     1.057  77.46   0
       350    928.0063    424.3686 307.5482219  +6.5296480     4626.515     7414.903     7292.642     85.65237     172.0605     344.1895      1.708     4.28     1038.326     60.71125     581.4631        27     1.450     1.042  34.54   0
       351    255.8029    420.5727 307.8277151  +6.5087477     10279.67     20303.14     21618.83     85.78997     171.9919     344.2237      2.056     4.75     1056.266     60.71125     1341.673        51     1.774     1.381  41.25   0
       352    401.7117    423.6675 307.7669734  +6.5123596     6010.872     6408.099     7050.517     86.47466     172.4713     344.4293      0.974     3.86     1050.544     60.71125     1665.512         8     0.908     0.471   1.06   0
       353    984.0246    422.2744 307.5250105  +6.5323782      695.792     1214.624     1394.416     85.92735     172.0605     344.3607      1.637     4.70     1034.244     60.71125     106.0212         8     1.274     0.493  21.49   0
       354    979.2499    413.1175 307.5273033  +6.5360006      927.865     1572.475     1290.686     86.33816      172.266     344.4635      1.822     5.83     1034.031     60.71125     141.5504        12     1.164     0.973  39.42   0
       355    368.9493    410.0357 307.7810507  +6.5168913     1071.194     1829.954     1743.151     86.20144     172.1975     344.3607      1.880     4.82     1050.884     60.71125     152.2604        13     1.204     0.927  83.58   0
       356    156.0998    409.3071 307.8695314  +6.5100540     3860.688     7880.887     8645.391     86.33816     172.8129     344.3607      2.149     4.77     1060.686     60.71125     479.9207        41     1.703     1.416  34.11   0
       357    201.3806    410.6047 307.8506699  +6.5110380     562.1093     1180.989     889.1873     85.92735     171.8547     344.2237      1.786     5.15     1058.931     60.71125     85.21924         6     1.321     0.568 -50.11   0
       358    261.1411    408.4005 307.8259095  +6.5139530     982.5339      2005.05     2194.945     85.51456     171.9233     344.0866      2.180     5.85     1055.208     60.71125     151.3002        13     1.508     1.064  17.68   0
       359    178.4023    405.3080 307.8603989  +6.5124540     2065.577     4068.746     4180.948     85.78997     171.9233     344.1209      2.022     4.56     1059.637     60.71125      274.269        28     1.524     1.193  54.92   0
       360    573.5216    404.0669 307.6962336  +6.5262022     884.6459     1451.301     1771.785     86.47466     172.3344      344.395      2.020     5.65     1045.915     60.71125     122.6932         8     1.276     0.706  15.71   0
       361    401.8717    399.9489 307.7677102  +6.5221592     1610.032      3046.98     3302.344     86.33816      172.266     344.4635      1.983     4.84     1048.723     60.71125     211.8707        22     1.393     1.084  52.10   0
       362    990.0660    398.5766 307.5232975  +6.5423654     892.3297     1484.522     2173.923     85.92735      172.266     344.3607      1.867     6.20      1032.43     60.71125     128.3651        13     1.502     0.719  42.96   0
       363    289.4158    399.5851 307.8144580  +6.5185412     589.8444     1153.698     875.9503      86.0645     171.9233     344.3607      2.039     4.14     1053.014     60.71125     89.79297         5     0.992     0.493  89.97   0
       364    455.4137    393.3134 307.7456830  +6.5266919     5529.603     10547.98     11091.35     85.92735     172.0605     344.3265      1.996     4.74     1046.297     60.71125      623.478        39     1.621     1.336  42.06   0
       365     51.7588    394.3678 307.9134000  +6.5127180     2675.292      5313.83     5875.462     85.92735     172.1975     344.2922      2.088     4.79     1063.934     60.71125     323.8588        35     1.574     1.429  36.93   0
       366    787.9290    392.2358 307.6075235  +6.5382479     1691.285     3029.888     3362.515     86.20144      172.266     344.4635      2.016     4.86     1040.945     60.71125     206.8955        20     1.377     1.009  46.07   0
       367    796.0181    390.7099 307.6042130  +6.5391478     10937.32     18759.37     19067.37      86.0645     171.9919     344.3265      1.813     4.12      1040.58     60.71125     1302.451        42     1.594     1.188  43.61   0
       368    970.7802    382.6018 307.5318512  +6.5483201     696.8774     1173.891     1498.572     85.92735      171.786     344.1209      1.621     4.42     1032.891     60.71125     98.35913         7     1.246     0.447  40.73   0
       369     10.0661    379.4925 307.9312319  +6.5174588     852.3746     2157.571      4053.56     86.20143     172.4713     344.4293      4.148     7.13     1064.781     60.71125      127.282        14     1.667     0.854 -27.05  24
       370    475.7625    377.6224 307.7377571  +6.5338524     1588.846     3275.463     3574.542     85.92735     171.9919     344.1895      2.095     5.94     1044.524     60.71125      185.407        23     1.464     1.169  27.77   0
       371    932.0882    377.0601 307.5481193  +6.5493200     622.2479     1308.313     1305.201     86.20144     172.4029      344.532      1.967     6.98     1035.344     60.71125      105.609        10     1.751     0.780  32.05   0
       372    503.5623    377.0634 307.7262223  +6.5350134     2355.665     4323.319     4259.055     86.33816      172.266     344.4635      1.937     4.49     1044.164     60.71125     280.6874        28     1.471     1.222  37.21   0
       373    861.3798    373.6080 307.5776240  +6.5483895     28931.75     50478.66     53159.36     85.92735     171.9919     344.2237      1.856     4.08      1038.18     60.71125     3197.387        61     1.682     1.305  49.46   0
       374    355.3431    368.5896 307.7881096  +6.5335500     535.1816      628.502     714.0155     85.65237     172.1975     344.1209      1.431     5.47     1047.554     60.71125     81.31445         6     1.094     0.771  48.94   0
       375    633.3796    366.1035 307.6726393  +6.5438795     2089.185     3962.304     3948.486     86.20144     172.0605     344.2237      1.944     4.93     1042.328     60.71125     246.0236        26     1.482     1.174  40.18   0
       376     41.6443    366.8015 307.9185402  +6.5237608     940.9887     1542.421     1629.695     85.65237     171.8547     343.9838      1.785     6.82     1063.107     60.71125     113.2234        14     1.214     1.073 -49.33   0
       377    717.8280    359.6167 307.6377598  +6.5493785     64945.46     116639.6       123668     85.92735     171.9919     344.3265      1.917     4.30      1041.11     60.71125     7727.816        89     1.758     1.374  39.22   0
       378    876.2198    361.3836 307.5718682  +6.5539321     1068.254     1411.023     2096.761      86.0645     172.0605     344.3265      1.632     6.16     1036.965     60.71125     132.7926        13     1.248     0.854  44.77   0
       379     97.4497    359.3215 307.8956027  +6.5287247     1040.332     1853.066     1793.961     86.33816     172.3344     344.4293      1.891     7.12     1061.204     60.71125     132.0365        16     1.434     0.990  48.74   0
       380    580.4103    356.4200 307.6949816  +6.5461079     2038.461     3849.407     3794.884     85.92735     171.9233     344.2922      1.903     5.40     1042.188     60.71125     210.3125        27     1.589     1.161  42.97   0
       381    117.6665    355.2686 307.8873385  +6.5310774     4850.572     9397.836     10120.42     86.33816     172.3344     344.4635      2.065     4.68     1060.398     60.71125      564.174        41     1.670     1.341  54.92   0
       382    959.1452    356.6069 307.5375626  +6.5586673     794.0963     1295.098      1130.51     85.78997     171.9919     344.1209      1.804     4.68     1032.245     60.71125     108.9907         8     1.116     0.556  54.26   0
       383    563.5236    352.5333 307.7021314  +6.5471483     5620.701     10593.82      11339.8     86.47466     172.3344      344.395      2.002     4.52     1042.082     60.71125     676.7039        42     1.702     1.294  40.88   0
       384    292.6222    350.4418 307.8147917  +6.5389416     2017.204     4002.994     4273.344     85.92735     172.0605     344.1895      2.106     5.33     1050.979     60.71125     244.6564        27     1.547     1.190  46.91   0
       385    426.4828    347.7455 307.7592497  +6.5445401     19512.99     38147.87      41091.4     86.33816      172.266      344.532      2.043     4.69     1044.666     60.71125      2235.96        58     1.772     1.428  41.68   0
       386    534.1840    346.3070 307.7145361  +6.5487383     1104.836     1815.888     1661.691      86.0645     172.0605     344.2922      1.842     5.09     1041.692     60.71125     155.6217         9     1.051     0.905  10.74   0
       387    406.5835    345.9418 307.7675811  +6.5446186     943.8657     1954.007     2551.958     85.65237     172.1975     344.1209      2.383     5.80     1045.122     60.71125     138.7023        12     1.211     0.982 -81.08   0
       388    505.4131    342.8166 307.7266119  +6.5492172     960.9254     1652.152     1721.392      86.0645     171.9233     344.3607      1.740     4.79     1041.627     60.71125     144.9395        12     1.125     1.003 -69.52   0
       389    515.5317    338.2001 307.7225626  +6.5514620     6514.428     12633.07     13554.18     85.78997     171.7174     344.1895      2.033     4.85      1041.11     60.71125     697.0281        43     1.744     1.313  36.68   0
       390    820.9333    339.7043 307.5955782  +6.5610414     587.6489     1068.284     890.5801     86.33816     172.4029     344.4635      1.421     3.92     1037.763     60.71125     87.62524         6     1.383     0.318  14.07   0
       391    784.7097    336.8233 307.6107312  +6.5610229      2746.13     4484.928     5105.501     86.33816     172.0605      344.258      1.835     4.25     1038.526     60.71125     309.7833        24     1.420     1.061  30.30   0
       392    732.0551    337.0406 307.6326089  +6.5591761     648.8963     1226.174     1155.699     86.20144     172.3344     344.4635      1.718     4.74     1039.531     60.71125     95.89844         6     1.343     0.474  75.85   0
       393    939.7976    336.0850 307.5462956  +6.5664975     670.4741     1141.872     1260.007     85.65237     171.8547     344.1209      1.583     4.01     1032.325     60.71125     103.7776         6     1.115     0.413  62.63   0
       394    341.9454    334.8058 307.7948227  +6.5470516      910.834     1875.907     1958.341     85.78997     171.9919     344.0866      2.165     6.36     1046.571     60.71125     110.4995        12     1.183     0.960  79.65   0
       395    177.9990    328.7345 307.8631657  +6.5440599     833.0731      1607.02       2145.4     85.51456     171.9233     344.1552      2.143     7.45     1056.699     60.71125     101.0326        15     1.458     1.065  86.12   0
       396    405.4705    322.2947 307.7688446  +6.5543460     5904.305     11295.65     11968.28     86.20144     172.3344     344.4293      2.018     4.72     1044.166     60.71125     659.6831        41     1.631     1.353  35.61   0
       397    261.1975    322.5343 307.8287984  +6.5494117     1385.554     3083.416     3397.014     85.65237     171.9233     344.1895      2.353     5.71     1050.771     60.71125     191.8983        25     1.577     1.241  38.63   0
       398    773.2914    318.1396 307.6161076  +6.5683573     45641.17     79505.26     83896.95     86.20144     172.3344      344.532      1.855     4.19     1037.629     60.71125     5228.825        70     1.697     1.309  38.61   0
       399    758.7162    321.0538 307.6220673  +6.5666676     661.5562      1116.75      731.597     86.33816      172.266     344.6004      1.590     4.36     1038.038     60.71125     107.5537         5     1.107     0.488  24.38   0
       400    444.9522    317.5974 307.7525943  +6.5576077       1687.5     3196.813     3339.806     85.65237     171.9233     343.9838      2.000     5.59     1041.857     60.71125     205.3018        27     1.614     1.203  28.29   0
       401   1007.8463    315.1057 307.5187180  +6.5774266     1539.354     2601.982     2527.448     86.20144     172.1975     344.5662      1.615     4.37     1028.438     60.71125     257.5775        16     1.458     0.721  44.13   0
       402    949.1786    314.4188 307.5431264  +6.5757570     2236.569     3529.268      4029.43      86.0645     172.1975     344.3607      1.766     3.92     1030.652     60.71125     298.2263        18     1.236     0.971  33.42   0
       403    591.2731    315.0178 307.6918665  +6.5635677     965.6937     1972.473     2276.099     85.78997     172.1975     344.3607      2.207     6.62     1038.538     60.71125     128.6786        13     1.394     0.881  11.13   0
       404    481.7858    313.4287 307.7374264  +6.5605620     837.7931      1594.52     2247.552     85.92735     172.0605     344.3265      2.487     6.12     1039.138     60.71125     90.07056        10     1.209     0.871  67.77   0
       405    431.6005    312.9720 307.7583002  +6.5590707     1479.831     3022.123     2953.498     85.78997     171.9919     344.2237      2.108     5.15     1042.391     60.71125     167.4178        24     1.356     1.284  73.26   0
       406    852.7743    307.8923 307.5834167  +6.5752398     1160.888     1827.977     1785.653     86.47466     171.9919      344.258      1.667     4.78     1035.319     60.71125     135.9574        14     1.220     0.877  -1.67   0
       407    208.2995    304.7034 307.8513883  +6.5550000     1951.142     3783.822     4036.174     86.33816     172.8129      344.258      2.053     5.24     1053.601     60.71125     247.3287        26     1.606     1.129  35.51   0
       408    771.8285    302.7419 307.6172353  +6.5746669     5113.618     8966.464     9339.896     85.92735     172.3344     344.3265      1.845     4.18     1036.733     60.71125     647.7008        34     1.554     1.167  35.79   0
       409    461.5768    304.0179 307.7461444  +6.5637717     797.9305      1640.85     2148.208      86.0645     172.1975     344.3607      2.243     6.94     1039.717     60.71125      109.344        11     1.435     0.940  37.23   0
       410    104.4814    301.8855 307.8946315  +6.5526777     840.5168     1791.112     2025.141      86.0645      172.608     344.4977      2.256     7.26     1060.315     60.71125     126.3379        13     1.556     0.948  43.75   0
       411    788.1113    300.7247 307.6105355  +6.5760431     2263.297     3712.435     4408.921     86.33816      172.608      344.532      1.824     4.73     1036.444     60.71125     282.7668        20     1.380     0.971  45.05   0
       412    377.5887    295.3376 307.7813461  +6.5645437     1460.414     3234.314     3994.092     85.78997     172.0605     344.1895      2.441     7.94     1044.258     60.71125     165.3381        24     1.846     1.092  11.31   0
       413     91.3013    295.7855 307.9003165  +6.5547538     1071.461     2250.167     2233.627     86.20144     171.9919     344.1895      1.978     8.00     1060.828     60.71125     130.6083        18     1.656     1.080  45.10   0
       414    504.3561    291.4427 307.7287896  +6.5703961     1573.122     2982.573     2933.227      86.0645      172.266      344.258      1.946     5.47     1037.048     60.71125     162.9128        22     1.370     1.130  33.29   0
       415    266.9460    287.1076 307.8276108  +6.5642333     4490.547     8661.188     9631.644     86.20144     172.1975     344.6004      2.082     4.69     1048.408     60.71125      550.078        41     1.702     1.353  26.65   0
       416      1.1192    280.0482 307.9383315  +6.5582206     1479.626     2062.232         2229     71.71128     133.2775     255.2069      1.303     3.95     1063.253     60.71125      392.141         8     1.379     0.324 -89.66  24
       417    786.2268    279.9058 307.6120213  +6.5845774     708.4893     1068.821     1249.912     86.47466     171.9919      344.258      1.901     3.47     1035.448     60.71125     110.8263         7     0.920     0.709  40.56   0
       418    400.9551    277.2789 307.7722461  +6.5727834     1275.931     2400.075     2347.349     86.33816      172.266     344.4293      1.960     5.73     1042.147     60.71125     176.5785        19     1.564     1.047  57.48   0
       419    987.8547    276.7694 307.5283186  +6.5925921      1018.22     1720.902     2029.075     86.20144     172.3344      344.395      2.095     5.35     1028.003     60.71125     149.9071        13     1.316     0.957  56.90   0
       420    323.6432    273.6676 307.8045018  +6.5716842     737.2107     1383.049     879.6489     86.33816     172.1975     344.4635      1.818     7.04     1045.557     60.71125     104.8167        10     1.689     0.823  67.23   0
       421    171.2243    273.7674 307.8678474  +6.5665299     1299.087     2527.183     2158.012     85.65237     171.9919     344.2237      2.000     5.11     1055.598     60.71125      211.787        18     1.488     0.993  22.41   0
       422    580.4976    269.1924 307.6978948  +6.5821307     1750.585     3287.271     3608.533      86.0645     171.8547     344.1895      1.926     5.85     1035.143     60.71125     194.1931        26     1.593     1.199  45.16   0
       423    924.0458    268.4055 307.5551235  +6.5939210     1578.073     2516.923     2823.094     85.65237     171.9919     344.0524      1.807     5.52     1029.175     60.71125     197.5907        17     1.436     0.800  30.07   0
       424    744.1879    266.7968 307.6299375  +6.5885878     4200.075     7420.671     7919.141     85.92735     171.9233     344.2922      1.892     4.22     1035.155     60.71125     490.3973        30     1.580     1.104  46.72   0
       425    685.0208    266.8096 307.6545302  +6.5866072     1906.155     3460.833     4113.332     85.92735     171.9233     344.2237      2.006     4.71     1035.038     60.71125      210.976        24     1.399     1.162  27.41   0
       426    981.9695    266.4656 307.5311119  +6.5966511     852.5073     1361.249     1252.346      86.0645      172.266     344.3607      1.585     4.98     1027.519     60.71125     130.1792         9     1.251     0.560  48.79   0
       427    940.4019    258.9642 307.5486429  +6.5983645     1106.657     1470.461     1090.713     85.37652     172.0605     344.2237      1.492     3.73     1028.254     60.71125     194.1267        11     1.053     0.757  50.85   0
       428    243.7727    252.1738 307.8384274  +6.5778812     1664.733     3350.853     3801.185     85.78997     172.0605      344.258      2.047     4.69     1050.303     60.71125     237.5114        24     1.341     1.271  37.07   0
       429    886.1518    251.0118 307.5714610  +6.5998410     1577.436     2537.101     2871.011     85.65237      172.129     344.0866      1.645     4.23     1030.417     60.71125     239.1877        18     1.429     0.826  23.87   0
       430    776.8095    250.6637 307.6169226  +6.5963385     1485.073     2580.092     2382.426     85.78997     172.0605     344.1895      1.866     5.73     1034.391     60.71125     168.7589        20     1.450     0.991  54.75   0
       431    477.6562    242.0811 307.7415579  +6.5898858     17244.31     33614.53     36330.93     86.47466      172.266     344.4635      2.048     4.68     1034.542     60.71125      1882.12        60     1.767     1.432  37.99   2
       432    483.4411    236.7121 307.7393351  +6.5922965     1083.179     2190.062      2037.25     86.33816     172.1975     344.4635      1.970     6.23     1034.052     60.71125     136.3888        18     1.486     1.056  71.55   2
       433    803.5824    241.1367 307.6061156  +6.6011658     11431.29     19815.83     21480.86     85.92735     172.1975      344.258      1.862     4.08     1033.816     60.71125     1295.303        47     1.632     1.283  31.67   0
       434    166.1369    235.6537 307.8712559  +6.5820972     1860.521     3639.589     3317.768     86.33816     172.1975      344.395      1.988     4.95     1055.043     60.71125     246.3464        26     1.423     1.238  63.45   0
       435    140.2028    233.6715 307.8821022  +6.5820448     780.5472     1246.039     1464.422     85.78997     171.8547      344.258      1.846     4.22     1056.657     60.71125     123.7332         9     1.050     0.665 -51.40   0
       436    939.9797    231.4064 307.5497471  +6.6097304      1417.92     2082.758     2273.117     85.92735     171.9919     344.2237      1.563     4.31     1027.115     60.71125     208.2373        12     1.141     0.736  33.39   0
       437    638.3782    230.5633 307.6751423  +6.6000167     450.2024     683.8672     488.1641     85.92735     171.9919     344.1552      1.548     4.99     1032.851     60.71125      68.8186         5     1.344     0.524  44.76   0
       438      3.7711    228.8890 307.9389692  +6.5794345     3895.768     7133.177     7321.136     86.47466     167.9673       298.65      1.912     4.68     1063.392     60.71125     503.4912        35     1.609     1.249  43.22  24
       439    601.6241    227.8295 307.6905120  +6.5999173     3648.895      7005.38     7387.889     85.78997      172.129     344.2237      1.991     4.86     1032.476     60.71125      388.759        34     1.624     1.272  30.94   0
       440    564.1227    227.6566 307.7061058  +6.5987349     1576.489     2930.349     2572.872     86.33816     172.1975      344.395      1.959     5.65     1032.848     60.71125     196.0669        21     1.450     1.101  46.69   0
       441    322.0367    228.4861 307.8067013  +6.5902871     733.9083      1184.08     1100.038     86.33816     172.1975     344.4293      1.734     5.60     1044.657     60.71125     95.99744         7     1.147     0.770  87.01   0
       442    406.0614    226.7959 307.7718339  +6.5938006     1174.643     2314.077     1923.679     85.65237     172.0605     344.1209      1.998     5.48     1038.153     60.71125     156.5568        19     1.343     1.114  23.94   0
       443    908.6707    224.3395 307.5629997  +6.6116056     10392.99     16786.62     17544.06     86.47466      172.266     344.4977      1.728     4.07     1027.986     60.71125     1346.886        40     1.573     1.110  39.29   0
       444    962.4716    224.7730 307.5406212  +6.6132188     2497.145     3972.821     4089.155     85.92735      172.129     344.3607      1.734     4.07     1026.026     60.71125     334.2338        21     1.405     0.920  48.84   0
       445    995.3019    222.1154 307.5270637  +6.6154093       9794.1      14748.3     15337.81     86.33816     172.6763     344.4977      1.646     3.80     1024.627     60.71125     1242.944        33     1.496     1.014  42.89   0
       446     34.9215    221.0268 307.9262897  +6.5837284     20273.79     38680.26     41187.12     86.20144     172.1975      344.395      1.997     4.62      1062.06     60.71125     2556.276        64     1.762     1.418  44.01   0
       447    706.6641    222.2608 307.6470387  +6.6057260     2402.261     4497.135     5480.899     86.33816     172.1975     344.4635      2.169     4.86     1033.081     60.71125     273.1865        27     1.579     1.129  41.39   0
       448    583.7742    223.8475 307.6980662  +6.6009649      736.996     1166.537     641.3407     85.92735     172.3344     344.3265      1.645     2.49      1032.44     60.71125     130.7605         5     0.810     0.645  34.53   0
       449    281.2023    221.9497 307.8238955  +6.5916171     940.2502     1605.137     1537.084     85.65237     171.8547     343.9838      1.750     6.21     1047.343     60.71125     129.5072         9     1.137     0.954 -67.30   0
       450    515.3577    217.1747 307.7267301  +6.6014322     1542.483     2943.349     2449.747     85.92735     172.1975     344.2237      1.950     5.55     1032.745     60.71125      176.645        23     1.510     1.198  33.42   0
       451    846.9564    213.6832 307.5890123  +6.6139491     1832.877      2990.45     3242.375     86.33816      172.266      344.395      1.895     4.71     1030.129     60.71125     222.1624        20     1.474     0.882  30.09   0
       452    527.1798    213.3475 307.7219456  +6.6034081     2046.505     3905.662     3603.273     85.78997      172.266     344.2237      1.963     4.78      1032.45     60.71125     237.8046        25     1.425     1.171  31.18   0
       453    899.6399    212.9297 307.5671383  +6.6160163     1951.839     3247.531     3338.513     86.20143      172.266     344.4977      1.709     4.55     1027.818     60.71125     243.8331        19     1.480     0.866  29.15   0
       454    758.8851    210.2871 307.6257362  +6.6124137     33625.01     58673.23     61324.09      86.0645     172.4713     344.4977      1.861     4.21     1032.797     60.71125     4100.489        61     1.694     1.273  40.68   0
       455    362.0411    209.7016 307.7907102  +6.5993846     4623.978     11243.36     13041.72     86.33816      172.129     344.6689      2.501     6.10     1041.577     60.71125     562.1573        56     2.125     1.546  84.59   0
       456    992.7250    209.2153 307.5285694  +6.6206506     2910.736     4425.483      4671.29     85.78997     171.9919     344.2922      1.601     3.39     1024.131     60.71125     417.0221        22     1.345     0.908  43.09   0
       457    926.8007    207.3842 307.5560349  +6.6192113      6866.99      10904.1     10934.89     85.92735     171.8547     344.1552      1.669     3.86     1026.567     60.71125     923.2209        32     1.489     1.059  36.71   0
       458    470.4612    206.5661 307.7457508  +6.6043104     3861.925     7125.391     7488.629      86.0645     172.3344     344.3607      1.964     4.93     1033.237     60.71125     397.7206        36     1.690     1.267  40.84   0
       459    127.7163    197.9595 307.8885051  +6.5963718     3839.147     7325.531     7644.733     86.33816     172.1975     344.3607      1.989     4.71     1056.408     60.71125      458.756        35     1.627     1.274  51.14   0
       460    947.0424    197.1755 307.5479647  +6.6241012     880.4285     1427.403     1880.988     85.92735      172.129     344.1895      2.248     5.70     1025.362     60.71125     115.1198        10     1.315     0.731  47.96   0
       461    298.0014    194.5608 307.8178419  +6.6034901     25026.82     50555.68     54399.64     85.37652     171.9919     344.0866      2.068     4.70     1046.849     60.71125     2894.514        65     1.808     1.447  40.95   0
       462    273.3586    195.6794 307.8280468  +6.6022018     5017.803     10078.46     10584.05     86.20144      172.266     344.4293      2.069     4.78     1048.651     60.71125     584.9496        41     1.736     1.319  38.85   0
       463    726.8600    194.1315 307.6395938  +6.6180161     780.5499     1281.779      857.441     86.47466     172.1975     344.4293      1.823     2.95     1032.569     60.71125     107.4832         7     0.903     0.712  40.04   0
       464    178.0969    191.4641 307.8677853  +6.6007457      3108.17     6055.501     6128.102     86.20144     172.4029     344.4635      1.989     4.88     1053.694     60.71125     334.3608        32     1.613     1.255  52.65   0
       465    422.0678    190.0218 307.7664264  +6.6095219     37050.09     74312.82     79543.95     85.92735     172.1975     344.3607      2.081     4.79     1034.962     60.71125      3919.28        74     1.809     1.485  38.13   0
       466    439.7504    190.9198 307.7590460  +6.6097432     966.6271     1830.824     2027.032     86.33816     172.3344     344.4293      2.228     6.18     1034.089     60.71125     131.9447        13     1.304     0.947 -37.84   0
       467    326.1046    187.7792 307.8063906  +6.6072326     13779.63     27489.46     29739.82     86.20144     172.0605     344.2237      2.085     4.74       1044.5     60.71125     1526.692        63     2.074     1.532  16.72   2
       468    333.3479    187.2792 307.8033968  +6.6076819     1471.803     2617.863      3617.27     86.33816      172.266     344.4293      2.092     6.29     1043.864     60.71125     201.7041        17     1.477     0.925 -79.57   3
       469    761.2996    186.2100 307.6255454  +6.6224367      28208.9     48439.53     50732.96      86.0645     171.8547     344.1895      1.838     4.07     1031.792     60.71125     3302.368        61     1.668     1.300  38.87   0
       470    809.3765    186.8751 307.6055381  +6.6237661     892.8605      1472.21     1394.518     85.92735      172.129     344.3607      1.772     5.24     1030.475     60.71125     117.4147        10     1.305     0.594  57.26   0
       471    710.0884    187.7361 307.6467814  +6.6200970     773.4318     1441.551     1358.529     86.20144     172.5396     344.4635      2.038     4.98     1032.385     60.71125      107.146         7     1.309     0.536  49.62   0
       472     78.2196    183.5379 307.9095680  +6.6006637     7301.774     13875.92        14619     85.92735      172.266     344.2922      1.987     4.57     1059.001     60.71125     882.6487        41     1.659     1.333  50.47   0
       473    112.0980    181.3440 307.8955612  +6.6027080      1241.36     2109.375     2073.791     86.20144      172.266     344.6689      1.793     5.52     1056.712     60.71125      186.494        14     1.161     0.990 -87.43   0
       474   1019.8959    180.5415 307.5182404  +6.6333958     1100.892     1785.573     1953.727     86.20144      172.266     316.7057      1.728     4.72     1021.867     60.71125     169.0227        11     1.244     0.729  30.11  16
       475     11.3138    168.5646 307.9378858  +6.6045972     672.2452     1058.451     694.9965     86.33816      172.129     344.4293      1.256     3.38      1064.15     60.71125     108.0834         5     1.091     0.302 -70.39   0
       476   1020.7433    166.9494 307.5183458  +6.6390369     2244.913     3433.406     4029.269     86.33816     171.5112     305.7534      1.712     4.45     1021.215     60.71125     334.0425        16     1.408     0.719  41.81  24
       477    603.4757    164.5282 307.6918828  +6.6261187     929.4182     1294.908     1307.515     86.61095     172.5396     344.4293      1.592     5.31     1030.759     60.71125     104.1738        10     1.021     0.779 -69.89   0
       478    612.3459    162.7330 307.6882563  +6.6271565      1586.68     2924.365     3234.486     86.33816     172.1975     344.3265      1.916     5.03     1030.849     60.71125     177.9092        21     1.283     1.251 -83.73   0
       479    356.5236    162.6816 307.7945973  +6.6186157     795.7466     1423.628     1154.764     86.61095     172.5396     344.5662      1.771     6.92     1041.121     60.71125     114.7778        11     1.590     0.844  46.70   0
       480    296.8780    160.8152 307.8194533  +6.6173869     22668.75     45528.36     48635.25     85.92735     171.9919      344.258      2.084     4.79     1047.867     60.71125     2668.532        64     1.789     1.456  40.83   0
       481     42.1686    159.4797 307.9253702  +6.6093860     3710.802     6880.928     7248.471     86.20144     172.1975      344.395      1.969     4.53     1061.452     60.71125     436.1919        40     1.677     1.388  58.95   0
       482    728.5590    157.3414 307.6401300  +6.6332649     6885.162     11951.86      12737.4     86.33816      172.266     344.4977      1.875     4.22     1031.409     60.71125     789.2321        38     1.595     1.219  36.49   0
       483    139.4567    154.6803 307.8850954  +6.6146371     3741.712     7123.974     7946.435     86.47466      172.266     344.4293      2.016     4.74     1054.589     60.71125     436.9014        34     1.593     1.254  42.58   0
       484    283.3006    154.9794 307.8252949  +6.6193414     546.0775     1139.327     1594.615     86.33816     172.0605     344.1895      2.076     4.64     1049.086     60.71125     83.79797         5     1.043     0.586  15.83   0
       485    410.1781    150.6732 307.7727016  +6.6253720     2926.628     6030.309     6324.967     85.92735     172.0605     344.3607      2.132     4.75     1034.415     60.71125     337.9813        34     1.572     1.336  38.59   0
       486    478.0915    151.6644 307.7444379  +6.6272366     929.8268     1729.954     1507.471     86.33816     172.4713     344.4977      1.843     7.29      1030.68     60.71125     116.7546        14     1.610     0.925  -2.93   0
       487    129.0562    149.5094 307.8895941  +6.6164229     1440.195     2713.233     2968.907     86.20144      172.129     344.5662      2.020     6.73     1054.871     60.71125     173.0007        20     1.464     1.070  74.56   0
       488    374.3799    149.4346 307.7876240  +6.6246842     2365.649     4404.977     4166.363     85.78997     172.0605     344.2237      1.987     5.26     1038.923     60.71125     259.9894        30     1.621     1.229  41.08   0
       489    690.6782    147.6809 307.6562031  +6.6359892     711.5694      1482.43     1718.652     86.61095     172.5396     344.6004      1.913     4.46     1030.844     60.71125     90.65308         6     1.051     0.538  56.34   0
       490   1021.2731    143.6149 307.5189113  +6.6486904     1541.094     2186.458     2073.635     85.78997     167.5455     298.1362      1.586     4.53     1019.493     60.71125     217.9018        14     1.356     0.675  36.25  24
       491    226.2322    138.2996 307.8495823  +6.6243144     4293.615     8392.838     9037.284     86.33816      172.129     344.6004      2.088     5.10     1051.176     60.71125     473.0046        39     1.700     1.355  42.55   0
       492    109.0617    138.5371 307.8982777  +6.6202819     1634.684     3487.425     3918.499     86.33816      172.266     344.4635      2.218     6.48     1055.306     60.71125     194.6718        25     1.509     1.261  47.06   0
       493    688.0835    137.1403 307.6576379  +6.6402552     5233.212     9343.382     9754.157     86.47466     172.3344     344.4635      1.886     4.17     1030.025     60.71125     687.5985        36     1.622     1.182  39.12   0
       494    865.0069    138.5176 307.5840442  +6.6455900     569.2222     773.3498     940.1522     85.92735     171.9233      344.258      1.450     3.77     1025.305     60.71125     78.76221         6     1.325     0.308  17.76   0
       495    836.3030    136.9304 307.5960300  +6.6452884     1022.307     1697.038     2253.723     86.20144     172.4713     344.4293      1.722     5.30     1026.072     60.71125      139.864        10     1.190     0.667  22.21   0
       496    640.2327    134.3524 307.6776235  +6.6398079     7703.136     14065.49     15180.14      86.0645      172.266     344.3607      1.961     4.31     1029.642     60.71125      842.441        43     1.728     1.244  47.95   2
       497    643.7894    125.9128 307.6764303  +6.6434118     42954.84      78900.9     84132.59     85.92735     171.9919      344.258      1.946     4.30     1029.182     60.71125     4976.305        74     1.757     1.375  37.71   2
       498    275.5451    135.4189 307.8291822  +6.6271583     740.4711     1179.656     1259.641     85.78997      172.266     344.2237      1.727     5.02     1049.418     60.71125     108.8453         8     1.152     0.896 -36.65   0
       499     39.3752    134.0822 307.9273948  +6.6197792      1023.56     1483.229     1257.597      86.0645     171.9919      344.395      1.633     5.87     1060.559     60.71125     126.4048        11     1.152     0.840  21.07   0
       500    367.5427    130.3622 307.7911125  +6.6323306     2696.703     5676.659     5791.019     86.33816     172.3344     344.4293      2.164     5.10     1039.599     60.71125      301.839        38     1.589     1.516  35.51   0
       501    549.4365    129.5496 307.7155293  +6.6387557     1374.549     2417.263     2397.932     86.20144     172.1975     344.2922      1.892     5.51     1028.948     60.71125      155.364        19     1.285     1.158  17.43   0
       502   1013.6354    128.7534 307.5225870  +6.6545731     858.6865     1425.861      1555.09     85.92735     172.1975     344.3265      1.693     4.36     1018.562     60.71125     119.7827         6     1.062     0.510  61.24   0
       503    322.9089    119.6401 307.8100294  +6.6352621     2724.303      5601.21     6084.345     86.33816     172.1975     344.4635      2.121     5.29     1045.104     60.71125     302.8409        33     1.716     1.237  26.85   0
       504    722.2642    114.1253 307.6442064  +6.6509004     738.8112     1090.937     1221.541     86.47466      172.266      344.395      1.585     5.49     1027.597     60.71125     125.4506         8     1.378     0.618  53.05   0
       505     20.3937    102.8486 307.9363468  +6.6320378     747786.9      1886166      2072997     85.78997     172.0605     344.0181      2.368     6.55     1060.696     60.71125     62534.62       445     2.240     1.904  46.04   4
       506    708.1193    109.8149 307.6502321  +6.6522080     2529.567       4380.8      4374.82     85.92735     171.9919      344.258      1.754     4.49     1027.539     60.71125     322.1158        23     1.532     0.963  50.81   0
       507    449.9938    100.7735 307.7578411  +6.6473105     2953.231     5894.697     6531.685     85.78997     172.0605     344.2237      2.077     5.07     1030.926     60.71125     324.2726        35     1.688     1.287  28.30   0
       508    922.5178     96.2190 307.5615624  +6.6649736     3749.532     5756.492     5969.123     85.92735     171.9233     344.3607      1.661     4.02     1021.385     60.71125     480.5435        29     1.443     1.041  41.22   0
       509    614.6534     94.6732 307.6895983  +6.6553380     1439.041     2710.255     2343.455     86.20144     172.1975      344.395      1.981     5.46     1027.296     60.71125      192.635        21     1.502     1.019  30.50   0
       510    413.3010     92.8674 307.7733619  +6.6493464     1511.901     2588.883     2663.173     86.33816     172.4029      344.395      1.849     5.37     1033.111     60.71125     163.4744        19     1.371     1.005  18.46   0
       511    161.2875     89.5587 307.8782330  +6.6422604     2515.751     5028.036     5394.513     86.33816      172.266     344.4635      2.061     5.26     1052.154     60.71125     271.4814        30     1.642     1.194  40.00   0
       512     43.1699     87.5586 307.9273994  +6.6391172     10116.31     19343.62     21332.08     85.92735      172.129      344.258      2.029     4.50     1057.834     60.71125     1182.775        48     1.736     1.339  50.63   0
       513    309.7430     88.2414 307.8165670  +6.6477860     990.4526     1967.811     2234.687     86.20144      172.266     344.4635      2.110     6.99     1046.833     60.71125     118.1412        15     1.355     1.011  31.50   0
       514    693.8652    113.0115 307.6560497  +6.6504120     1115.598     1994.563     1965.497     85.78997     172.0605      344.258      1.906     7.45     1028.073     60.71125     136.6776        16     1.573     0.988  28.79   0
       515    789.7926     82.5226 307.6172011  +6.6662042     2999.173     4929.203     5219.761     85.92735     171.7174     344.2237      1.804     4.10     1023.218     60.71125     334.2596        24     1.440     1.021  48.79   0
       516    434.9260     83.2554 307.7646981  +6.6540397      835.559      1683.43     1873.499     86.20144      172.129     344.3607      2.078     7.24     1031.544     60.71125     100.7638        13     1.433     1.023  54.46   0
       517    904.3218     97.1740 307.5690947  +6.6639730     2071.833     3144.713      2998.83      86.0645     172.1975      344.395      1.637     4.03     1021.856     60.71125     277.3839        18     1.398     0.793  40.11   0
       518    552.8007     80.8882 307.7157773  +6.6589622     958.8447     1808.168     1977.635     85.51456     171.7174     344.1209      1.934     5.46     1027.422     60.71125     120.9264        13     1.244     0.971  61.52   0
       519     83.4827     79.5204 307.9109158  +6.6437915     2604.161     4692.619     4645.366     86.47466     172.5396     344.5662      1.911     4.64     1054.387     60.71125     302.5833        28     1.536     1.153  32.60   0
       520     68.4088     80.0299 307.9171643  +6.6430744     803.7715     1255.793     1609.797     85.78997     172.0605     344.2237      1.668     4.53     1055.453     60.71125     128.3481         7     1.011     0.578 -30.88   0
       521    844.8495     82.0687 307.5943280  +6.6682281     5612.346     9218.891     9444.861     86.20144     172.1975     344.4293      1.749     3.85     1022.158     60.71125     724.7712        36     1.587     1.134  33.23   0
       522    606.9053     75.7075 307.6934606  +6.6629106     1083.252     2124.633     1749.504     86.33816     172.8129     344.4293      1.924     6.96     1026.629     60.71125     128.1429        14     1.377     0.988  45.53   0
       523     25.8438     74.9183 307.9350313  +6.6437540     2089.514     4082.203     4868.065     86.33816      172.266      344.395      2.141     5.15     1058.003     60.71125       250.99        28     1.611     1.182  35.86   0
       524    784.3126     69.8631 307.6199066  +6.6712490     1814.493     2910.295     3157.274     86.33816     172.4713     344.4635      1.721     4.32     1022.535     60.71125     221.2762        20     1.263     1.068  63.42   0
       525    425.1977     70.0565 307.7691893  +6.6591642     951.1837     2033.703     2146.731     85.65237     171.9233     344.1209      2.077     6.79     1032.071     60.71125     123.4323        14     1.308     1.109  52.85   0
       526    121.8100     69.6157 307.8953205  +6.6491693     811.7927     1507.457     1557.768      86.0645     171.9919     344.2922      1.905     4.53     1052.367     60.71125     111.2699         7     1.003     0.580  55.23   0
       527    111.1435     63.6807 307.8999561  +6.6512616     7601.539     14586.29     15493.11     86.47466      172.266     344.4293      2.030     4.65     1052.403     60.71125     837.0432        48     1.766     1.344  43.99   0
       528    440.3739     63.7139 307.7630953  +6.6622914     2068.156     3675.277     3569.875     86.47466     171.9919     344.2922      1.858     4.73     1031.141     60.71125     226.2402        24     1.488     1.053  40.00   0
       529    278.1526     57.7554 307.8307331  +6.6593150     1186.353     2085.479      2620.25     86.33816     172.1975     344.3607      2.117     4.49      1049.77     60.71125     162.9233        15     1.184     1.041  -0.60   0
       530    653.9217     55.6827 307.6745921  +6.6727509     15537.82     27556.86     29098.97     86.47466     172.5396      344.532      1.886     4.26     1025.833     60.71125     1769.631        51     1.680     1.288  37.01   0
       531    553.7554     51.7112 307.7163676  +6.6710423     4226.495     7613.818     7857.754     86.33816      172.129     344.4635      1.872     4.37     1026.403     60.71125     460.3076        37     1.632     1.264  43.76   0
       532    272.0630     52.4209 307.8334455  +6.6613135     1604.976     3586.429     4691.896     85.92735      172.266     344.2922      2.462     6.49     1049.844     60.71125     186.6211        27     1.622     1.335  28.60   1
       533     21.4633     50.1443 307.9376948  +6.6538362      985.805     1761.219     1245.258     86.47466      172.266     344.4293      1.839     6.01     1056.089     60.71125     133.3888        10     1.331     0.763  27.50   0
       534    459.3073     47.3469 307.7557789  +6.6696838     17895.06      33902.8     36198.54     86.20144     172.1975     344.6346      2.002     4.51     1029.774     60.71125     1927.483        59     1.757     1.398  38.26   0
       535    279.9623     47.7330 307.8303209  +6.6635142     7097.514     13988.88     15105.32     86.20144     172.1975      344.532      2.047     4.83     1049.853     60.71125      791.316        47     1.772     1.357  44.65   0
       536    640.2941     46.0393 307.6805834  +6.6762776     2694.809      5419.41     6177.966     86.47466     172.1975      344.532      2.234     5.74     1025.476     60.71125     319.2539        36     1.938     1.203  60.06   0
       537     45.4185     47.1688 307.9278382  +6.6558704     1930.913      3722.72     3732.783     85.92735     172.0605     344.2922      2.005     5.38     1054.634     60.71125     232.4192        26     1.575     1.164  50.48   0
       538    936.9799     47.2893 307.5571995  +6.6856606     1962.694     2921.578     2926.007     86.20143     171.9919      344.258      1.556     4.38     1017.849     60.71125     266.1174        16     1.378     0.752  38.68   0
       539    339.8405     48.5984 307.8053999  +6.6651647     780.3204     1209.035     1536.608     85.51456     171.9919     344.1552      1.592     3.55     1043.299     60.71125      104.137         5     0.786     0.461  15.11   0
       540    267.9593     44.2879 307.8354274  +6.6645342     2559.976     4947.992     6027.854     86.33816     172.1975     344.4635      2.305     4.87     1049.914     60.71125     297.7966        29     1.579     1.180  35.39   0
       541    320.2395     42.7946 307.8137450  +6.6669042     689.8636     1076.025     967.5817     85.51456     171.9919     344.0866      1.626     5.05     1045.893     60.71125      129.506         7     1.205     0.598  72.56   0
       542    957.7108     37.4853 307.5489113  +6.6903996     998.6226     1514.876     2069.783      86.0645     172.5396     344.5662      1.602     4.64     1015.856     60.71125     136.8221        11     1.151     0.711  19.33   0
       543    709.0398     36.6611 307.6523209  +6.6824467     1584.741     2669.769     2930.026     86.33816      172.266     344.4977      1.797     3.89       1023.7     60.71125     236.7865        17     1.262     0.893  65.66   0
       544    220.5863     32.6055 307.8555170  +6.6677685     659.4505     1322.835     853.4716     85.92735     171.9919     344.2922      1.947     5.14     1049.991     60.71125     90.95288         8     1.086     0.688  37.70   0
       545    274.5687     31.4951 307.8331139  +6.6700383     704.4929     1046.131     1531.616     86.47466     172.0605     344.4977      1.531     5.33     1050.008     60.71125     97.05383         7     1.015     0.789 -53.24   0
       546    197.4042     29.8302 307.8652480  +6.6681363     8425.569     16369.38     16919.41     85.78997      172.129     344.1895      2.002     4.50      1049.94     60.71125     887.8536        49     1.678     1.403  39.54   0
       547     11.0115     30.5689 307.9427053  +6.6615676     818.5008     1224.858     668.4078     85.78997     171.9919     344.2922      1.562     5.93     1054.766     60.71125     143.8519         9     1.148     0.862  21.80   0
       548    541.5282     28.0806 307.7222503  +6.6803911     2263.694     4433.375     4693.106     86.61095     172.5396     344.4635      2.007     5.13     1025.792     60.71125     263.6165        30     1.675     1.163  29.91   0
       549    942.9479     27.4463 307.5553872  +6.6940534     4086.083     6213.521     6171.127     86.47466     172.1975     344.4977      1.649     3.75     1016.263     60.71125     533.7032        24     1.412     0.913  42.95   0
       550    744.0532     26.1499 307.6381197  +6.6879562     1700.221     3012.528     3513.132     86.47466     172.1975     344.4635      1.949     4.91     1021.682     60.71125     217.8423        21     1.472     0.975  32.13   0
       551    479.9980     26.3875 307.7478872  +6.6790313     1503.974      2871.08     3079.324     85.92735     171.9233     344.1895      2.041     6.90     1028.008     60.71125      164.672        18     1.357     0.984  -4.83   0
       552   1007.7406     23.7721 307.5285737  +6.6977283     1790.275       2575.1     2180.155     85.92735     172.3344     344.3265      1.573     3.84     1011.701     60.71125     262.6398        15     1.226     0.844  37.52   0
       553    991.9245   1019.0555 307.5016430  +6.2861977     670.6957     1009.172     1176.548     86.20144     172.1975     326.0641      1.845     4.52     1061.837     60.71125     148.8539         8     1.150     0.504  52.75  16
       554    768.5912   1011.0527 307.5946880  +6.2820624     8398.611     11954.92      11998.4     85.78997      172.129     344.1209      1.547     4.15     1067.387     60.71125     1068.524        28     1.456     0.876  43.38   0
       555    564.1681   1011.6431 307.6795864  +6.2749942     4340.334     6748.729     7229.715     85.78997     172.1975      344.258      1.667     3.93      1072.54     60.71125     583.1484        26     1.508     0.935  40.77   0
       556    534.1083   1012.6970 307.6920376  +6.2735543     1101.835     1918.914     1640.184     86.33816     172.8129      344.395      1.884     6.27     1072.934     60.71125     151.0234        14     1.494     0.739  34.35   0
       557    314.2305   1010.4863 307.7834476  +6.2671094      15289.4     23094.62     24185.04     86.47466     171.9919     344.3265      1.668     3.85     1076.034     60.71125     1939.707        44     1.560     1.090  42.22   2
       558    318.4671   1007.7411 307.7817807  +6.2683849     1071.708     1745.071       1831.9     86.47466     172.1975     344.4293      1.703     5.20     1075.933     60.71125     140.3359        10     1.309     0.583  43.27   3
       559    438.5237   1010.7662 307.7318082  +6.2711550     971.5874     1369.944     1022.872     86.20144      172.266      344.395      1.644     6.13     1075.048     60.71125     127.3214        12     1.169     0.904  63.11   0
       560    829.6366   1010.4055 307.5693509  +6.2843649     1283.596     1887.222      1966.11     85.37653     171.9919     344.2237      1.442     3.86     1065.778     60.71125     228.5784        13     1.198     0.708  38.54   0
       561     11.2576   1011.2596 307.9092684  +6.2566259     705.8128     1020.182     654.2189     86.47466     172.1975     344.4635      1.650     3.61     1079.388     60.71125     114.0967         5     0.964     0.389  45.04   0
       562    285.5761   1007.7491 307.7954429  +6.2672796     990.4346     1488.342     1338.529     85.92735      172.266     344.3265      1.611     6.05     1076.462     60.71125     136.8754        11     1.326     0.776  49.59   0
       563    929.9618   1004.3915 307.5278768  +6.2901907     9495.603     13922.37     13899.98     85.51456     171.9919     344.1209      1.541     4.06     1064.591     60.71125     1371.708        30     1.473     0.929  48.34   0
       564    561.2962   1003.8174 307.6810437  +6.2781298     8626.379     12957.08     14362.01     86.20144     172.0605     344.2237      1.650     4.12     1072.357     60.71125     1063.632        31     1.457     0.981  41.88   0
       565    903.5421   1000.5853 307.5389801  +6.2908826     13493.12     19883.73     20318.02     85.65238     172.1975     344.1552      1.618     4.28     1064.735     60.71125     1849.254        41     1.487     1.103  33.55   0
       566     13.6455   1002.8126 307.9085634  +6.2601941      596.416     751.6683     781.7543     85.65237     172.0605     344.1552      1.262     2.31     1078.961     60.71125     122.3646         5     0.720     0.437  70.16   0
       567    616.1385   1000.9869 307.6583576  +6.2811309     1414.807     2110.648     2309.957     85.78997     172.0605     344.1209      1.589     4.55     1071.326     60.71125     216.5154        13     1.351     0.694  33.55   0
       568    547.6417    999.6375 307.6868571  +6.2793995     4293.562     6635.351     7576.955      86.0645      172.266     344.2922      1.733     3.76     1072.426     60.71125     580.2617        29     1.546     1.022  27.28   0
       569   1023.7472    999.2161 307.4890905  +6.2954492     2012.718     2226.306     2136.215      73.8185     135.5589     257.4157      0.940     2.16     1059.025     60.71125     591.1587         8     0.924     0.434  88.43  24
       570    657.3622    998.9878 307.6413005  +6.2833330       1577.9     2178.014     2316.678     85.78997     172.0605     344.1209      1.499     4.60     1069.397     60.71125     229.6108        14     1.204     0.887  30.55   0
