#   1 NUMBER                 Running object number                                     
#   2 X_IMAGE                Object position along x                                    [pixel]
#   3 Y_IMAGE                Object position along y                                    [pixel]
#   4 ALPHA_J2000            Right ascension of barycenter (J2000)                      [deg]
#   5 DELTA_J2000            Declination of barycenter (J2000)                          [deg]
#   6 FLUX_APER              Flux vector within fixed circular aperture(s)              [count]
#   9 FLUXERR_APER           RMS error vector for aperture flux(es)                     [count]
#  12 FLUX_RADIUS            Fraction-of-light radii                                    [pixel]
#  13 FWHM_IMAGE             FWHM assuming a gaussian core                              [pixel]
#  14 BACKGROUND             Background at centroid position                            [count]
#  15 THRESHOLD              Detection threshold above background                       [count]
#  16 FLUX_MAX               Peak flux above background                                 [count]
#  17 ISOAREA_IMAGE          Isophotal area above Analysis threshold                    [pixel**2]
#  18 A_IMAGE                Profile RMS along major axis                               [pixel]
#  19 B_IMAGE                Profile RMS along minor axis                               [pixel]
#  20 THETA_IMAGE            Position angle (CCW/x)                                     [deg]
#  21 FLAGS                  Extraction flags                                          
         1    648.6101     15.3873 307.6691965  +6.6945995     12602.63     17142.77     18093.44     80.80437       161.48     323.3139      1.443     3.03     882.8111     57.00068     2199.806        32     1.284     1.009 -22.25   0
         2    526.2155     15.0267 307.7200582  +6.6906468     1520.967     2146.873     1927.766     80.67559     161.5444     323.2818      1.479     3.36     884.8546     57.00068     244.4883        14     1.147     0.829 -29.28   0
         3    813.2139     14.7600 307.6008306  +6.7003662     1808.447     2630.081      2704.01     80.54662     161.5444     323.1209      1.436     2.96     879.1652     57.00068     337.8315        15     1.086     0.836 -15.57   0
         4    249.0356     12.1523 307.8353081  +6.6825257     7077.598      10779.1     11359.87     80.67559     161.7374     323.2818      1.622     3.54     904.9813     57.00068     1082.596        37     1.761     0.989 -23.91   0
         5    640.2378     10.8114 307.6728288  +6.6962083     10158.29     14098.87     15010.84     80.54662     161.5444     323.0566      1.437     3.08     882.6487     57.00068      1803.05        36     1.311     1.052 -17.89   0
         6    410.1528     10.8190 307.7684183  +6.6884899     9093.885     12782.93     13222.14     80.54662     161.7374     323.1853      1.459     3.12     892.0136     57.00068     1466.739        31     1.277     1.042 -22.33   0
         7    725.6013      9.6629 307.6374020  +6.6995403     2179.852     3031.961     3381.709     80.41743     161.5444     323.1209      1.536     3.31     879.9934     57.00068     343.7656        19     1.177     0.934 -21.90   0
         8    672.2042      8.3989 307.6596291  +6.6982748     12140.22     28709.32      33037.4     80.41743     161.2867     323.0887      2.358     8.93      882.877     57.00068     2590.502        58     2.423     1.039 -33.80  16
         9    153.2088      9.5180 307.8752067  +6.6803892     559.1937     827.4559      881.735     80.67559     161.3512     323.2174      1.204     2.43     904.8052     57.00068     120.4459         5     0.707     0.447 -23.98   0
        10    189.0197      7.5031 307.8603978  +6.6824263     1270.226     2273.805     2373.946     80.93293     161.5444     318.9105      1.910     3.72     904.3696     57.00068      196.946        15     1.223     0.885  -2.84  18
        11    649.6447      6.7150 307.6690584  +6.6982146      3280.83     4713.661     5740.822     81.06129      161.673     313.3524      1.517     3.11     882.6464     57.00068     583.7589        20     1.282     0.846 -13.48  16
        12     56.4723      3.8055 307.9155868  +6.6794896     3581.451     5226.456     5358.479     80.67559     157.9649     281.1006      1.554     3.14     908.4514     57.00068      571.037        25     1.282     1.053 -30.14  24
        13    938.7397      3.4940 307.5490562  +6.7092114     858.2165     1180.366     1084.438     80.93293      155.711     276.8144      1.580     5.08     875.2387     57.00068     134.1177         9     1.140     0.640 -28.40  16
        14    147.0901      1.7646 307.8780107  +6.6833841     4991.393     6517.444     6863.596     75.89442     135.1193     250.4296      1.369     3.83     904.6816     57.00068     966.2097        20     1.437     0.710 -13.38  24
        15     79.0800      1.5125 307.9062725  +6.6811979     642.4528     916.3224     657.5551      72.6753     131.6901     246.4539      1.280     2.83     907.7089     57.00068     152.8773         6     0.791     0.621 -34.29  24
        16    108.2580    996.7194 307.8605239  +6.2713092     794.2156     1064.023     964.9811     81.06129     161.7374     323.3461      1.196     2.88     929.5697     57.00068       163.43         7     0.831     0.612 -71.20   0
        17    746.0193   1022.2812 307.5949186  +6.2821440     8421.273     12113.84     12267.55     80.67559     147.2693     265.4641      1.520     3.11     919.5189     57.00068     1314.345        32     1.304     1.125 -23.34  24
        18    541.5422   1022.8529 307.6797828  +6.2750650       4635.1     6339.062     6610.955     79.24529     140.4763     256.5816      1.449     3.21     924.7241     57.00068     876.1474        22     1.272     0.890 -12.35  24
        19    512.0840   1023.6674 307.6919841  +6.2737418       971.04     1238.061     1129.176     70.79108     128.7357     243.2266      1.186     3.61     924.5878     57.00068     257.2881        10     1.304     0.464  -3.93  24
        20    416.1517   1022.2841 307.7318535  +6.2710969     1093.561     1471.195     1201.328     81.06129     147.6923     265.4641      1.378     3.86       924.83     57.00068     197.5802        13     1.169     0.804 -27.44  24
        21    291.7522   1021.6059 307.7835156  +6.2672020      16138.4     23151.87     24751.05     80.54662      154.639      275.119      1.544     3.32     929.5795     57.00068     2642.279        47     1.747     1.026 -29.58  24
        22    618.8536    995.8486 307.6485964  +6.2888032     944.8649     1370.088     1308.712     81.06129     161.7374     323.4104      1.527     3.65      921.235     57.00068     193.2161         9     0.983     0.881  -8.18   0
        23    810.6133    993.4644 307.5690698  +6.2962005     2443.061     3998.888     4437.367     80.54662     161.5444     323.2496      1.824     3.40     916.0312     57.00068     402.5205        27     1.394     1.119 -15.64   0
        24    758.8392    991.1997 307.5906393  +6.2954053     7269.153     10774.26     11697.52     80.02863     161.5444     323.0887      1.567     3.14     918.0964     57.00068     1239.658        34     1.344     1.217 -38.13   0
        25    545.7371    990.6747 307.6791232  +6.2884909     956.7007      1010.48     1121.291     81.31741     161.7374     323.3782      1.271     5.08     924.3506     57.00068     152.0889        10     1.116     0.679 -29.55   0
        26    192.9676    989.9520 307.8255890  +6.2769517     1061.194     1456.159     1672.141     80.80437     161.7374     323.3139      1.537     3.82     929.5701     57.00068     166.8097        11     0.904     0.888  37.01   0
        27    228.4307    990.1071 307.8108627  +6.2780795     1736.585     2400.158     2567.137     81.18945     161.5444     323.3782      1.424     3.58     929.5513     57.00068     308.9081        13     1.156     0.746 -26.61   0
        28    947.0503    986.4026 307.5126652  +6.3036717     6907.449     10477.02     10939.94     80.41743     161.3512       322.96      1.623     3.23     912.8707     57.00068     996.6783        35     1.412     1.140 -26.28   0
        29     53.2369    988.2449 307.8836493  +6.2729564     3036.167     4408.364     4657.864     80.80437     161.7374     323.2818      1.533     3.39     929.4778     57.00068     466.1757        21     1.240     0.948 -41.95   0
        30    203.7287    982.2406 307.8213821  +6.2804971      629.873     1113.115     1204.196     80.93293     161.7374     323.4425      2.391     4.65     929.5153     57.00068     106.0566         7     1.225     0.502 -35.77   0
        31    629.7310    980.7471 307.6445881  +6.2954022     819.6558     1135.656     653.8265     80.93293      161.673     323.2818      1.390     3.05     920.9179     57.00068     126.6847         8     0.889     0.612  -4.53   0
        32    920.9315    977.9839 307.5237904  +6.3062759     2118.932     3242.378     3601.456     80.54662      161.673     323.2818      1.603     3.57     914.0147     57.00068     301.5126        18     1.164     1.008 -31.74   0
        33    253.6665    974.1740 307.8009242  +6.2855055     4954.046     6926.113     6895.498     80.67559     161.6087     323.2818      1.481     3.03     929.4776     57.00068     907.8796        26     1.368     0.905 -26.23   0
        34    780.2939    974.5953 307.5822895  +6.3029779     1422.683     2021.563     2138.786     80.80437     161.4156     323.1209      1.483     4.14     916.8101     57.00068     260.4891        15     1.278     0.883 -23.69   0
        35    641.4666    973.9639 307.6399440  +6.2985956     5071.212     6847.845     7395.755     80.93293     161.7374     323.4425      1.461     3.17     920.6406     57.00068     936.5359        25     1.293     0.950 -18.03   0
        36    991.2324    973.9533 307.4947396  +6.3102856      701.723     863.7546     1244.465     80.80437     161.7374     323.2818      1.448     4.66     909.2197     57.00068     88.58563         8     0.987     0.624 -23.83   0
        37    463.9699    972.2258 307.7136877  +6.2933676     1252.301     1782.789     1908.887     80.54662     161.5444     323.2174      1.417     3.21     924.7644     57.00068     249.8779        11     1.106     0.730 -55.72   0
        38    873.7123    970.5299 307.5436433  +6.3077772     975.5761     1547.337     1519.414     81.18945     161.9943     323.3782      1.880     4.61     914.8549     57.00068     151.6892        10     1.180     0.717 -89.21   0
        39     22.3856    971.4701 307.8970225  +6.2788434     2527.111     3782.501     3764.055     80.54662      161.673     323.2818      1.605     3.48     929.4829     57.00068     367.0312        18     1.242     0.890 -33.73   0
        40    965.3616    968.2621 307.5056706  +6.3117724     681.7029     911.7255     430.7204     81.06129     161.7374     323.4104      1.359     4.89     910.8682     57.00068     92.95111         8     1.221     0.554 -66.34   0
        41    998.0991    965.9878 307.4921555  +6.3138034     852.6634     1935.281     2051.059     80.80437       161.48     323.1531      2.327     7.62     908.7031     57.00068     151.4151        14     1.828     0.914 -68.81   0
        42    945.4670    967.5851 307.5139526  +6.3113882     662.2765     1046.711     825.9847     80.54662     161.6087     323.2818      1.521     3.66     912.1768     57.00068     130.1963         5     0.934     0.491  -3.22   0
        43    566.1656    966.4495 307.6714569  +6.2991770     1998.506     2716.411       2349.7     80.93293     161.7374     323.3139      1.379     3.24     923.1631     57.00068     332.8269        16     1.207     0.785 -27.04   0
        44    290.2207    967.6252 307.7859706  +6.2894370     782.5328     952.8396     549.4109     80.67559     161.5444     323.3139      1.381     4.40     929.4285     57.00068     153.6558         8     1.287     0.427 -10.80   0
        45    605.5021    962.7632 307.6552506  +6.3020161     1569.231     2038.627     1075.137     81.06129     161.6087      323.539      1.320     2.67     921.2958     57.00068     266.9362        12     0.959     0.770 -48.27   0
        46     55.4057    962.9655 307.8836030  +6.2834661     850.5583     1375.291     2265.194     80.28804     161.5444     323.1531      1.763     3.95     929.3318     57.00068     159.3595         9     0.945     0.764 -69.25   0
        47    285.4449    960.5920 307.7881902  +6.2921803     1774.843     2474.748     2446.563     80.54662     161.6087     323.0887      1.414     3.05     929.4177     57.00068     295.6135        15     1.111     0.810 -24.51   0
        48    553.5148    958.5781 307.6769734  +6.3020031     625.6974      495.896     10.78354     80.93293     161.4156     323.3139      1.036     3.73     923.6467     57.00068       116.55         6     0.956     0.419 -17.72   0
        49    752.4506    956.9291 307.5944413  +6.3093411     934.8262     1355.216     785.4267     81.06129     161.7374     323.4104      1.497     3.07     917.6136     57.00068     143.4424         9     0.886     0.674 -25.34   0
        50    889.6824    953.1597 307.5375952  +6.3154822     7609.246     11047.13     11722.12     81.06129     161.8016     323.3139      1.558     3.10     913.7033     57.00068     1264.614        30     1.355     1.048 -13.31   0
        51    127.5819    954.5145 307.8539273  +6.2893837     787.9976     1106.341     766.1053      80.6756       161.48     323.3139      1.450     5.15     929.1613     57.00068     102.8559         9     1.364     0.550 -14.87   0
        52    425.5945    950.4421 307.7303517  +6.3010745     2538.856     3320.385     3116.046     80.41743     161.4156     323.0887      1.391     3.13     925.8295     57.00068     451.9729        17     1.157     0.831 -21.34   0
        53    594.2020    950.2296 307.6603630  +6.3068126     544.4878     678.8812     794.9516     80.54662     161.5444     323.1853      1.420     4.38     921.7486     57.00068     78.08789         5     0.764     0.714 -35.64   0
        54    327.2433    948.7591 307.7712373  +6.2984692      10626.9     14799.69     15405.14     80.80437     161.7374     323.2496      1.438     3.04     928.7943     57.00068     1813.956        35     1.348     1.021 -25.57   0
        55    247.3758    947.5778 307.8044324  +6.2962747     7962.467     11171.36     11771.98     80.67559     161.5444     323.3461      1.456     3.22     929.3577     57.00068     1285.727        29     1.299     0.987 -24.34   0
        56    166.2708    946.1497 307.8381492  +6.2941382     655.7823     864.4465     1048.964     81.06129      161.673     323.4104      1.419     2.76     929.2054     57.00068     118.3146         6     0.731     0.616 -16.66   0
        57    575.1165    942.1476 307.6685579  +6.3095103     1397.875     2067.374     2632.614     81.06129     161.7374     323.4747      1.662     4.20     922.5368     57.00068     291.7396        11     1.244     0.633 -11.34   0
        58    905.7520    938.3109 307.5314212  +6.3221493     1153.787     1747.369     2214.396     81.06129     161.6087      323.539      1.868     3.89     912.3973     57.00068     158.9987        13     1.106     0.832 -62.95   0
        59    138.0771    937.8962 307.8501315  +6.2965976     620.7736     856.1453     810.6304     80.80437     161.9301     323.4425      1.494     5.63     929.0253     57.00068     99.09045         9     1.149     0.776 -55.00   0
        60    862.0461    937.0626 307.5496081  +6.3212055     758.2404     1150.372     1341.711     80.93293     161.6087     323.4425      1.448     3.06     914.2172     57.00068     129.0173         5     0.662     0.547  -1.20   0
        61    404.8245    936.1583 307.7394550  +6.3062752     755.9285     1098.932     1338.056     80.67559      161.673     323.1531      1.665     3.22     926.7394     57.00068     126.5653         8     0.919     0.707  75.91   0
        62    209.7493    937.4506 307.8203937  +6.2991913     471.1355      608.647     353.9525     81.06129     161.6087     323.3139      1.285     3.40     929.2614     57.00068     88.10834         5     0.767     0.437 -22.17   0
        63    972.4740    933.9600 307.5038662  +6.3261723     803.9802     1308.775     2077.546     80.93293     161.7374     323.4104      1.833     4.78     909.5674     57.00068      108.408         7     1.167     0.554  -1.14   0
        64    834.8694    932.0146 307.5610601  +6.3223820     670.7375     929.0531     523.5729     80.54662     161.6087     323.2818      1.505     5.23     914.6556     57.00068     100.6431         8     1.209     0.667 -20.41   0
        65    741.8876    931.4597 307.5996812  +6.3195036     1840.473     2588.058     2497.977     81.06129     161.8659     323.4747      1.488     3.82     917.3172     57.00068     308.3263        16     1.306     0.785 -27.40   0
        66    565.7777    931.8248 307.6727818  +6.3134594     701.4454     811.4922      465.759     80.54662     161.5444     323.3461      1.110     2.12     922.8457     57.00068     237.8744         5     0.830     0.376  -4.10   0
        67    334.3449    929.7474 307.7689297  +6.3065568      534.346      627.053     848.1202     81.31741     161.7374     323.3461      1.238     4.28     928.8928     57.00068     114.9244         5     1.116     0.467 -84.97   0
        68    973.0955    927.1827 307.5038351  +6.3289912     1301.016     2124.246     2534.097     80.93293     161.5444     323.2174      1.634     4.10     909.3354     57.00068     207.8595        13     1.186     0.818  -4.57   0
        69    605.9238    927.9216 307.6562463  +6.3164153     906.6561     1295.353     936.1781     81.31741     161.9943     323.4747      1.512     3.95     921.0275     57.00068     184.7853         8     1.155     0.587 -18.93   0
        70    618.3276    927.3148 307.6511172  +6.3170811      531.549      605.092     673.1259     81.18945     162.0584     323.4104      1.191     3.21     920.6208     57.00068     114.4966         5     0.744     0.450  77.00   0
        71    526.9710    927.0840 307.6890518  +6.3141168     1278.101     1699.194     1237.151     81.06129       161.48     323.2496      1.379     3.79     923.9006     57.00068     203.1478        12     1.136     0.682 -12.18   0
        72    660.2990    924.7985 307.6337770  +6.3195248     2811.622     3679.084     3881.232     80.54662       161.48     323.0887      1.367     3.50     919.4451     57.00068     470.9457        16     1.219     0.771 -26.67   0
        73    951.0381    922.2706 307.5131571  +6.3302834     660.7757     917.7532     949.1927     80.93293     161.7374     323.4425      1.318     3.78     909.9387     57.00068     115.3082         6     1.009     0.512  81.46   0
        74    821.7102    920.8692 307.5668970  +6.3265440     985.1529      1470.49     1553.747     81.18945     161.9301     323.3782      1.718     6.37     914.6533     57.00068       136.92        11     1.134     1.006 -46.23   0
        75     56.8938    920.8011 307.8844097  +6.3009238     3076.187     4692.183     5066.845     80.54662     161.2867     323.0566      1.609     3.16     929.0706     57.00068     490.2603        24     1.305     0.982 -16.89   0
        76    200.5590    919.7263 307.8248068  +6.3062001     2428.155     3603.285     3681.581     80.93293     161.8016     323.4104      1.549     3.43      929.179     57.00068     437.2993        24     1.379     1.117  -0.75   0
        77     74.4346    920.0463 307.8771536  +6.3018259     2116.843     3103.847     2655.481     80.67559      161.673     323.2818      1.582     3.69     928.9299     57.00068     366.2946        19     1.321     0.919 -41.70   0
        78    938.7803    920.1603 307.5183169  +6.3307457     828.4894     1138.519     1477.405     80.67559     161.5444     323.1209      1.381     4.81     910.3279     57.00068      105.164         8     0.989     0.662  28.10   0
        79    654.9995    913.8253 307.6363457  +6.3238779     7790.678     10928.58     11417.02     80.67559     161.4156     323.1853      1.431     3.12      919.248     57.00068     1269.656        29     1.298     0.975 -25.38   0
        80    339.3960    915.8730 307.7673003  +6.3124546     1100.212     1532.588     1718.287     80.54662     161.2867     323.2174      1.384     4.32     928.8535     57.00068     198.6854        10     1.290     0.707 -16.69   0
        81    234.6605    916.2615 307.8107670  +6.3087766     883.8849     1305.407     1755.305     81.06129     161.7374     323.4104      1.603     4.02     929.2426     57.00068     195.4246        10     1.218     0.600 -21.52   0
        82    792.5439    914.7399 307.5792114  +6.3281001     864.7511     1121.855     865.2149     81.18945     161.7374     323.4104      1.403     3.54     915.2638     57.00068      157.746         8     1.062     0.531 -19.84   0
        83    892.7863    910.2247 307.5377451  +6.3333127     3081.293     4522.808     4440.208     80.80437     161.5444     323.3139      1.547     3.35     912.0251     57.00068     491.5823        27     1.348     1.089 -41.25   0
        84     15.1396    911.8814 307.9020441  +6.3032006     1357.116     1761.193     1677.818     81.18945     161.7374     323.3461      1.510     3.79     929.3036     57.00068     235.4862        13     1.164     0.806 -13.48   0
        85     28.4854    910.4271 307.8965532  +6.3042504     1144.521     1429.623     1553.011     81.18946       161.48     323.2496      1.259     3.00     929.1955     57.00068     189.1444        10     1.014     0.663 -23.77   0
        86    923.6106    909.0044 307.5249886  +6.3348454     503.0076     799.2051     839.2294     80.67559     161.4156     323.2818      1.574     4.70     910.7218     57.00068     80.20441         5     1.092     0.574 -12.82   0
        87    338.0470    906.9420 307.7681612  +6.3160966      18253.9     25471.03     26640.92     81.06129     161.7374     323.5068      1.435     3.24     928.8541     57.00068     2912.044        40     1.341     1.058 -24.70   0
        88    208.9626    906.4809 307.8217650  +6.3119510      1272.55     1684.925     1969.479     81.06129     161.8016     323.3139      1.432     4.05     929.1896     57.00068     186.1971        14     1.237     0.797 -44.89   0
        89     72.6365    908.0105 307.8783066  +6.3067344     1524.748     2102.998     2313.249     80.54662     161.5444     323.1209      1.370     3.26     928.8962     57.00068     295.3712        12     1.094     0.695 -14.16   0
        90    415.7566    897.8102 307.7362076  +6.3224744     1264.498     1545.569     1075.694     80.54662     161.5444     323.0887      1.351     4.47     926.4626     57.00068     208.5132        12     1.115     0.895  -9.16   0
        91    101.3649    897.7122 307.8667284  +6.3119528     1832.713     2561.866     3319.469     81.06129     161.6087     323.3782      1.562     3.61     928.7689     57.00068      301.244        16     1.228     0.868 -31.44   0
        92    669.2489    894.0789 307.6310930  +6.3325075     937.8272     1253.361      1730.81     81.06129     161.8016     323.3461      1.552     4.04     918.3284     57.00068     153.0749        10     1.117     0.607 -24.15   0
        93    496.6713    894.5733 307.7027243  +6.3265240     569.0704     642.5891      906.269     80.67559     161.6087     323.3139      1.046     3.38     923.8221     57.00068     113.2623         5     0.990     0.334 -23.05   0
        94    883.2288    891.7728 307.5423315  +6.3406119     1977.063     2598.537      2631.69     80.54662     161.5444     323.1853      1.407     3.10     911.8444     57.00068     310.4808        15     1.128     0.800 -26.85   0
        95    854.0062    891.3041 307.5544798  +6.3398295     2442.835     3393.259     3286.152     80.80437     161.4156     323.1853      1.413     2.76     912.7839     57.00068     416.5756        17     1.088     0.895 -23.62   0
        96    817.2789    890.8461 307.5697435  +6.3387917     3488.158     4761.715     5193.344     81.06129     161.7374     323.3461      1.413     3.15     913.9611     57.00068     565.2766        19     1.197     0.851 -31.80   0
        97     84.9153    891.1683 307.8737782  +6.3141010     2748.531      3677.78     4197.414     81.06129     161.5444     323.2818      1.403     3.12     928.7923     57.00068     471.3331        18     1.133     0.885 -26.90   0
        98    553.1134    882.1898 307.6797081  +6.3335280     370932.2     516478.3     535590.6     80.67559     161.4156     323.2174      1.444     4.47     922.3521     57.00068     63782.86       149     1.496     1.227 -28.35   4
        99    333.0707    888.9490 307.7708333  +6.3233582     747.4409     967.6125     1618.734     80.93293      161.673     323.4104      1.305     3.37     928.8708     57.00068     153.1171         8     0.928     0.644  -1.85   0
       100    640.9457    885.3320 307.6431374  +6.3351717     1337.242     1787.188     1783.633     81.06129      161.673     323.2818      1.464     4.01     918.6884     57.00068     240.0815        13     1.279     0.803 -26.89   0
       101    397.3553    884.7190 307.7442878  +6.3272620      8661.39     11980.83     12535.33     81.06129     161.7374     323.3461      1.432     3.10     927.1521     57.00068     1562.771        33     1.324     1.058 -29.82   0
       102    340.5833    883.1599 307.7679095  +6.3260005      14587.2     20000.01     20778.77     80.67559     161.6087     323.1853      1.445     2.77     928.8183     57.00068     2794.548        36     1.303     1.034 -28.26   0
       103    891.3688    878.4445 307.5393985  +6.3463866     5724.062     8452.181      9476.87     80.67559     161.8016     323.2496      1.591     3.30     911.1422     57.00068     998.7078        28     1.350     1.016 -22.04   0
       104    658.9684    879.5807 307.6358480  +6.3381494     3890.961     5367.268      5519.82     80.54662     161.5444     323.2496      1.426     3.05     918.1456     57.00068     609.6586        20     1.215     0.870 -25.68   0
       105    730.5595    875.9586 307.6062468  +6.3420397     987.4133      1336.29     1241.082     80.80437     161.7374     323.2496      1.497     4.27     915.8901     57.00068     174.6374        12     1.223     0.724 -26.65   0
       106   1023.4501    872.7587 307.4847505  +6.3531411     2216.894     2620.432     2696.684     73.24532      131.769     246.8754      1.183     3.19     904.3154     57.00068     427.9314        13     1.210     0.618 -79.00  24
       107    822.2203    872.7233 307.5682996  +6.3464393     1784.365     2730.438     2843.831     80.67559       161.48     323.3139      1.645     3.87     913.2912     57.00068     281.3379        19     1.317     0.941 -27.87   0
       108    743.7207    873.6619 307.6008596  +6.3434280     482.4752     414.7849     175.5396     81.18945     161.8016     323.3782      1.096     3.77     915.4642     57.00068     98.92303         5     0.918     0.445  46.00   0
       109    633.8516    873.4556 307.6464816  +6.3398376     3799.163     5200.212      5332.06     81.06129     161.7374     323.3461      1.474     3.29     918.4556     57.00068     662.9321        22     1.248     0.913 -19.30   0
       110    624.2276    872.5816 307.6505066  +6.3398763     1119.225     1632.804      2025.06     80.67559     161.5444     323.2818      1.411     2.71      918.662     57.00068     224.8558         9     0.833     0.718   3.54   2
       111    626.7494    868.1158 307.6496097  +6.3418045      2393.87     3409.778     3793.804     81.06129      161.673     323.4747      1.475     3.00     918.4352     57.00068     460.2109        15     1.143     0.837 -53.84   3
       112    949.1871    871.7351 307.5156179  +6.3510866     837.1014     1062.404     1224.171     80.54662     161.5444     323.2818      1.419     4.01     908.7042     57.00068     120.7229        10     1.065     0.797 -11.46   0
       113    910.2939    866.1511 307.5319530  +6.3520941     3305.998     4930.964     5317.613     80.93293     161.6087     323.5068      1.576     3.48     910.2941     57.00068     551.1289        27     1.353     1.089 -20.83   0
       114    320.6147    866.6946 307.7767544  +6.3321280     1103.163     1543.729     1318.732     80.80437       161.48     323.1853      1.441     3.31     928.9081     57.00068     229.3132        10     1.053     0.810 -21.14   0
       115    368.4337    862.0803 307.7570573  +6.3356382     2937.629     3932.735      4132.58     80.93293     161.7374     323.3782      1.453     3.04     928.1008     57.00068     588.1066        17     1.212     0.834 -32.08   0
       116    504.6678    851.9358 307.7008387  +6.3443956     3461.266     4550.914     4276.676     81.06129     161.7374     323.4104      1.419     2.96     922.9803     57.00068      661.993        21     1.276     0.854 -23.29   0
       117    849.5842    850.9398 307.5576688  +6.3563473     1161.526     1419.193      1952.36     80.54662      161.673     323.1209      1.216     2.39     911.6122     57.00068      261.868        10     0.928     0.632 -30.48   0
       118    233.2261    836.5095 307.8140523  +6.3416548     894.9375     2349.286     5245.715     81.18945       161.48     323.2174      4.782     8.01     929.0251     57.00068     92.60681        15     1.419     1.264  37.23   2
       119    233.5697    847.7000 307.8135322  +6.3370462     660.3231     1690.479     4010.045     81.06129       161.48     323.4747      7.612     9.85     929.0676     57.00068     98.44177        17     2.484     1.089 -69.86   2
       120    570.6309    849.0112 307.6735508  +6.3478132      845.139     1068.898     1018.826     80.54662       161.48     323.2496      1.343     3.28     920.2355     57.00068     144.3795         7     0.851     0.564 -61.02   0
       121    551.5696    848.0125 307.6814982  +6.3475870     6933.926     9391.264     9295.622     80.54662       161.48     323.3139      1.434     2.74      921.111     57.00068     1364.246        27     1.229     0.992 -21.76   0
       122    263.8819    848.0689 307.8009353  +6.3379124     799.6278     1132.383     1059.293     81.31741     161.9943     323.4104      1.529     3.46     929.0187     57.00068     176.7511         8     1.026     0.800 -80.78   0
       123    558.4598    847.5300 307.6786537  +6.3480170     1415.707     1875.321     1902.115     81.18946     161.7374     323.4104      1.434     3.62      920.821     57.00068     253.8105        13     1.114     0.800 -31.38   0
       124    469.4348    846.8582 307.7156374  +6.3453109     1803.943      2438.81     2306.226     80.93293     161.7374     323.3782      1.322     3.05     924.1596     57.00068     346.8335        15     1.058     0.854 -27.89   0
       125    110.8596    846.0630 307.8645310  +6.3335958     1555.066     2295.771     2453.176     81.06129      161.673     323.4104      1.462     3.97     928.7563     57.00068     248.3735        13     1.232     0.735 -33.98   0
       126    887.2766    846.0062 307.5421846  +6.3596430     1570.653       2397.3     2161.565     80.67559     161.2223     323.2174      1.564     3.44     910.4134     57.00068     270.5481        14     1.206     0.731 -10.49   0
       127    687.1864    844.8946 307.6252973  +6.3534145     917.0148     1185.415     424.0336     80.80437       161.48     323.2174      1.316     4.75     916.2777     57.00068     158.9575         7     1.001     0.641   4.13   0
       128    522.1926    841.8718 307.6939014  +6.3491380     22309.23     30952.39     31821.48     80.54662     161.2223     323.2818      1.425     3.20     922.0522     57.00068     4117.379        41     1.350     1.035 -24.86   0
       129    363.2735    843.6119 307.7598217  +6.3430900     831.1149     1209.145     788.1104     80.54662     161.3512     323.2174      1.547     4.27     927.6483     57.00068     157.0726         7     1.243     0.418 -25.01   0
       130    168.4526    841.9761 307.8407591  +6.3372203     556.4736     577.9393     305.8019     80.54662     161.7374     323.2496      1.410     4.67     929.0635     57.00068     86.17456         7     1.542     0.402 -26.20   0
       131    935.8285    840.2087 307.5222202  +6.3636574     4199.544     5995.858     6094.083     80.67559     161.5444     323.2174      1.537     3.12      908.814     57.00068     717.9114        22     1.261     0.935 -14.41   0
       132     32.6878    832.1078 307.8974554  +6.3367261     1672.583     2340.729     2108.763     81.06129     162.1867     323.4747      1.479     3.21      928.585     57.00068     314.8291        14     1.080     0.904 -66.52   0
       133    314.7747    830.5912 307.7803956  +6.3468376     3829.546      5472.65     5806.881     80.67559     161.5444     323.2496      1.532     3.20     928.3344     57.00068     613.2506        22     1.284     0.918 -19.04   0
       134    780.3798    826.4514 307.5872233  +6.3641456     61657.17     85227.29     88357.36     80.54662     161.8016     323.1853      1.458     2.95     913.0306     57.00068     11505.55        65     1.398     1.115 -22.73   0
       135    623.8615    830.1168 307.6520854  +6.3573966     472.1752     473.8116    -188.8747     81.18945     161.7374     323.3782      1.411     5.08     917.5584     57.00068     90.83588         5     1.186     0.616 -23.78   0
       136     14.7232    828.6048 307.9050317  +6.3375674     2438.563     3410.953     3495.255     80.67559     161.2223     323.2496      1.523     3.19     928.5638     57.00068     389.0704        16     1.177     0.813 -29.42   0
       137    719.5261    828.0829 307.6124347  +6.3614373     842.5541     1180.523     561.8569     81.31741     162.0584     323.4425      1.500     3.77     914.8598     57.00068     128.7708         7     0.910     0.667  42.47   0
       138    237.8696    824.4180 307.8125323  +6.3468029     5747.573     9338.087     12475.35     80.54662     161.6087     323.3139      2.179     3.20      928.963     57.00068       1043.2        47     1.679     1.384 -45.32   0
       139    424.0768    824.7449 307.7352132  +6.3529196     956.5566     1324.476     1154.334     81.06129     161.7374     323.3782      1.302     2.44     925.1063     57.00068     169.3844         7     0.691     0.663   1.82   0
       140    708.6614    821.1059 307.6171799  +6.3639546     24299.23      33688.7     35334.55     80.93293     161.8016     323.4104      1.471     2.86     914.9247     57.00068     4801.332        50     1.402     1.110 -23.66   3
       141    702.3289    817.5336 307.6199290  +6.3652176      99421.5     136357.7     141874.6     81.06129     161.8016     323.3782      1.442     2.84     914.9958     57.00068     18164.78        76     1.416     1.136 -24.43   3
       142    905.5901    821.7043 307.5353952  +6.3702881     9522.418     13390.29     13951.84     80.80437     161.3512     323.1531      1.523     2.91     909.3768     57.00068     1536.806        32     1.327     1.040 -16.30   0
       143    396.7367    818.6526 307.7467694  +6.3545177     1591.064      2072.67     2215.482     81.06129      161.673     323.3461      1.276     2.78     925.7186     57.00068     282.0278        13     1.026     0.835 -41.95   0
       144    347.2117    818.3469 307.7673413  +6.3529818     23225.76     32445.92     33756.38     80.41743      161.673     323.0887      1.447     3.07     927.2109     57.00068     4190.807        44     1.341     1.068 -25.56   0
       145    409.0880    816.2308 307.7417229  +6.3559320     25025.69     34518.25      35604.3     81.18945     161.5444     323.3139      1.438     3.38     925.2581     57.00068     4413.521        43     1.373     1.022 -29.93   0
       146    636.2430    817.9574 307.6473532  +6.3628313     898.2318     1356.427     1412.093     80.80437     161.7374     323.1853      1.442     3.53     916.8782     57.00068     191.9955        10     1.146     0.752 -18.13   0
       147    946.3102    815.3073 307.5187023  +6.3742884     2293.265     3593.656     3712.505     81.06129     162.2508     323.4104      1.662     3.27     907.7856     57.00068     404.5035        19     1.194     1.017 -46.18   0
       148    237.0734    802.6557 307.8135968  +6.3557609     762140.9      1596247      1741955     80.93293     161.6087     323.3139      2.157     6.69     928.8795     57.00068     61925.56       558     2.281     2.111 -57.48   4
       149    902.5879    813.1620 307.5369279  +6.3737148     7502.526     10532.29     10628.86     80.67559     161.5444     323.0887      1.495     2.90     909.2451     57.00068     1393.215        30     1.351     1.008 -18.44   0
       150    875.5274    813.9771 307.5481363  +6.3724748     787.3575      834.637      131.703     80.67559     161.5444     323.3461      1.199     3.20     909.9578     57.00068       143.64         6     0.797     0.497  86.09   0
       151    643.1925    812.1259 307.6446638  +6.3654715     7209.627     10074.66     10163.29     80.67559     161.2867     323.2496      1.428     3.44     916.4738     57.00068      1389.99        28     1.326     0.936 -28.07   0
       152    133.1235    811.8654 307.8564427  +6.3484635     562.2316     970.1615     1171.271     81.18945     161.7374     323.3461      1.604     3.50     928.7645     57.00068     92.80957         6     0.763     0.562 -42.84   0
       153    431.9413    810.0836 307.7324416  +6.3592365     1909.464     2522.815     2473.193     81.06129     161.7374     323.4425      1.356     3.29     924.5833     57.00068     297.9661        13     1.060     0.793 -38.43   0
       154    157.3233    809.3514 307.8464807  +6.3503154     817.9999     984.1259     295.5954     80.93293     161.8016     323.3782      1.309     3.90      928.916     57.00068     139.3004         6     0.880     0.494 -45.44   0
       155    731.6570    806.7632 307.6081136  +6.3706454     481.9759     444.2925     12.60151     81.06129     161.7374     323.3782      1.007     3.12     914.0217     57.00068      93.1109         5     0.727     0.456  76.65   0
       156    871.1377    804.0138 307.5502929  +6.3764418     786.0751     1121.124     1172.425     80.54662     161.5444     323.1853      1.472     3.73     909.8564     57.00068     140.2504         8     0.944     0.644   1.53   0
       157    596.2835    804.0248 307.6644123  +6.3672458     931.0604     1053.042     1241.304     80.93293       161.48     323.3461      1.203     3.06     917.7668     57.00068     262.9087         8     0.936     0.666   2.00   0
       158    678.2804    802.2932 307.6304256  +6.3707054      2777.18     3946.186     3742.067     80.80437     161.9301     323.4425      1.497     3.66     914.9669     57.00068     544.5522        19     1.225     0.839 -19.87   0
       159    147.2734    803.1061 307.8508639  +6.3525558     967.6069     1366.578     1362.065     80.93293     161.8659     323.3782      1.473     2.98     928.8252     57.00068     168.6157         8     0.848     0.615 -40.64   0
       160    122.8010    802.6806 307.8610384  +6.3519082     1172.579     1569.558     1365.977     80.28804     161.1578     323.1531      1.299     3.21     928.6605     57.00068     240.1694        10     0.965     0.884 -36.10   0
       161    954.5093    800.7642 307.5157851  +6.3805665     904.9727      1295.25     1155.989     81.18945      161.673     323.4104      1.542     4.55     907.1157     57.00068     161.7214        10     1.147     0.727 -30.96   0
       162    412.0487    798.8866 307.7410777  +6.3631921     60511.01     83906.07     87129.45     81.06129      161.673     323.4104      1.439     3.27     924.6663     57.00068     10052.11        64     1.417     1.104 -25.54   0
       163    529.7855    797.9829 307.6922250  +6.3675128     8002.573     10944.07     11316.13     80.80437     161.4156     323.3139      1.452     3.15     919.8026     57.00068     1479.403        30     1.331     0.959 -29.60   0
       164     63.5034    800.4811 307.8857309  +6.3508208     581.4235     699.5659     1084.454     80.93294     162.0584     323.4425      1.706     4.55     928.4472     57.00068     102.2062         7     1.384     0.424 -11.56   0
       165    446.6082    796.5543 307.7268076  +6.3653142     5046.274     6861.217     7025.295     80.54662     161.6087     323.0244      1.447     2.81     924.0238     57.00068     864.6829        23     1.321     0.911 -31.07   0
       166    774.9834    794.5547 307.5905340  +6.3771345     13002.95     17951.19     18127.03     80.54662     161.6087     323.1531      1.433     3.08     912.2251     57.00068     1907.558        36     1.312     1.026 -23.01   0
       167    443.2689    790.0007 307.7284146  +6.3679080     2457.864         3325     3793.537     80.54662     161.2867     323.1853      1.338     3.42     923.8096     57.00068     492.9617        16     1.178     0.760 -24.09   0
       168      4.4474    790.8494 307.9105741  +6.3528086     1257.933     1963.297     2009.814     81.06129     161.6087     289.4467      1.730     4.03     928.3546     57.00068     212.7777        13     1.180     0.791 -22.53  16
       169    796.7168    788.8909 307.5817002  +6.3801994     1493.667     2033.265      2145.69     80.80437     161.9943     323.5068      1.435     3.39     911.2775     57.00068     267.5953        13     1.098     0.801 -16.71   0
       170    140.8557    786.7833 307.8540794  +6.3590789     3447.639     4678.447     4953.436     80.54662      161.673     323.1209      1.438     3.26     928.6786     57.00068     496.4935        20     1.173     0.926 -29.85   0
       171    132.6951    786.4337 307.8574793  +6.3589487     13223.47     18449.71     19586.15     81.18945     161.6087     323.4747      1.515     2.98     928.6223     57.00068     2164.112        40     1.386     1.096 -18.32   0
       172    125.0223    783.8830 307.8607509  +6.3597437      3123.02     4828.451     5804.404     80.80437     161.4156     323.2496      1.621     3.15     928.5605     57.00068     503.0714        26     1.341     1.141 -22.61   1
       173    969.9591    783.1508 307.5099599  +6.3883542     1546.724     2059.691     2519.361     81.18945     161.7374     323.3139      1.495     3.61     905.8943     57.00068     284.0469        16     1.242     0.902   1.79   0
       174    920.5041    783.1672 307.5304939  +6.3866971      7028.27     9746.301     9864.302     81.18945     161.6087     323.4747      1.480     3.16     907.9858     57.00068     1343.681        28     1.308     0.970 -12.39   0
       175    676.0995    780.8079 307.6320527  +6.3795031     1920.949     2390.004     2365.857     80.80437     161.3512     323.2174      1.273     3.16      914.572     57.00068     337.6004        14     1.136     0.699 -20.48   0
       176    562.8688    779.9055 307.6790969  +6.3760848      2626.07     3535.506     3941.422     80.93293     161.8016     323.4104      1.418     3.56      917.955     57.00068     465.0963        17     1.208     0.863 -29.44   0
       177    410.8423    779.2277 307.7422406  +6.3712681     1268.458       2065.5     2087.718     80.67559     161.7374     323.2496      1.639     4.87     924.1015     57.00068     226.3129        13     1.267     0.968 -67.98   0
       178    694.5233    778.2281 307.6244897  +6.3811846     636.6492     767.7621     555.6501     80.93293     161.7374     323.3461      1.132     2.41     914.1065     57.00068     131.8429         5     0.712     0.454  67.75   0
       179    125.2001    777.2880 307.8608998  +6.3624724     2129.904     2984.385      3286.51     80.28804     161.2223     323.0244      1.482     3.10     928.5169     57.00068     354.5998        18     1.197     0.857 -43.34   0
       180    944.2269    774.7319 307.5209264  +6.3909716     3299.847     4883.597       4902.1     80.67559     161.6087     323.2818      1.527     3.30     906.8488     57.00068      480.528        24     1.308     0.986 -21.27   0
       181    914.7374    775.1820 307.5331559  +6.3898015     3266.648     4400.542      4609.45     80.67559      161.673     323.2174      1.443     3.17     907.9174     57.00068     614.2527        21     1.226     0.885 -23.53   0
       182    975.0911    774.3791 307.5081228  +6.3921471     2061.602     2933.083     3057.004     80.93293     161.5444     323.2174      1.487     3.30     905.3961     57.00068     339.2826        16     1.202     0.850 -15.71   0
       183    667.1229    774.3836 307.6359957  +6.3818551     1547.488     2219.241     2631.476     80.54662       161.48     323.2496      1.556     3.15     914.7048     57.00068     310.7816        13     1.044     0.848   1.53   0
       184    814.8605    772.8880 307.5747034  +6.3874129      1111.12     1472.265     1806.577     81.06129     161.9301     323.4104      1.321     2.74     910.4278     57.00068      185.097         9     0.891     0.660  79.42   0
       185    889.9113    770.4653 307.5436223  +6.3909200     751.7275     841.2791     1023.362     81.06129     161.9301     323.3782      1.275     2.67     908.4608     57.00068      185.381         6     0.945     0.419 -60.63   0
       186    239.7590    769.2575 307.8136084  +6.3696399     1999.989     3225.369     4305.106     81.06129     161.7374     323.4104      1.785     3.26     927.9797     57.00068     333.0603        17     1.151     0.888 -41.72   0
       187    959.0050    762.5634 307.5151978  +6.3964888     2650.803     4035.796     4458.766     80.15843       161.48     323.1853      1.611     3.22     905.8036     57.00068     410.8967        20     1.220     0.997 -29.85   0
       188    932.6750    764.9186 307.5260517  +6.3946377     1157.641     1494.318      1325.86     81.31741     161.9943     323.4425      1.394     4.11     907.0591     57.00068     191.1301        10     1.061     0.697  -6.75   0
       189    260.0509    764.6138 307.8053401  +6.3722389     807.4396     1254.983     1850.722     80.41743     161.7374     323.1209      1.740     5.25     927.5685     57.00068     142.2191         9     1.179     0.823 -15.74   0
       190    906.5526    763.6447 307.5369410  +6.3942917     1269.123     1783.588     1608.216     81.06129      161.673     323.3461      1.376     2.39     907.8254     57.00068     204.5161         9     0.887     0.623   4.81   0
       191    155.5809    764.1335 307.8487306  +6.3689253     831.6149      803.347      206.767     80.67559     161.7374     323.2818      1.149     3.54     928.5951     57.00068     137.2009         7     0.900     0.640  45.96   0
       192    678.6643    761.4305 307.6316386  +6.3875893     1158.537     1493.051     2380.308     80.80437     161.8016     323.3139      1.549     4.38     914.1064     57.00068     203.7599        11     1.154     0.725 -33.00   0
       193   1000.8404    756.1849 307.4980402  +6.4005180     1729.105     2426.082     2456.535     80.54662     161.5444     323.1531      1.441     3.89     903.6592     57.00068     324.4247        15     1.331     0.755 -23.13   0
       194    470.4021    756.7626 307.7182678  +6.3825407     661.5706     850.6829     404.0198     80.15844     161.5444     323.1853      1.120     2.73     921.6801     57.00068      126.743         5     0.719     0.450 -69.78   0
       195    399.4630    756.3588 307.7477353  +6.3803281     631.3718     668.4838     1100.015     81.06129      161.673     323.4747      1.223     3.70     923.6531     57.00068     168.9325         5     0.910     0.433  44.17   0
       196    802.3681    754.3647 307.5805118  +6.3946433     1292.797     1833.771     1744.028     80.67559       161.48     323.1209      1.305     2.81     910.3053     57.00068     266.4661        12     1.072     0.694 -18.05   0
       197    627.4580    755.2346 307.6531083  +6.3884336     701.3544     820.9311     484.9997     80.93293     161.7374     323.3782      1.269     2.69     915.6155     57.00068     119.7832         5     0.706     0.473  72.72   0
       198    888.5540    751.4827 307.5448221  +6.3987122     1629.597     2463.166     2840.729     81.06129     161.7374     323.3782      1.549     3.00     907.9745     57.00068     311.3032        15     1.063     0.945  13.40   0
       199    862.8198    746.9979 307.5556579  +6.3997045     956.8261      1373.58     1018.019     80.67559     161.2867     323.1209      1.402     3.92     908.6082     57.00068     166.4789         9     1.095     0.630 -14.29   0
       200    845.5261    743.0831 307.5629700  +6.4007431     1760.146     2457.556     2585.487     81.18945     162.0584     323.4425      1.466     2.95     908.9372     57.00068     316.1643        12     1.049     0.704  -8.69   0
       201    108.9923    742.2447 307.8688125  +6.3763949     653.6718     1254.821     1668.649     80.54662     161.6087     323.0566      1.876     3.76     928.2337     57.00068      103.043         5     0.815     0.499 -54.65   3
       202    108.2278    738.6031 307.8692528  +6.3778726     750.9766     1270.571     1901.324     80.54662       161.48     323.1853      1.725     3.39     928.2134     57.00068     143.4656         9     0.887     0.772 -54.08   2
       203     44.4841    741.8120 307.8956097  +6.3744021     2816.939       3776.6     4368.142     80.67559     161.5444     323.2174      1.487     3.30     928.1153     57.00068     452.5616        17     1.181     0.876 -15.09   0
       204    457.2064    740.6241 307.7242899  +6.3887613     459.8226     697.5499     613.6592     80.54662     161.5444     323.2174      1.190     2.50     921.3686     57.00068     102.2087         5     0.698     0.466 -14.70   0
       205    562.6776    736.8478 307.6806241  +6.3938555     704.2347     970.4109     846.8721     80.93293     161.8016     323.3461      1.383     3.54     917.1744     57.00068     132.4103         8     0.939     0.694  23.23   0
       206    657.0418    730.4332 307.6416579  +6.3996636     7130.359     9764.269     9625.047     80.80437     161.7374     323.2174      1.407     3.28     914.2384     57.00068      1301.57        25     1.256     0.936 -26.29   0
       207    603.8893    729.8049 307.6637490  +6.3981436     1655.386     2269.176     2505.196     80.54662     161.4156     323.0887      1.470     3.91     915.8061     57.00068      250.495        15     1.240     0.807 -29.14   0
       208    526.3187    730.2323 307.6959433  +6.3953686     793.4565     982.8621     803.5639     80.93293      161.673     323.3139      1.248     3.25     918.4037     57.00068     140.2594         8     0.958     0.569 -15.79   0
       209    514.7784    730.1260 307.7007386  +6.3950258     973.7495       1342.4     1213.423     80.67559     161.6087     323.3139      1.482     2.98     918.7953     57.00068     164.7089         9     0.878     0.679  10.51   0
       210    120.0478    726.1764 307.8647650  +6.3834007     4166.638     5950.553     5781.319     80.67559     161.7374     323.2496      1.446     3.05     928.0392     57.00068     727.0828        25     1.206     1.045 -42.32   0
       211    994.1871    725.7112 307.5018231  +6.4128780     2903.441     4284.038     4533.704     80.80437       161.48     323.2818      1.543     3.49      903.126     57.00068     415.3002        19     1.186     0.978  -8.97   0
       212    630.9468    726.1654 307.6526365  +6.4005522     2555.811     3469.416     3367.594     80.93293     161.7374     323.3461      1.397     3.57     914.9711     57.00068     428.0479        17     1.201     0.808 -29.22   0
       213    306.3980    726.7624 307.7873733  +6.3894232     725.0757     1021.614     1225.649     80.15844     161.5444     323.1853      1.660     3.97     924.9963     57.00068     113.0315         6     1.211     0.372 -27.75   0
       214    242.5120    726.0443 307.8139230  +6.3875734     689.3732     956.1511      578.358     81.06129     161.6087     323.4104      1.269     4.08     926.7156     57.00068     142.8144         5     0.939     0.507 -43.71   0
       215    773.9645    722.5777 307.5933722  +6.4068179     22780.93     31140.77     32319.56     80.54662       161.48     323.1531      1.425     3.12      910.689     57.00068     3408.662        44     1.353     1.054 -26.63   0
       216    904.1047    722.3158 307.5393424  +6.4112738     4066.485     5737.499     6247.037     81.06129     162.1226     323.4747      1.440     3.24     906.6011     57.00068     743.0063        25     1.277     0.980 -19.44   0
       217    473.0887    722.7767 307.7182961  +6.3966625     1459.675     1920.245     1799.527     81.06129     161.5444     323.2496      1.316     3.35      920.081     57.00068     251.2075        11     1.044     0.684 -39.83   0
       218    501.7912    722.2444 307.7063963  +6.3978445     1045.266     1325.617     969.0253     80.54662     161.6087     323.1209      1.426     3.04     919.0679     57.00068     196.4521         9     0.875     0.736  -2.44   0
       219    319.0501    722.1209 307.7822765  +6.3917644     676.1224     741.3375     577.9106     81.06129     161.8016     323.3782      1.306     4.78     924.4243     57.00068      126.502         7     1.169     0.677 -18.40   0
       220    275.4863    722.2873 307.8003588  +6.3902324     674.1956     1208.812     1216.566     80.80437     161.9301     323.5068      1.765     3.70     925.7521     57.00068     113.6639         7     0.889     0.630 -20.88   0
       221    544.8597    721.3251 307.6885444  +6.3996674     508.6007      598.505     594.3096     81.31741     161.7374     323.3461      1.340     4.92     917.7056     57.00068     77.09296         7     0.963     0.712   4.58   0
       222    247.5166    716.1277 307.8121796  +6.3918357     7163.364     9728.293     9722.557     81.31741     162.0584     323.4104      1.480     2.75     926.3017     57.00068     1369.442        31     1.436     0.990 -16.61   0
       223     82.8648    717.9720 307.8804802  +6.3855366     637.6534     743.4532     374.5826     80.67559     161.7374     323.3139      1.402     3.88     927.9996     57.00068     92.43042         6     0.937     0.461 -53.22   0
       224    654.5659    715.3650 307.6431921  +6.4058020     8055.394     10719.21     11061.55     80.80437       161.48     323.1209      1.402     2.77     914.2515     57.00068     1592.904        26     1.250     0.919 -24.89   0
       225    636.9518    716.3509 307.6504729  +6.4048054     959.3983     1239.182     1989.734     81.06129     161.6087     323.4104      1.283     3.29     914.7389     57.00068     179.6754         8     0.920     0.563 -17.70   0
       226    914.3234    708.2659 307.5355701  +6.4174158     1443.133     2175.354     2725.853     81.18945     161.7374     323.3461      1.536     3.10     905.6813     57.00068      306.285        14     1.089     0.867 -17.17   0
       227    726.2322    703.7037 307.6138257  +6.4130144     3998.783      5626.17     5508.716     81.18945     161.6087     323.4747      1.490     3.13     911.8984     57.00068     746.0783        23     1.191     1.036 -27.20   0
       228    681.6660    704.2422 307.6323130  +6.4113012     1045.321      1385.15     1626.884     81.06129      161.673     323.4425      1.479     3.40     913.4523     57.00068      170.372        10     0.969     0.698  -0.21   0
       229    992.5652    700.3778 307.5033448  +6.4232835     10002.67     14023.89     14508.07     80.54662       161.48     323.1209      1.505     2.84     902.4899     57.00068     1773.011        31     1.312     1.018 -17.44   0
       230    931.0766    700.9100 307.5288599  +6.4210121     2698.881     3667.816     3444.662     81.06129     161.9943     323.4104      1.418     3.37     904.6829     57.00068     448.5427        18     1.239     0.840 -27.61   0
       231     11.6938    700.1402 307.9106324  +6.3905021     2097.304     3284.898     3614.087     80.93293     161.7374     323.4425      1.801     3.54     928.3993     57.00068     355.9745        19     1.399     0.934  -5.87   0
       232    545.5700    698.8003 307.6890070  +6.4089910     558.7676     914.2342     750.6636     80.41743     161.5444     323.1853      1.541     3.57      917.616     57.00068     103.4547         5     0.950     0.387  -6.59   0
       233    531.1788    696.2408 307.6950687  +6.4095655     2202.076      3221.96      3548.94     80.67559     161.5444     323.1853      1.531     3.64     917.9071     57.00068     413.9617        14     1.252     0.698 -20.18   0
       234     69.9181    695.1087 307.8866281  +6.3945400     28662.12     40197.12     41754.46     80.80437     161.9943     323.4425      1.468     3.23     927.9416     57.00068      4571.33        50     1.377     1.127 -30.99   0
       235    499.9669    693.4843 307.7081214  +6.4096575     1538.981     2075.961     1840.005     81.06129     161.5444     323.3461      1.379     3.49     918.4123     57.00068     252.9142        12     1.126     0.695 -11.90   0
       236    920.9122    692.3378 307.5333679  +6.4242121     1085.345     1536.339     1857.216     81.06129     161.9301     323.4425      1.423     4.12     904.7064     57.00068     190.9222        10     1.173     0.770 -41.11   0
       237    715.9529    687.5854 307.6186352  +6.4193254     3905.931     5080.809     4654.643     80.41743     161.5444     323.1209      1.334     3.11     912.0236     57.00068     697.3311        19     1.185     0.839 -33.60   0
       238    540.2053    689.8547 307.6915355  +6.4125046     1129.085     1705.874     1690.686     80.41743       161.48     323.0566      1.465     3.69     917.7095     57.00068     222.3132        12     1.074     0.854  -2.01   0
       239    737.9670    685.7750 307.6095549  +6.4208091     4787.344     6444.153     6262.898     80.41743       161.48     323.1853      1.399     3.25     911.1014     57.00068     783.8559        22     1.224     0.873 -16.11   0
       240   1010.7238    681.8459 307.4964250  +6.4315406     5517.209     8033.381     8433.277     80.93293     161.8016     323.4104      1.525     3.01     901.4987     57.00068     946.9307        31     1.368     1.079 -11.24   0
       241    569.3479    683.6357 307.6796437  +6.4160486     3542.269     4823.168     5096.079     80.93293     161.7374     323.3461      1.426     3.35     916.6906     57.00068     616.5156        18     1.217     0.837 -22.61   0
       242    405.2266    684.2473 307.7477709  +6.4102937      1454.45     1763.229     1183.197     80.67559     161.8016     323.3139      1.336     3.14     921.2022     57.00068     307.0369        12     1.130     0.667  -9.81   0
       243    313.4850    682.2801 307.7859302  +6.4080262     1683.223     2393.016     2333.426     80.80437     162.0584     323.4747      1.530     3.28     923.3726     57.00068     296.8064        16     1.270     0.798 -22.83   0
       244    230.2302    682.8697 307.8204790  +6.4049856     1932.827     2662.418     2336.015     80.93293     161.7374     323.3139      1.414     3.45     925.9294     57.00068     360.2888        15     1.220     0.909 -25.59   0
       245    976.2198    680.7357 307.5107901  +6.4308481      8791.78     12666.09     12982.09     80.67559     161.7374     323.2174      1.471     3.21     902.4806     57.00068     1447.643        31     1.363     0.977 -20.88   0
       246    530.2741    681.4025 307.6959435  +6.4156615     596.4879     910.3864     592.7451     80.54662     161.2223     323.2496      1.369     3.50     917.7778     57.00068     123.4672         5     1.220     0.290 -52.70   0
       247    696.2375    679.2117 307.6271031  +6.4221232     1258.195     1458.202      1014.49     80.54662     161.5444     323.0566      1.185     2.98     912.7673     57.00068     198.6207        10     0.958     0.670  -6.43   0
       248     87.6836    677.2689 307.8798546  +6.4025032     1027.574     1401.758       1438.5     81.31741     161.9943     323.4104      1.444     4.98      927.629     57.00068     176.0082        12     1.331     0.695 -35.90   0
       249    421.4312    675.0417 307.7413524  +6.4146380     3174.484     4371.509      4029.64     80.54662     161.6087     323.1853      1.486     3.28      920.486     57.00068     592.3915        19     1.168     0.926 -26.46   0
       250    134.6826    674.0598 307.8604488  +6.4054097      27181.3     37587.99     38477.98     81.18945     161.8016     323.4104      1.472     3.07     926.7677     57.00068     4800.919        47     1.350     1.107 -22.21   0
       251    803.1480    674.7946 307.5828573  +6.4275218     1263.876     1658.685     1634.546     80.41743       161.48     323.0244      1.288     2.77     909.2225     57.00068     235.6835        10     0.965     0.653 -36.83   0
       252    639.1867    674.6329 307.6509467  +6.4221043     453.2167     629.7023     360.6471     80.54662       161.48     323.2818      1.553     2.25     914.4503     57.00068     113.1308         5     0.720     0.432 -21.78   0
       253    354.1454    669.1777 307.7694888  +6.4148010     892.4786     1413.426     1526.856     80.54662     161.7374     323.1853      1.729     4.19     921.8585     57.00068     146.0664         9     1.039     0.672 -70.77   0
       254    971.1014    663.7420 307.5134846  +6.4376936     7439.867      11311.7     11760.62     80.80437     161.7374      323.539      1.629     3.25     902.0676     57.00068     1322.641        35     1.361     1.166  -7.85   0
       255     15.8548    662.8908 307.9101642  +6.4060207     1320.154     1765.813     1675.024     80.93293     161.6087     323.5068      1.419     3.42       928.54     57.00068     259.7973        14     1.167     0.882 -12.61   0
       256    564.6760    658.9283 307.6824145  +6.4260930     54500.45     73839.39     76492.73     81.31741     161.9943     323.3782      1.447     3.02     916.7195     57.00068      10062.8        64     1.391     1.118 -24.78   0
       257   1023.7845    659.3371 307.4917549  +6.4412696     12152.23     14589.84     15372.93     68.70414     126.8646     241.3385      0.918     2.43     900.0864     57.00068      4052.95        22     1.317     0.501  87.98  24
       258    208.0860    659.9794 307.8304460  +6.4136916     839.4528     1221.708     1108.688     80.93293       161.48     323.2818      1.524     6.01     925.6243     57.00068     142.5955        11     1.179     0.863 -56.92   0
       259    929.3169    660.4089 307.5309477  +6.4376754      773.225     1233.192     1074.462     80.67559     161.4156     323.2174      1.562     4.13     903.3549     57.00068     115.7263         7     1.018     0.479  -7.05   0
       260    523.9249    659.2733 307.6993244  +6.4245851     830.1158     1135.397     1475.543     81.31741     161.9943     323.4425      1.346     3.81     917.5981     57.00068     145.9618         8     0.935     0.650 -13.93   0
       261    789.6143    658.5237 307.5890231  +6.4337873     708.3187     804.8708     472.3934      80.6756       161.48     323.2174      1.146     3.77     909.5657     57.00068     147.6616         6     0.959     0.424 -17.81   0
       262    494.8957    656.0854 307.7114857  +6.4249282     691.4863     1014.423     817.4439     81.06129     162.1226     323.4747      1.642     4.97     917.8402     57.00068     103.6826         7     0.915     0.764 -43.94   0
       263    172.1421    655.5245 307.8455209  +6.4143222     3164.059     4387.153      4115.91     81.18945     161.7374     323.3461      1.467     3.14     925.9297     57.00068     470.9753        20     1.185     0.935 -26.71   0
       264    975.5922    655.1191 307.5119086  +6.4414036     696.9509     785.5807     832.2966     80.67559     161.3512     323.2174      1.274     3.64     901.5925     57.00068     130.8297         8     0.907     0.650 -30.81   0
       265     64.9413    649.7308 307.8902279  +6.4131068     1636.401     2391.241     2900.734     81.18945      161.673     323.3461      1.536     3.96     927.5942     57.00068     272.5352        16     1.176     0.987 -14.06   0
       266      5.0810    644.6009 307.9152560  +6.4132087     1621.667      2633.49     2608.093     80.28804     161.2223      296.684      1.779     5.95     928.6306     57.00068     307.7199        22     1.888     0.801 -28.29  24
       267    461.9196    642.6923 307.7256295  +6.4293521     69092.75        96286     99490.68     80.80437     161.9943     323.4425      1.478     3.15     918.3497     57.00068     10653.61        65     1.416     1.121 -27.98   0
       268    136.5047    637.7997 307.8609168  +6.4204412     1891.931     2532.711     2504.952     80.54662     161.3512       322.96      1.459     3.09     926.2045     57.00068     350.4619        17     1.097     0.960 -15.94   0
       269    932.1028    635.5364 307.5306242  +6.4480376      686.269     1073.851     1053.475     80.93293     161.8659     323.4104      1.385     2.06     903.0246     57.00068       148.11         5     0.690     0.455 -23.21   0
       270    415.8637    635.3093 307.7450023  +6.4308554     973.5419     1315.617     1359.093     81.06129     161.9301     323.4747      1.446     3.18     919.1083     57.00068     192.3303         8     1.013     0.628  -9.03   0
       271      8.3320    633.8652 307.9142691  +6.4177504     805.4957     1021.087      1457.85     81.06129     161.7374     323.0887      1.749     4.03     928.5205     57.00068     135.7283         7     1.205     0.674 -41.44   0
       272    608.1838    634.5178 307.6651688  +6.4376286     841.2963      1301.08      1508.18     80.67559     161.4156     323.2496      1.379     2.23     915.5289     57.00068     179.3622         5     0.697     0.470 -19.30   0
       273    307.3335    631.8244 307.7901856  +6.4286508     2352.323     3458.351     3726.208     80.67559     161.7374     323.3139      1.596     3.51     922.4993     57.00068     396.6984        17     1.182     0.895 -25.64   0
       274    647.7568    639.8798 307.6485558  +6.4367397     966.2515     1346.086     1178.399     81.06129     161.7374     323.3461      1.445     2.95      914.548     57.00068     223.6257         8     0.992     0.570 -25.08   0
       275    734.0349    626.2302 307.6131868  +6.4452621     5764.515     8140.484     8828.697     80.67559       161.48     323.1853      1.435     3.14     911.3537     57.00068     988.0465        28     1.310     0.979 -28.19   0
       276    787.5065    621.5609 307.5911387  +6.4489778     15854.43     21168.45     21821.67     81.18946      161.673     323.4747      1.447     2.95     909.6773     57.00068      2940.59        37     1.336     0.982 -24.78   0
       277   1005.0934    621.8458 307.5007720  +6.4561256     1021.223     1459.056     1626.868     80.93293      161.673     323.5068      1.473     3.02     898.8015     57.00068     183.0488        11     0.943     0.791  26.39   0
       278    529.7940    621.6586 307.6981527  +6.4403117     1355.658     1966.501      2227.21     80.54662     161.6087     323.0887      1.644     6.80     917.1343     57.00068     197.6769        15     1.472     0.882 -51.33   2
       279    611.3557    619.4547 307.6643580  +6.4439539      3307.55     4422.997     4621.216     81.06129     161.7374     323.4104      1.439     3.06     915.6542     57.00068      596.652        21     1.223     1.015 -36.83   0
       280     33.0544    620.9054 307.9044422  +6.4239337     633.3009      931.866     1190.109     80.93293     161.7374     323.6032      1.412     2.61     927.8998     57.00068     122.1683         5     0.608     0.597  27.11   0
       281    928.7198    615.8941 307.5326873  +6.4560345     1344.779     1784.889     1782.981     80.80437     161.9943     323.4425      1.382     3.08     903.0123     57.00068     256.1271        10     0.998     0.680  -9.20   0
       282    370.1085    613.2244 307.7647458  +6.4384379     1134.941     1467.251     1579.133     81.18945     161.5444     323.2174      1.420     3.36     919.8304     57.00068     165.9482        12     0.979     0.842  -2.50   0
       283    354.0799    613.5580 307.7713904  +6.4377620     639.4623     757.5883     474.5148     81.06129     161.7374     323.3461      1.312     3.77     920.4077     57.00068     106.6157         6     0.829     0.615 -34.29   0
       284    223.9348    613.1911 307.8254441  +6.4335413     1455.802      1979.94     1633.125     80.54662     161.6087     323.2496      1.378     3.54     924.1146     57.00068     225.5039        14     1.174     0.767   2.01   0
       285    187.8391    613.8635 307.8404096  +6.4320501     727.8389     1078.966     1410.043     81.06129      161.673     323.4104      1.544     3.08     924.9599     57.00068     126.6674         6     0.897     0.588 -26.35   0
       286    863.5443    604.7834 307.5601254  +6.4584456     3178.493     4085.509     4399.166     80.54662      161.673     323.1209      1.405     3.10     906.0328     57.00068       571.39        17     1.198     0.829 -14.97   0
       287    158.7636    604.8099 307.8527883  +6.4348100     769.6166     1148.879     734.4606     80.54662     161.5444     323.1209      1.566     4.91     925.4765     57.00068     120.7343         7     1.019     0.670 -21.53   0
       288    822.2654    602.2407 307.5773527  +6.4581163     2955.329      4029.03      3752.81     81.06129      161.673     323.4747      1.415     3.15     908.1875     57.00068     609.5894        19     1.229     0.878 -11.79   0
       289    793.1846    598.3287 307.5895604  +6.4587596     2688.758     3917.458      4993.39     80.54662      161.673     323.2496      1.630     3.52     909.5513     57.00068     570.5079        17     1.218     0.865 -18.46   0
       290    802.9195    593.4238 307.5856823  +6.4611101     176636.4       242504       251624     80.67559     161.4156     323.3461      1.449     3.31     909.1702     57.00068     28578.07       107     1.445     1.175 -24.10   0
       291    736.0580    598.7361 307.6132698  +6.4566813     879.8086     1094.455     1171.244     81.18945      161.673     323.4104      1.292     4.59     911.5099     57.00068     155.4831         8     1.001     0.664 -20.98   0
       292    250.4066    597.1425 307.8149935  +6.4410569     8609.908     11990.65     12450.25     80.54662     161.6087     323.0887      1.477     2.79     922.9094     57.00068     1593.102        28     1.271     0.970 -23.27   0
       293    184.5284    591.6660 307.8425336  +6.4411032     64721.81     90840.07     95669.46     81.06129     161.8016     323.4425      1.549     2.94     924.4675     57.00068      10050.2        72     1.473     1.191 -31.13   0
       294    108.6047    587.9707 307.8741848  +6.4400744     6870.398     9910.705     10138.55     80.54662     161.5444     323.1853      1.516     2.82     925.9313     57.00068     1230.714        29     1.360     0.968 -17.98   0
       295    973.8330    585.3621 307.5149757  +6.4701460     1491.704     2245.697     2268.081     80.67559     161.5444     323.1531      1.589     3.76     899.6483     57.00068      271.262        14     1.273     0.752 -23.50   0
       296    994.7742    584.3334 307.5063135  +6.4712694     655.5291     641.9227     860.2612     80.67559     161.6087     323.2818      1.231     3.70     898.3463     57.00068     147.8998         5     0.975     0.403 -15.98   0
       297    223.1593    583.1134 307.8267811  +6.4459331     728.3328     868.8082     899.0139     81.06129     161.7374     323.4104      1.251     4.79     922.8105     57.00068     121.4016         8     0.946     0.716 -27.64   0
       298    839.5405    580.7590 307.5708993  +6.4675628     4948.577     6863.177     7038.745     81.06129     161.7374     323.4425      1.436     3.16     907.1584     57.00068       936.63        27     1.273     1.001 -18.24   0
       299    357.9713    578.7839 307.7709465  +6.4522496     18762.61     26285.53     27226.18     80.67559       161.48     323.2818      1.468     3.15     918.9601     57.00068     2824.617        39     1.342     1.061 -27.89   0
       300    752.8907    578.3816 307.6069629  +6.4656481     490.3228     716.0448     455.7133     80.80437       161.48     323.2496      1.786     5.62     911.0994     57.00068     99.86493         7     1.233     0.721 -66.93   0
       301    448.6354    578.7582 307.7332983  +6.4553026     939.4852     1320.427     1385.102     80.80437     161.7374     323.2174      1.460     2.79     917.3651     57.00068     178.9004         8     0.943     0.555 -32.23   0
       302    159.9914    577.7537 307.8531921  +6.4460216     1968.618      3048.48     2760.325     80.54662     161.6087     323.0244      1.469     3.39      925.045     57.00068     335.7278        14     1.103     0.821 -33.27   0
       303    235.0744    575.4820 307.8220910  +6.4494843     1163.438     1546.597     1804.577     81.31741     162.0584     323.4425      1.481     4.17     922.1423     57.00068     159.3979        11     1.093     0.763 -27.24   0
       304    164.7648    575.6080 307.8512824  +6.4470680     647.6771     1064.462     1506.302     80.54662     161.5444     323.1531      2.047     5.41     924.8358     57.00068     114.0664        10     1.326     0.622 -38.26   1
       305    793.3807    574.0487 307.5902937  +6.4687907     6219.112     8642.429     9126.824     80.54662     161.8016     323.1853      1.451     3.03     909.5855     57.00068     1346.517        29     1.353     0.929 -27.52   0
       306    524.2983    573.6960 307.7020486  +6.4599296      7067.23     10023.49     9917.121     81.06129     162.3149     323.2174      1.457     3.11      916.597     57.00068     1184.932        28     1.339     0.957 -25.87   0
       307     96.8788    574.7726 307.8794997  +6.4451286     1002.593     1409.333     1458.351     80.93293      161.673     323.3782      1.491     5.30     926.0142     57.00068     176.3699         9     1.264     0.628   2.22   0
       308    382.5729    570.6452 307.7610047  +6.4564356     1543.541     2138.315     1962.106     80.54662     161.8016     323.2818      1.498     3.56     918.0701     57.00068     281.0609        12     1.158     0.742 -21.91   0
       309    171.3509    566.8647 307.8488428  +6.4508993     7234.695     10299.86     11187.52     80.93293     161.6087     323.3782      1.515     3.14     924.4064     57.00068     1175.976        36     1.461     1.092 -28.44   0
       310    569.0032    566.6940 307.6837196  +6.4643186     2553.241     4087.822     4210.769     80.80437     161.4156     323.0887      1.656     4.96     915.8934     57.00068     404.2484        20     1.583     0.827 -26.97   0
       311    810.1934    566.2842 307.5835722  +6.4725584     1600.664     2235.847     2339.072     80.67559     161.4156     323.2174      1.336     3.05     908.7714     57.00068     277.3193        12     1.004     0.741 -20.50   0
       312    266.5408    563.3101 307.8094352  +6.4555671     95743.98     133974.2     138515.5     80.93293     161.7374     323.4747      1.529     3.14     920.8552     57.00068     15951.98        73     1.451     1.162 -25.93   0
       313     42.9162    565.4760 307.9022212  +6.4471499     5547.505     7720.328     8007.566     81.18945     162.0584     323.4425      1.485     3.14      927.504     57.00068     787.3005        25     1.267     0.962 -22.56   0
       314    555.7947    561.0837 307.6893934  +6.4661923     1073.827     1312.574     1768.801     80.54662     161.3512     323.1209      1.435     5.11     915.9871     57.00068     147.0129        10     1.149     0.641 -25.97   0
       315    250.4382    558.3038 307.8162907  +6.4570928     1613.293     1982.386     1927.868     81.06129     161.6087     323.5068      1.321     3.10     920.9839     57.00068      266.514        14     1.125     0.776 -17.51   0
       316    493.2934    554.1648 307.7155813  +6.4669540     44382.57     67203.74     71043.73     81.18945     161.6087     323.4747      1.659     3.74     916.7366     57.00068     6931.928        67     1.593     1.224 -11.01   0
       317    789.6133    555.8230 307.5924699  +6.4761897     18314.73      24716.9     25506.12     80.80437     161.5444     323.2818      1.456     3.05     909.7369     57.00068     3436.233        37     1.350     0.987 -23.79   0
       318    643.8887    552.8588 307.6530865  +6.4725386     1071.926     1548.053      1911.84     80.93293     161.7374     323.5068      1.603     4.78     914.6429     57.00068     164.3878        15     1.372     0.839 -35.69   0
       319    845.5109    551.2788 307.5694087  +6.4799339     476.4641     601.2819     842.6895     80.80437     161.9943     323.5068      1.150     3.42     906.6742     57.00068     94.55566         5     0.744     0.455 -69.37   0
       320    966.0773    557.1844 307.5191404  +6.4815211     1767.464     2140.683     2484.608     80.67559     161.4156     323.2174      1.271     3.07     899.5955     57.00068     332.0957        13     1.069     0.772 -19.20   0
       321    205.9422    550.4879 307.8350317  +6.4588239     2096.682     3142.302     3939.269     81.06129      161.673     323.5068      1.585     3.33     922.1807     57.00068     296.8707        19     1.188     0.912 -35.31   0
       322     41.5991    550.5767 307.9032719  +6.4532567     1319.915     1566.874     1737.925      80.6756     161.4156     323.1531      1.342     3.21     927.5193     57.00068     224.1934        12     1.056     0.768 -42.75   0
       323    663.3243    549.2592 307.6451362  +6.4746753     1411.834     2095.431     2705.794     81.18945     161.8016     323.3461      1.522     4.31     914.3248     57.00068     267.3653        13     1.334     0.697 -30.42   0
       324    653.2176    549.2307 307.6493343  +6.4743488     3255.803     4675.117     5022.268     80.67559     161.5444     323.2818      1.457     3.31     914.4818     57.00068     629.7913        20     1.189     0.887 -25.24   0
       325     92.3768    550.1950 307.8821996  +6.4551240     580.6047     732.2008     975.1166     80.67559       161.48     323.2174      1.213     4.20     925.9952     57.00068     98.15643         6     0.762     0.660 -28.59   0
       326    715.5826    548.1894 307.6234701  +6.4768657     1379.212     2031.191     1988.355     80.80437     161.4156     323.2496      1.536     3.03     912.7444     57.00068     321.5747         8     0.917     0.568 -28.30   0
       327     68.7658    544.7512 307.8921880  +6.4565766     639.0542     1170.729     1295.044     80.93293     161.7374     323.3139      2.575     6.66     926.6766     57.00068     112.4763         8     1.472     0.846  37.76   2
       328    391.1622    544.8538 307.7583069  +6.4673722     1829.544     2693.359     2697.869     80.93293     161.8016     323.3782      1.475     3.52     917.1428     57.00068     290.4354        15     1.232     0.730 -19.96   0
       329    322.4517    543.1469 307.7868976  +6.4657700     4222.428     6029.238     5824.539     81.18945     161.6087     323.4104      1.547     3.29     918.4266     57.00068     743.9699        24     1.267     0.994 -22.95   0
       330    137.6342    541.6354 307.8636957  +6.4601810     28227.86     39335.42     40636.48     80.80437       161.48     323.1209      1.520     3.00     924.9205     57.00068     4384.085        46     1.354     1.108 -26.43   0
       331    502.4073    542.5714 307.7121867  +6.4720461     2379.375     3200.002     3457.428     80.54662     161.5444     323.1853      1.492     3.07     916.4129     57.00068     377.8463        18     1.207     0.865 -25.03   0
       332    865.5381    541.7668 307.5614106  +6.4845301     1824.115     2348.889     2032.821     80.80437     161.8016     323.3139      1.385     2.97     905.4542     57.00068     332.3428        15     1.099     0.836 -12.86   0
       333    102.6899    539.8331 307.8782672  +6.4597491      3046.01     4668.121     4821.873     81.18945     161.6087     323.3782      1.641     3.70     925.5865     57.00068     440.6459        22     1.174     1.114 -46.02   0
       334    339.7416    538.0410 307.7798898  +6.4684587     1101.158     1448.537     1214.047     81.06129     161.7374     323.4425      1.264     4.08     917.6666     57.00068       187.99        10     1.057     0.684 -34.21   0
       335    963.2274    536.3526 307.5210219  +6.4900270         5633     7947.703      7608.66     80.67559     161.8016     323.3139      1.449     3.26     899.4004     57.00068     1088.216        28     1.347     0.964 -25.67   0
       336    536.3339    528.7671 307.6985622  +6.4788827     1696.875     2389.848     1939.711     80.93293     161.8016     323.3461      1.484     3.12     915.5742     57.00068     313.4666        15     1.140     0.810 -29.38   0
       337      2.3322    525.8666 307.9204128  +6.4621355     26833.92     32960.18     33700.52     80.41743     142.9706     259.6029      1.284     2.66     928.0657     57.00068     4147.877        34     1.152     0.983 -85.45  24
       338    434.6679    522.7916 307.7409833  +6.4779407     47182.31      65424.2     67810.74     80.54662       161.48     323.2818      1.498     3.09     915.6452     57.00068     7845.981        59     1.396     1.154 -28.46   0
       339    642.6391    522.5370 307.6546246  +6.4850157     13504.02     18570.02     19059.73     81.06129      161.673     323.4425      1.484     2.98     914.3882     57.00068      2299.18        36     1.321     1.035 -27.04   0
       340    282.7075    522.9570 307.8040829  +6.4727705     972.5646     1427.843     1293.807     81.06129     161.7374     323.5068      1.522     3.52     918.3115     57.00068      204.498        11     1.220     0.826 -21.70   0
       341    199.8292    520.3561 307.8385873  +6.4710584     20536.57      30671.3     31688.12     80.67559     161.8016     323.2818      1.616     3.35     921.6786     57.00068     2709.433        48     1.430     1.198  -9.27   0
       342    165.6190    521.5078 307.8527546  +6.4694323     1689.597     2335.885     2207.951     80.93293       161.48     323.2496      1.471     3.15     923.7831     57.00068     289.5897        14     1.120     0.789 -33.90   0
       343    976.6671    520.9409 307.5159567  +6.4968386      1279.74     1475.718     1698.762     81.18945      161.673     323.3782      1.295     3.08     898.3321     57.00068     227.2482        12     1.022     0.748  -4.06   0
       344    905.4846    520.5043 307.5455337  +6.4946430     774.4799     1195.841     1308.922     81.06129     162.1226     323.4747      1.582     3.28      902.803     57.00068     168.7178         7     0.978     0.565 -24.98   0
       345    816.8939    520.4669 307.5823269  +6.4916991     980.1146     1196.235     1494.547     80.93293     161.9301     323.3782      1.242     3.12     908.1829     57.00068     180.7656         7     0.918     0.656  -0.27   0
       346    564.4323    519.2988 307.6872119  +6.4837334     3211.383     4302.742     4313.585     81.06129     161.6087     323.5068      1.436     2.97      915.072     57.00068     614.3748        19     1.277     0.836 -29.31   0
       347    938.3456    516.5529 307.5320188  +6.4973714     5441.095     7234.623      7424.15     81.06129     161.7374     323.4104      1.392     3.12     900.6386     57.00068     978.1487        21     1.228     0.866 -16.06   0
       348    611.4551    514.9261 307.6678308  +6.4871138     7205.165     9771.987     10173.11     80.93293     161.6087     323.3139      1.438     3.44     914.6605     57.00068     1290.771        28     1.316     0.954 -29.70   0
       349     99.1941    515.4806 307.8805418  +6.4696854     1227.321     1498.676     1824.893     80.67559     161.2867     323.1209      1.339     3.41     925.1619     57.00068     198.0422        12     1.097     0.719 -33.55   0
       350    960.8894    508.7794 307.5229167  +6.5013333     3827.893     5300.561     5149.999     80.93293       161.48     323.2174      1.428     3.41     899.1217     57.00068     612.8741        19     1.201     0.867 -26.27   0
       351    399.8315    507.3322 307.7559709  +6.4831544     707.8071     1016.502     1451.698     80.93293     161.7374     323.3461      1.482     3.16     914.9272     57.00068     135.5553         7     0.959     0.550 -75.54   0
       352    523.7155    506.0569 307.7045666  +6.4878360     8119.288     11253.21     11611.67     81.06129     161.7374     323.4747      1.478     3.18     914.9773     57.00068     1430.221        31     1.334     1.016 -30.14   0
       353    369.6576    506.4070 307.7685328  +6.4825236     3019.026     4236.474     4255.355     80.41743     161.6087     323.0887      1.542     3.21     915.3309     57.00068     534.6221        20     1.257     0.862 -18.42   0
       354    739.4901    506.4000 307.6149449  +6.4949191     603.2136     1000.151     833.5719     80.28804     161.2223     323.0887      1.661     3.10       910.65     57.00068     116.9244         5     0.924     0.492 -44.68   0
       355     93.1052    505.6941 307.8834009  +6.4735208     618.9855     1021.834     1353.306     81.06129     162.3789     323.3139      1.588     4.08     925.1164     57.00068     127.0015         6     1.068     0.686  -1.71   0
       356    991.5534    504.8336 307.5103138  +6.5039856     579.1359     799.2324     831.1351     80.80437     161.7374     323.3139      1.394     4.53     897.1275     57.00068     93.94476         6     0.987     0.591 -22.44   0
       357    880.2500    501.8740 307.5566385  +6.5014923     3427.255     4626.976     5260.284     81.06129     161.8016     323.4104      1.380     3.17     904.3348     57.00068     720.0847        19     1.140     0.988 -19.32   0
       358    532.7910    503.2208 307.7008931  +6.4893111     764.6542     1288.703      1659.34     80.67559       161.48     323.1853      1.859     4.21     914.8375     57.00068     115.1987         7     1.153     0.438 -28.13   0
       359    228.2851    501.9032 307.8273933  +6.4796336      832.676     1237.955     1444.014     81.06129     162.1226     323.4425      1.804     4.38     919.4798     57.00068     137.5789         9     1.153     0.799 -40.32   0
       360    887.6081    496.5124 307.5537624  +6.5039517     2520.667     3195.146     3176.601      80.6756     161.4156     323.1209      1.364     2.81     903.7628     57.00068     484.9694        17     1.166     0.820 -24.58   0
       361    106.6343    495.6764 307.8781213  +6.4781121     689.2213     991.6625     943.7463     80.93293     161.7374     323.3461      1.746     5.36     924.6263     57.00068     100.8331         9     1.369     0.591 -55.24   0
       362    926.8774    495.6465 307.5374824  +6.5056204     1416.321     1792.537     1748.134     80.93293     161.8016     323.3782      1.365     3.46     901.1034     57.00068     235.3794        12     1.103     0.730 -28.16   0
       363    265.1218    494.3544 307.8123507  +6.4839883     645.0049     535.9473     822.4647     80.93293     161.7374     323.3782      1.354     4.15     917.4919     57.00068     87.57013         6     0.764     0.644 -52.46   0
       364    711.5156    492.3863 307.6270334  +6.4997691     3299.858     4401.997     4439.267      80.6756     161.5444     323.2174      1.391     3.10     911.6187     57.00068     611.2146        16     1.139     0.804 -26.06   0
       365     73.4207    491.2892 307.8920620  +6.4788052     2084.024     3201.368     3718.276     80.93293       161.48     323.2496      1.566     3.27     925.2411     57.00068     359.3006        21     1.340     0.993 -34.43   0
       366    422.7484    490.7413 307.7470128  +6.4907732     1176.229     1638.825     2388.925     81.06129     161.7374     323.3782      1.517     3.95     913.8659     57.00068     178.0401        11     1.162     0.730 -33.38   0
       367    382.4247    490.5107 307.7637665  +6.4895151     4197.801     5769.907     5830.744     81.18946     161.5444     323.2174      1.482     3.17      914.329     57.00068     671.3032        20     1.192     0.923 -23.82   0
       368    610.1155    487.1054 307.6693226  +6.4985552     10895.06     15400.75     16022.25     80.93293     162.1226     323.5068      1.470     3.37     914.2591     57.00068     1878.438        33     1.363     0.992 -18.44   0
       369    772.8247    483.6918 307.6018632  +6.5054094     18237.68     24729.69     25766.42     81.18945       161.48     323.2174      1.425     3.28     909.3218     57.00068     2983.276        39     1.342     1.003 -21.47   2
       370    776.9347    478.7095 307.6003236  +6.5076038     1590.953     2278.166      2600.68     80.93293     161.9301     323.3782      1.572     3.68     909.1259     57.00068     271.9519        14     1.244     0.747 -17.27   3
       371    292.5609    484.0014 307.8013050  +6.4891847     2918.833     4129.163     4219.073     80.15843       161.48     323.0887      1.501     3.33      915.682     57.00068      462.094        23     1.377     0.952 -21.30   0
       372    416.3244    483.3448 307.7499298  +6.4936114     721.7963     918.9517     919.3312     80.93293     161.7374     323.3139      1.392     4.02     913.3619     57.00068     155.3448         8     1.363     0.486 -19.47   0
       373    801.8511    480.6665 307.5899098  +6.5076288     1305.355     1823.521     1242.981     80.93293      161.673     323.3782      1.430     3.63     908.7764     57.00068     217.8784         9     1.023     0.589   2.15   0
       374    375.5998    480.5101 307.7669378  +6.4934149     1733.231     2461.037     3234.134     80.28804     161.2223     323.0566      1.615     3.43     913.8773     57.00068     280.4713        16     1.182     0.877 -24.01   0
       375    958.0082    478.8008 307.5251178  +6.5136146     2172.323     2803.815     2560.761     80.41743     161.4156     323.1853      1.363     3.75     898.8456     57.00068     395.8916        17     1.279     0.809 -13.16   0
       376    706.2828    477.6349 307.6297021  +6.5056845     587.6848     828.5643      1465.87     81.06129     161.7374     323.3139      1.444     3.46     911.6073     57.00068     107.8064         5     0.756     0.458 -14.20   0
       377    364.2462    476.7675 307.7717790  +6.4945789     752.5082     1154.888     1908.018     80.80437     161.7374     323.2818      1.485     3.10     913.8756     57.00068     132.1331         6     0.718     0.647  16.97   0
       378    110.1819    475.4496 307.8773316  +6.4865821       4837.1     7234.578     7542.425     80.54662     161.8016     323.1531      1.569     3.34     924.0964     57.00068     787.0095        26     1.320     1.021 -31.40   0
       379    748.4888    474.5383 307.6122775  +6.5083748     2517.061     3404.636     3345.697     81.06129     161.8659     323.4425      1.408     2.73      909.519     57.00068     433.3063        20     1.278     0.905 -41.03   0
       380   1012.0731    473.4314 307.5028434  +6.5176353     4536.925     6900.394      6831.23     80.93293     161.7374     323.4104      1.617     3.80      894.848     57.00068     590.1241        27     1.470     0.947   7.91   0
       381    268.2491    472.6616 307.8117838  +6.4930495     1619.915     2218.042     2318.763     81.06129      161.673     323.4425      1.499     3.06       916.36     57.00068     244.4772        15     1.031     0.907 -35.93   0
       382    346.2250    470.3246 307.7794802  +6.4966338     3279.631      4675.58     4910.717     80.67559     161.5444     323.3461      1.512     3.41     913.8885     57.00068       569.82        19     1.248     0.880 -26.12   0
       383    274.7480    471.1342 307.8091365  +6.4938985     557.5804     967.8768       1181.8     81.06129      161.673     323.3139      1.832     4.88      915.924     57.00068     105.2102         6     1.070     0.631 -12.78   0
       384    702.2302    468.1953 307.6317023  +6.5094462     1823.618     2376.483     3154.132     80.54662     161.5444     323.1531      1.406     3.57     911.4335     57.00068     296.5366        15     1.136     0.918 -38.98   0
       385    976.2966    466.9353 307.5179198  +6.5191238     744.1879     1025.483     1479.476     81.06129     161.8659     323.4104      1.467     3.49     897.1321     57.00068     116.7039         6     0.893     0.459 -51.66   0
       386    234.0917    466.0315 307.8261926  +6.4946386     889.2486     1153.813      1331.47     81.18945     161.5444     323.4104      1.369     3.36     917.7333     57.00068     144.4715         9     0.929     0.684 -18.08   0
       387    543.6744    461.1025 307.6977904  +6.5070651     1091.308     1426.851     1287.597     80.67559     161.8659     323.4104      1.345     3.80     912.7216     57.00068     214.3491         9     1.185     0.497 -43.33   0
       388    445.0063    461.4846 307.7387547  +6.5035989     559.2589     680.1828     453.2224     80.67559     161.4156     323.1853      1.325     3.41     912.4318     57.00068     92.30475         6     0.784     0.500  -0.59   0
       389    691.8875    460.1378 307.6362685  +6.5124268      609.324     984.4683     1143.484     80.93293     161.9301     323.4104      1.727     4.62      911.565     57.00068     72.41724         7     1.186     0.510 -37.59   0
       390    828.3502    458.4000 307.5796515  +6.5177077     1706.979     1971.741     1849.694     80.28804     161.2223     322.8956      1.295     3.82      906.477     57.00068     321.3229        12     1.196     0.669 -23.58   0
       391    466.0357    459.0895 307.7301018  +6.5052932     1395.206     1827.016     1748.156     81.18945      161.673     323.3782      1.363     3.29     912.4865     57.00068     256.8942        13     1.071     0.810 -16.89   0
       392    814.0798    457.3040 307.5856150  +6.5176832     2231.386     3203.361     2856.859     80.80437     161.9943     323.4747      1.412     3.45     907.0385     57.00068     436.9498        18     1.239     0.828 -20.41   0
       393    711.3389    455.3938 307.6283494  +6.5150363      16487.2     22435.97     22966.85     80.41743     161.5444     323.1531      1.402     3.05     910.5186     57.00068     3127.577        36     1.308     0.989 -20.76   0
       394    614.2787    457.1610 307.6686004  +6.5110578     742.0719     1209.296     1402.853     80.93293     161.8016     323.3782      1.546     2.52     912.4158     57.00068     163.0562         9     0.877     0.662 -19.84   0
       395    632.4787    451.5223 307.6612313  +6.5139952     2912.198     3961.394     4516.815     81.31741     161.9943     323.5068      1.504     2.90     912.0206     57.00068     511.4567        19     1.205     0.898 -24.00   0
       396    607.8019    448.3964 307.6715850  +6.5144595     5724.149      7855.97     8661.798     80.41743     161.2867     323.1209      1.451     3.13     911.7742     57.00068     968.8849        21     1.258     0.885 -24.48   3
       397    603.9261    445.8688 307.6732797  +6.5153732     15996.67     22913.77     24561.72     81.18945     161.8659     323.3461      1.497     3.19     911.6286     57.00068     2651.522        37     1.343     1.056 -17.03   3
       398    705.0819    449.5212 307.6311453  +6.5172516     621.6968     829.7019     749.6846     81.18945     161.9943      323.539      1.412     4.21     910.5782     57.00068     115.0206         5     0.764     0.662  73.74   0
       399    936.6460    445.3838 307.5351100  +6.5266987     4305.748     5921.655     5675.652     80.54662     161.6087     323.1531      1.444     2.82     899.6212     57.00068     891.7545        24     1.321     0.885 -23.93   0
       400    375.7445    441.2108 307.7682022  +6.5096448     31264.99     44752.65     45919.72     80.41743      161.673     323.0566      1.532     3.26     911.9327     57.00068      4915.25        55     1.422     1.165 -27.99   0
       401    892.2201    440.9615 307.5537096  +6.5270412     1557.822     2165.717     2652.979     80.67559     161.5444     323.1209      1.420     3.33     902.7695     57.00068     329.7972        13     1.112     0.797 -11.61   2
       402    889.4926    437.8775 307.5549458  +6.5282234     741.9028     1706.671     2150.194     80.80437     161.9943     323.4104      2.746     6.36     902.9259     57.00068     109.9897         9     1.581     0.718  63.58   3
       403    121.8180    440.5738 307.8736778  +6.5013723      2462.44     3384.025     3028.275     80.67559     161.5444     323.2818      1.452     3.57     922.5856     57.00068      368.866        17     1.255     0.823 -31.67   0
       404    905.3374    435.7404 307.5484366  +6.5296349     5697.281     7605.097     7479.777     81.06129      161.673     323.4104      1.392     2.96     901.8178     57.00068     1105.488        20     1.203     0.866 -17.02   0
       405     55.0449    436.1236 307.9015579  +6.5009615     1467.228     2290.902     2432.502     80.93293     161.8016     323.4104      1.661     3.65     924.8596     57.00068     274.8752        18     1.208     1.022   4.82   0
       406    233.2724    431.7188 307.8276909  +6.5087773     15042.88     21534.95     22369.09     81.31741     162.0584     323.4104      1.531     3.24     916.0553     57.00068     2223.518        36     1.386     1.044 -25.45   0
       407    961.6925    433.4103 307.5251086  +6.5324782     815.3806     848.4747     728.9781     80.80437     161.3512     323.1853      1.242     4.44      897.019     57.00068     158.6732         9     1.266     0.623 -23.43   0
       408     68.8709    425.6654 307.8961698  +6.5057447     835.5536     953.0637     1076.682     81.06129     161.8016     323.3782      1.306     4.58     924.2858     57.00068     116.7184         8     0.953     0.626  -4.83   0
       409   1005.6232    424.9778 307.5071451  +6.5374255     574.5094      609.522      745.176     80.80437     161.5444     323.3461      1.344     4.27     892.3407     57.00068     84.85077         5     1.113     0.467 -26.46   0
       410    728.3110    425.5172 307.6223040  +6.5279393     761.6536     1068.987     1791.651     80.80437     161.9301     323.4104      1.297     3.49     909.1606     57.00068     131.7723         5     0.751     0.469 -17.06   0
       411    696.5576    424.7951 307.6355163  +6.5271750     971.7476     1123.353     1708.557     80.41743     161.4156     323.0887      1.239     3.49     909.7694     57.00068     154.0107         9     1.032     0.643 -24.78   0
       412    956.6633    423.8909 307.5275164  +6.5362406     1076.067      1335.87     1204.742     81.06129     161.8659     323.4747      1.277     3.39     897.2178     57.00068     200.5234        10     1.183     0.542 -20.69   0
       413    346.1614    421.4433 307.7811545  +6.5168128     1414.408     1872.692     1346.101     80.80437     161.7374     323.2496      1.549     4.10     911.6788     57.00068     234.2641        14     1.216     0.778 -21.18   0
       414    179.2901    421.5434 307.8504530  +6.5111629     1037.897     1696.318     2122.228     80.93293      161.673     323.4747      1.727     4.44     918.6368     57.00068     157.7154        10     0.971     0.860  78.19   0
       415    133.5893    420.2969 307.8694744  +6.5101399     5513.786     7986.138     8235.147     80.80437     161.3512     323.1853      1.544     3.17      921.137     57.00068     868.9197        30     1.332     1.091 -21.09   0
       416    238.3738    419.4361 307.8259868  +6.5140198     1475.707     2213.817     2351.988     80.67559     161.5444     323.1531      1.608     4.03     915.2088     57.00068     277.0622        14     1.240     0.823 -23.12   0
       417    431.0470    419.2582 307.7459744  +6.5205643     735.4363       1122.1     1160.962     81.06129     161.7374     323.5068      1.422     3.57     909.8848     57.00068     117.0948         7     0.743     0.664  19.49   0
       418    155.6152    416.2894 307.8604625  +6.5125355     2639.253     4289.126     4690.079     80.80437     161.5444     323.2174      1.806     3.89     919.7054     57.00068     357.5159        26     1.514     1.021 -50.30   0
       419    819.7539    417.1455 307.5846060  +6.5344532     835.5399     1317.004     1343.413     81.06129     161.7374     323.4104      1.520     2.97     905.1344     57.00068     167.1447         7     1.071     0.653 -15.01   0
       420    551.2134    415.3848 307.6961976  +6.5261930     1111.586     1537.462     1215.877     80.80437     161.4156     323.3139      1.411     4.47     909.3129     57.00068     234.7466         9     1.162     0.521 -17.50   0
       421    379.0141    411.0323 307.7678615  +6.5222141     2327.348       3352.7     3551.562     80.67559       161.48     323.2818      1.504     3.48      910.406     57.00068     358.9628        19     1.366     0.864 -24.99   0
       422    267.4125    411.3467 307.8142000  +6.5183356     816.3956     1224.475     1107.153     80.41743      161.673     323.0887      1.535     5.39      913.882     57.00068     127.1975        10     1.153     0.710 -14.82   0
       423    967.7471    410.0527 307.5233766  +6.5423240     967.7622     1192.896     1261.419     81.31741     161.6087     323.4425      1.288     3.63     895.5055     57.00068     215.7899         9     1.039     0.575 -30.55   0
       424    313.0195    409.0787 307.7953356  +6.5208044     558.2019     810.3215     915.9394     80.67559     161.4156     323.3461      1.391     3.16     912.2199     57.00068     98.49774         5     0.645     0.578 -88.93   0
       425    586.3360    407.2486 307.6818841  +6.5307290     551.9754      699.054     733.9578     80.93293     161.6087     323.4425      1.266     5.39     908.6672     57.00068     103.5485         7     1.234     0.664 -12.82   0
       426    432.8969    404.5524 307.7457015  +6.5266978     7898.327     11126.41     11211.39     81.06129     161.6087      323.539      1.496     3.19     908.9456     57.00068     1112.075        32     1.299     1.067 -28.67   0
       427     29.4181    405.2093 307.9132457  +6.5128612      3426.86     5158.026     5280.638     80.80437       161.48     323.2174      1.689     3.70     925.1428     57.00068     524.1603        25     1.676     0.980 -45.60   0
       428    603.6708    405.8146 307.6747327  +6.5319017     457.8845     420.6154     423.1948     80.54662      161.673     323.2818      1.248     3.73     908.6783     57.00068     82.34528         5     1.042     0.383  -3.74   0
       429    773.5214    402.0061 307.6043162  +6.5391583     14476.93     19476.66     20423.84     80.67559     161.2223     323.1531      1.430     2.76     906.3889     57.00068     2944.548        33     1.286     0.989 -24.33   0
       430    765.6451    403.5435 307.6075359  +6.5382602     2038.687      2951.39     3445.132     81.06129     161.7374     323.4104      1.591     3.12     906.8159     57.00068      386.045        16     1.267     0.818 -32.69   0
       431    336.8069    400.2742 307.7857533  +6.5252384     1161.209     1914.955     1880.773     80.67559     161.2867     323.2496      1.744     5.11     911.0816     57.00068     154.2721        14     1.144     1.047 -14.16   0
       432   1017.3243    397.2277 307.5032145  +6.5492731     4029.986     5602.865     5973.378     80.93293     161.7374      320.147      1.451     2.95     890.9293     57.00068     832.9961        26     1.244     1.027 -12.90  16
       433    948.1665    394.0856 307.5320444  +6.5482629     721.0901     1132.795     1528.791     81.06129     161.6087     323.3782      1.377     3.38      896.263     57.00068     156.7302         6     0.943     0.451 -32.05   0
       434    181.9089    393.0818 307.8503266  +6.5230014      918.971     1307.473     1001.652     80.80437     161.9943     323.4425      1.459     4.85     917.8873     57.00068     152.0099        10     1.358     0.499 -34.77   0
       435    481.1808    388.2814 307.7261961  +6.5350352     3345.798     4733.706     4667.736     80.67559     161.4156     323.3139      1.466     3.56     906.4766     57.00068     536.6493        21     1.231     0.894 -15.92   0
       436    453.3369    388.8123 307.7377425  +6.5338821     2434.268     3364.461     3629.992     80.54662     161.5444     323.1531      1.451     3.15     907.3274     57.00068     356.9795        17     1.169     0.852 -27.57   0
       437    909.8618    388.1667 307.5481526  +6.5494279     781.1716     1142.102     1985.605     80.80437     161.8016     323.3139      1.166     1.89     898.6644     57.00068     204.0223         6     0.693     0.538 -43.27   0
       438    838.8537    384.9441 307.5777537  +6.5483865     36472.16     52171.83     54200.46     81.18945     161.7374     323.3461      1.520     3.33      903.205     57.00068     6047.825        53     1.402     1.144 -35.83   0
       439    984.6816    385.1259 307.5171781  +6.5531807      523.476     443.9293     687.7519     81.31741     162.0584     323.4425      1.166     4.74     893.1721     57.00068     78.13373         6     0.984     0.648  24.14   0
       440     56.5887    381.2026 307.9027738  +6.5236875      743.514     1090.327     958.2751     80.67559     161.4156     323.2174      1.520     4.59     923.2307     57.00068     114.3318         6     1.025     0.583 -13.04   0
       441    331.3459    380.5636 307.7886860  +6.5331927      915.914     1200.681     1073.434     80.93293     161.7374     323.4104      1.276     3.44     910.5378     57.00068     155.8885         5     0.742     0.461 -18.41   0
       442    610.6132    377.3399 307.6728069  +6.5438905     3006.937     4196.079     4272.284     80.41743      161.673     323.0566      1.478     3.08     906.5767     57.00068     522.1097        20     1.223     0.904 -25.63   0
       443     18.8966    377.6089 307.9185488  +6.5239014     1303.786     1721.006     1513.727     80.80437     161.3512     323.1853      1.506     3.88     924.5945     57.00068     228.3527        13     1.229     0.707 -38.80   0
       444    695.3128    370.8965 307.6378443  +6.5493864     87934.67       120721     124952.3     81.06129     162.1226     323.4104      1.451     3.20     906.4316     57.00068     16319.31        73     1.406     1.108 -22.08   0
       445    853.5933    372.1223 307.5720618  +6.5541728     1447.049     2190.724     2736.489     80.67559     161.2223     323.1531      1.630     3.64     901.7888     57.00068      324.013        13     1.116     0.989 -59.90   0
       446     74.5433    370.5505 307.8956773  +6.5286899     1494.182     1951.251     1764.709     81.06129     161.7374     323.4747      1.448     3.06     922.1454     57.00068     236.6609        13     1.002     0.803 -31.21   0
       447    557.7582    367.6916 307.6950841  +6.5461032     2891.084     4047.118      4665.11     81.06129     161.7374     323.4747      1.545     3.13     904.6888     57.00068      449.973        20     1.289     0.850 -24.70   0
       448    937.0516    368.0070 307.5375351  +6.5586591     871.2728      1165.09     1004.205     80.54662     161.5444     322.9922      1.294     3.31     894.8509     57.00068     182.5704         8     1.148     0.473 -21.30   0
       449    385.9896    367.7207 307.7664242  +6.5403299     563.1044     634.0587     662.0939     80.67559       161.48     323.2496      1.203     4.43     908.0924     57.00068     96.80627         5     1.024     0.546 -76.87   0
       450     95.0486    366.3895 307.8873020  +6.5310982     6483.511     9360.373     9754.189     80.54662     161.6087     323.0566      1.507     3.22     921.1497     57.00068     975.3464        29     1.313     1.037 -23.59   0
       451    755.8943    366.0042 307.6128464  +6.5534330     529.6614     759.8099     1042.148     80.80437     161.4156     323.1209      1.703     4.36     905.5315     57.00068     84.54614         6     1.248     0.434 -33.54   0
       452    541.0776    363.7983 307.7021432  +6.5471515     7895.027     11225.15     11715.07     80.41743     161.1578     323.1853      1.483     3.21     903.9606     57.00068     1224.091        32     1.307     1.042 -21.05   0
       453    270.0151    361.3432 307.8148063  +6.5390673     2873.757     4321.627      4033.32     80.41743      161.673     323.0887      1.558     3.27     912.3924     57.00068     491.4905        23     1.319     0.973 -14.60   0
       454    403.9531    358.9257 307.7592598  +6.5445640     27929.84     40175.48     41654.25     80.93293     161.8016     323.3782      1.513     3.29     907.0498     57.00068     4106.483        51     1.416     1.133 -23.07   0
       455    582.9054    358.3188 307.6849548  +6.5508155     641.6281     872.3833     857.9261     80.80437     161.9943     323.4747      1.391     4.03     904.4188     57.00068      113.456         6     1.156     0.401 -30.53   0
       456    511.6923    357.6557 307.7145548  +6.5487025     1329.031     1916.289     1428.247     80.93293     161.6087     323.5068      1.590     3.44     903.3316     57.00068     183.6595        14     1.013     0.921 -30.34   0
       457    383.7181    357.1793 307.7677229  +6.5446058     1273.277     1979.691     2168.344     80.80437     161.4156     323.3139      1.649     4.91     907.6096     57.00068     177.6272        12     1.222     0.777 -32.45   0
       458    670.3876    357.5433 307.6486456  +6.5540653     589.6746     535.6839     678.8608     80.41743      161.673     323.0566      1.232     4.11     905.5853     57.00068     107.6754         5     0.999     0.482  -8.33   0
       459    483.3702    354.2814 307.7264316  +6.5491459     1235.707     1859.541     2078.225     80.93293     161.5444     323.3782      1.636     4.63     902.9123     57.00068     162.7368        11     1.125     0.686 -15.21   0
       460    799.1256    351.9554 307.5953618  +6.5606788     770.1909      1212.73     1083.756     80.93293     161.8016     323.4104      1.282     2.95     904.0924     57.00068     157.4529         6     0.876     0.470 -54.52   0
       461    635.2134    351.2928 307.6634653  +6.5554683      709.852      905.739     1026.678     80.80437       161.48     323.1853      1.354     4.17       904.67     57.00068      108.594         6     0.742     0.667 -48.87   0
       462    493.0463    349.3537 307.7225787  +6.5515049      9444.18     13490.38     14308.43     81.06129     161.6087     323.3782      1.499     3.25     902.5167     57.00068     1434.519        35     1.345     1.037 -26.43   0
       463    381.8005    351.3626 307.7687154  +6.5469428     695.3639     1004.533     1268.744     80.15844     161.5444     323.1853      1.300     3.42     907.3658     57.00068     111.8421         5     0.761     0.445 -17.23   0
       464    917.7982    348.2112 307.5461958  +6.5661894     946.6217     1328.175     1474.255     80.67559     161.4156     323.1853      1.344     4.77     894.5597     57.00068     185.0674        10     1.284     0.600 -30.71   0
       465    762.1269    348.1152 307.6108584  +6.5610272     3559.741     4781.966     5547.098     81.18945     162.0584     323.4104      1.386     3.65     904.1099     57.00068     671.8959        20     1.193     0.859 -23.27   0
       466    709.9378    347.5371 307.6325547  +6.5595201     883.3432     967.6833      622.647     81.06129     161.7374     323.4104      1.269     4.42     904.4761     57.00068     161.1191        11     1.117     0.847  76.52   0
       467    319.8073    346.1300 307.7946395  +6.5470213     1118.002     1496.701     1148.977     80.54662     161.3512     323.2818      1.400     3.64     909.6694     57.00068     184.8271        10     0.984     0.701 -29.49   0
       468    255.6056    339.6490 307.8215230  +6.5475395     843.2167     1124.774      1039.84     80.41743     161.5444     323.0244      1.547     4.28     912.4252     57.00068      103.457         8     0.900     0.728 -35.53   0
       469    155.1706    339.8963 307.8632278  +6.5440596     1154.237     1561.369     938.2914     81.18945       161.48     323.3782      1.510     4.58     918.6971     57.00068     171.5804        13     1.263     0.699 -16.88   0
       470    382.9176    333.4879 307.7688539  +6.5543601     8174.687     11539.82     11918.31     80.80437     161.9301     323.4425      1.519     3.21     906.2962     57.00068     1111.546        28     1.320     0.986 -19.47   0
       471    238.7906    334.2039 307.8286906  +6.5492223     2281.601     3470.522     3756.862     80.41743     161.4156     323.2174      1.593     3.40     913.0976     57.00068     372.9902        16     1.148     0.830 -25.36   0
       472    671.6721    333.8308 307.6489091  +6.5638984      617.441     735.4738     121.3965     80.93293     161.7374     323.3782      1.298     3.44     902.2154     57.00068     98.67566         6     0.732     0.645 -37.90   0
       473    736.6782    333.3383 307.6219249  +6.5662769     1070.849     1507.805     1147.933     81.18945     161.8016     323.3782      1.479     3.40     902.2014     57.00068     205.7686         9     1.001     0.611  -9.09   0
       474    750.8027    329.4384 307.6161892  +6.5683596     59074.64     81368.05     83971.91     80.15844       161.48     323.1531      1.473     3.14     901.4462     57.00068     9901.369        61     1.360     1.116 -22.84   0
       475    422.5101    328.9727 307.7525617  +6.5575532     2474.763     3604.547     3501.857     81.18945       161.48     323.2496      1.536     3.59     903.9809     57.00068     399.0533        18     1.246     0.897 -24.76   0
       476    985.5652    326.5495 307.5187737  +6.5773948     1980.488     2722.043     2665.522     80.93293     161.7374     323.2818      1.498     3.33     891.0613     57.00068     352.4529        16     1.261     0.810  -8.47   0
       477    926.6646    325.6917 307.5432680  +6.5757831     2626.537     3586.591     3770.594     81.06129     161.9301     323.4104      1.447     3.02     892.7348     57.00068     448.0738        17     1.241     0.800 -24.16   0
       478    568.5751    326.2231 307.6919866  +6.5635865     1352.146     1837.165     2064.483     80.54662     161.6087     323.3461      1.505     3.53     900.4791     57.00068     248.2469        12     1.145     0.697 -16.71   0
       479    459.8242    325.2065 307.7371904  +6.5603600      1209.87     1747.916     2002.861     80.54662     161.5444     323.2174      1.605     3.24     901.8887     57.00068     221.8442        11     1.059     0.734 -38.76   0
       480    409.0380    324.6149 307.7583041  +6.5589002     2121.625     3092.318     2952.661     80.80437     161.5444     323.1209      1.458     3.34     904.3835     57.00068     329.9371        16     1.211     0.806 -25.71   0
       481    289.1725    323.7545 307.8081180  +6.5552299     768.6547     1104.517     914.6122     80.54662     161.8016     323.2818      1.383     4.30     910.2028     57.00068     123.0641         7     1.240     0.425 -24.79   0
       482    459.8535    319.6065 307.7373669  +6.5626730     893.3552      1506.25     2177.877     80.54662       161.48     323.0887      1.954     3.79     901.5207     57.00068     126.3284        10     0.915     0.814  19.46   0
       483    830.3824    318.9892 307.5834854  +6.5753343     1249.758     1726.132     1802.712     80.80437     161.4156     323.2496      1.494     3.05     898.2501     57.00068      196.519        11     0.955     0.747   9.91   0
       484    962.5910    317.0232 307.5286358  +6.5805613     603.0692     724.0613     288.1406     80.67559       161.48     323.2174      1.318     3.15     891.2443     57.00068     111.0562         5     0.860     0.489 -85.55   0
       485    185.4830    315.8986 307.8514488  +6.5549870     2631.254     3707.251     4017.389     81.06129     162.1226     323.4747      1.522     3.17     916.0823     57.00068     383.5411        17     1.157     0.905 -24.96   0
       486    439.5537    315.9966 307.7459199  +6.5634824     1293.444     1751.502     1672.547     80.41743       161.48     323.0244      1.397     3.70     902.1352     57.00068     220.5749        11     1.138     0.611 -23.22   0
       487    749.2869    314.0168 307.6173368  +6.5746759     6950.142     9426.474     9504.281     80.67559       161.48     323.2818      1.430     3.15     899.2238     57.00068     1325.879        24     1.218     0.936 -23.03   0
       488    339.7366    313.6306 307.7874583  +6.5611083     607.9252     1071.709    -118.1395     80.80437     161.8016     323.3139      1.713     4.78     907.6855     57.00068     100.9675         7     1.070     0.604  27.47   0
       489    221.3702    313.8174 307.8366140  +6.5570532     671.9426      1254.08     1792.534     80.67559     161.5444     323.3139      1.747     4.29     913.5807     57.00068     110.7397         6     0.844     0.621 -58.18   0
       490     81.5861    312.9344 307.8947002  +6.5527138     1228.162     2016.294     2058.738     80.54662     161.5444     323.3139      1.695     4.56      920.424     57.00068     190.6681        14     1.214     1.024  -0.58   0
       491    765.6270    312.0685 307.6106151  +6.5760268     2961.122     4181.563     4335.129     80.67559     161.6087     323.2818      1.455     3.15     898.8237     57.00068     541.4854        19     1.200     0.896  -8.93   0
       492    468.0988    311.1148 307.7342282  +6.5664556     704.7294     1196.579     1290.125     81.06129     162.1867     323.4425      1.694     5.34     900.5044     57.00068      106.014         7     1.082     0.743 -31.80   0
       493    355.0417    306.7441 307.7813336  +6.5644655     1816.461     3229.448     3331.505     80.93293      161.673     323.3782      1.850     5.12     906.7609     57.00068     288.4105        21     1.679     0.792  -6.03   0
       494     69.2105    307.1719 307.9000350  +6.5546760     1495.158     2034.165     1690.375     80.67559     161.5444     323.2496      1.480     4.43     920.7255     57.00068     206.9998        13     1.334     0.704 -13.56   0
       495   1003.8987    302.8925 307.5119510  +6.5877738     6734.745     9089.257     9600.263     81.06129     162.3149     323.3139      1.419     3.17     889.4412     57.00068     1161.442        26     1.252     0.946 -17.98   0
       496    481.7948    302.7315 307.7288219  +6.5703761     2175.539     3173.912     3255.258     80.54662     161.3512     323.1853      1.583     4.26     899.3638     57.00068     317.4412        20     1.408     0.868 -18.10   0
       497    244.4823    298.2645 307.8275398  +6.5642514     6395.271     9087.995     9970.437     81.18945     161.8659     323.4104      1.566     3.12     911.8212     57.00068      1061.17        28     1.311     1.045 -27.08   0
       498    809.5679    296.7107 307.5928789  +6.5838367     755.9077     846.0559     966.6382     81.18945     161.5444     323.3782      1.137     2.91      896.287     57.00068     126.2219         5     0.714     0.455  69.07   0
       499    764.0779    291.7692 307.6119402  +6.5843559     788.3362     922.0303     591.8269     80.93293     161.8016     323.3461      1.298     4.33     895.9223     57.00068      128.957         7     1.052     0.508 -43.92   0
       500    221.1661    291.3541 307.8374572  +6.5663204     664.3539     1139.112     1195.252     80.67559     161.7374     323.2818      1.891     4.78     912.9994     57.00068     86.59625         7     1.005     0.644 -47.53   0
       501    378.8217    289.1934 307.7720483  +6.5725099     1919.536     2897.619     3117.218     80.67559     161.5444     323.1853      1.681     3.65     904.1044     57.00068      298.609        17     1.159     0.972 -29.70   0
       502    965.5091    288.2682 307.5283874  +6.5925308     1258.554     1591.209     1882.962     81.06129     161.8659     323.3782      1.433     3.45     889.8481     57.00068     286.7493        12     1.250     0.748 -29.94   0
       503    301.1638    285.1457 307.8044401  +6.5715726     1300.355     1798.373     1847.448     80.93293     161.7374     323.4104      1.357     3.83     908.3445     57.00068      203.892        12     1.244     0.618 -30.09   0
       504    148.5905    284.6632 307.8678267  +6.5666412     2069.064     2777.958     3143.048     80.54662     161.5444     323.1531      1.504     3.02     917.1132     57.00068     318.4769        15     1.069     0.882 -28.09   0
       505    558.2162    280.7433 307.6978197  +6.5820163     2363.909     3230.804     3014.226     80.41743      161.673     323.1209      1.410     3.46     895.9206     57.00068     350.4392        16     1.185     0.822 -21.38   0
       506    901.8277    279.8202 307.5551229  +6.5938928     1957.158     2608.975     2213.897     80.67559     161.5444     323.3139      1.367     3.75     891.4548     57.00068     342.7744        14     1.187     0.821  12.25   0
       507    721.7368    278.2035 307.6299833  +6.5885405     5552.116     7464.483     7623.588     80.41743       161.48     323.1531      1.428     2.85      894.478     57.00068     1102.432        24     1.237     0.919 -17.09   0
       508    662.6271    278.2045 307.6545359  +6.5865618     2324.812     3246.705     3324.905     80.54662     161.5444     323.2174      1.438     3.30     894.3642     57.00068     430.5085        16     1.208     0.810 -10.30   0
       509    959.9559    277.6938 307.5310485  +6.5967114     813.2755     1147.326     1106.276     80.93293      161.673     323.5068      1.490     4.02     889.5092     57.00068     149.6074         7     0.969     0.565 -18.67   0
       510    377.6071    272.1335 307.7731279  +6.5795124     767.9993     893.6026     1619.441     80.54662       161.48     323.2174      1.239     3.09     903.0598     57.00068     145.8989         8     0.867     0.670 -36.05   0
       511    917.8015    270.3651 307.5488046  +6.5983300     1327.488     1546.871     1784.022     80.15844     161.5444     323.1853      1.224     4.00     890.1216     57.00068     221.1134         9     1.008     0.608  -9.03   0
       512    221.2702    263.3833 307.8383583  +6.5778716     2485.725     3665.096     3458.818     80.54662     161.6087     323.2818      1.552     3.37     912.1238     57.00068     405.9042        21     1.263     0.945 -23.44   0
       513    863.8604    262.2849 307.5714821  +6.5998644     1850.703     2271.384     2655.923     81.18945     161.8016     323.4747      1.253     3.43      891.244     57.00068     325.0417        15     1.193     0.879 -19.05   0
       514    754.2625    261.8115 307.6170234  +6.5963963     1826.546     2483.776     2556.158     80.54662     161.5444     323.1853      1.421     3.46     893.0096     57.00068     341.4946        14     1.167     0.784 -15.52   0
       515    575.5980    257.7897 307.6913721  +6.5920754     498.7902     645.5323     107.8314     80.67559     161.4156     323.1853      1.182     3.42     893.6301     57.00068     80.29553         5     0.733     0.462  73.26   0
       516    243.1033    256.7451 307.8295140  +6.5813464      739.126     911.5631     613.3423     80.93293     161.7374     323.5711      1.302     5.73     910.9302     57.00068     121.3882         9     1.348     0.756  82.00   0
       517    455.1447    253.2732 307.7415572  +6.5899014     24751.88     35768.73     37000.39     80.93293     161.6087     323.2818      1.528     3.27      897.249     57.00068     3901.745        46     1.414     1.105 -24.66   0
       518    316.2764    254.8868 307.7991838  +6.5845729     680.8282     959.6091      932.957     81.06129     162.0584     323.4425      1.529     4.90     906.5914     57.00068     82.34827         7     0.958     0.710 -79.73   0
       519    781.0825    252.4616 307.6061968  +6.6011534      14698.6     20611.11     21816.06     81.18945     161.7374     323.3461      1.464     3.21     891.9101     57.00068     2297.618        40     1.450     1.018 -16.98   0
       520    720.0258    248.1890 307.6317025  +6.6008752     747.4794     1151.956     717.0932     80.67559     161.5444     323.2496      1.594     4.10     892.0403     57.00068     128.3946         8     0.956     0.692 -20.69   0
       521    460.8904    247.8137 307.7393545  +6.5923482     1567.625     2159.686     2519.402     80.80437       161.48     323.1853      1.526     3.16     896.5711     57.00068     256.8134        13     1.142     0.699 -16.34   0
       522    143.3699    246.5383 307.8712833  +6.5822053     2729.075     3824.018     4108.557     80.80437     161.7374     323.3139      1.498     3.15     915.4378     57.00068     400.1378        21     1.210     0.991 -30.33   0
       523    117.9921    245.6318 307.8818546  +6.5817253     1147.419     1671.852     2014.384     80.54662     161.5444     323.1853      1.465     3.95     916.7004     57.00068     196.3156        10     0.989     0.734 -40.46   0
       524    170.1705    244.5829 307.8602177  +6.5839145     708.1394     1295.493     1406.081     80.67559       161.48     323.3139      1.868     4.32     913.9609     57.00068     109.4575         7     1.142     0.466   8.93   0
       525    917.6614    242.9334 307.5497827  +6.6096510     1580.869     2368.178      2034.33     81.06129      161.673     323.3782      1.550     3.72     888.2244     57.00068     269.8503        14     1.301     0.765 -14.77   0
       526    579.1690    239.0214 307.6905203  +6.5999438      5086.22     7060.167     7208.155     80.54662     161.5444     323.2496      1.446     3.23     892.1167     57.00068     856.4746        27     1.259     1.050 -25.41   0
       527    299.7569    239.9211 307.8065502  +6.5901965     1140.044     1603.581      1448.56     80.93293     161.7374     323.4104      1.474     4.25     907.7408     57.00068     256.1403        11     1.172     0.853 -33.76   0
       528    541.8731    239.1161 307.7060091  +6.5986548     2329.548     3117.416      2755.78     81.18945     162.0584     323.4104      1.442     3.34     892.5477     57.00068     363.0026        15     1.152     0.823 -31.09   0
       529    383.5992    238.2558 307.7717811  +6.5937003     1685.173     2556.132     2217.414     80.41743     161.4156     323.0566      1.602     3.76     900.5141     57.00068     246.1997        17     1.223     0.912  -6.84   0
       530    886.2220    235.6617 307.5630865  +6.6116033     12445.14     17018.71      17088.3     80.67559     161.7374     323.2818      1.394     3.12     888.3612     57.00068     2251.385        33     1.283     0.972 -21.66   0
       531    940.1285    236.1171 307.5406785  +6.6132154     2979.023     4005.987     3825.248     81.31741     162.0584     323.4104      1.358     3.27     887.4611     57.00068     545.1743        15     1.188     0.761  -3.97   0
       532    561.5466    235.6913 307.6979524  +6.6007281      898.493     1151.826     1106.964     80.93293     161.5444     323.5068      1.344     3.60     892.0285     57.00068     139.2423        10     1.100     0.627 -40.69   0
       533    313.6019    235.7092 307.8009416  +6.5924006     1001.514      1579.49     1552.908     80.28804     161.4156     323.1531      1.815     5.22     906.1387     57.00068     141.1993        11     1.057     1.001   1.80   0
       534    205.7060    235.5816 307.8457618  +6.5888262     823.6505     1238.079     1628.906     80.93293       161.48     323.2818      1.812     4.78     911.9231     57.00068     127.0242         8     0.908     0.856  33.74   0
       535    972.8384    233.5120 307.5271781  +6.6153827     11418.94     15249.47     15350.65     81.06129      161.673     323.4104      1.420     3.13     887.2047     57.00068     1832.936        30     1.250     0.968 -15.80   0
       536    684.2410    233.5369 307.6470594  +6.6057270     3096.745     4393.477     4620.541     81.06129      161.673     323.4747      1.459     3.31     891.5225     57.00068     529.3501        19     1.251     0.854 -26.87   0
       537    258.7594    233.3208 307.8238019  +6.5915435     1246.156     1704.239     1403.496     80.93293     161.7374     323.3461      1.563     4.29     909.8832     57.00068     163.7903        12     1.141     0.738 -37.45   0
       538     12.3858    232.1522 307.9261737  +6.5837331     27679.25     39755.49     40672.73     80.41743      161.673     323.0887      1.523     3.21     921.7363     57.00068     4757.719        46     1.397     1.102 -23.90   0
       539    492.9063    228.3645 307.7267109  +6.6014519       2110.1     3080.377     3035.892     81.18945     161.6087     323.4747      1.531     3.62      893.367     57.00068     299.0764        17     1.269     0.828 -25.51   0
       540    877.0449    224.1898 307.5672835  +6.6160332     2218.005     2865.226     3268.472     80.54662     161.6087     323.0887      1.382     3.40     887.5006     57.00068     428.9042        14     1.228     0.717 -13.08   0
       541    824.8553    224.9530 307.5889374  +6.6139742     2330.807     3225.142     3216.825     81.06129     161.7374     323.4425      1.421     2.95     888.5692     57.00068     476.5618        15     1.179     0.752 -25.44   0
       542    624.3790    224.7594 307.6722206  +6.6073466     526.9724     679.6722     880.1462     80.67559     161.5444     323.1853      1.390     3.40     890.9849     57.00068     86.94916         5     0.745     0.449 -72.09   0
       543    504.9818    224.2332 307.7218341  +6.6035625     2737.092     3941.679     3928.645     80.54662     161.5444     323.1853      1.475     3.51     892.6367     57.00068     387.5987        17     1.205     0.822 -14.23   0
       544    410.6919    225.4394 307.7609595  +6.5999011     512.7142     513.7382    -18.94888     81.18945      161.673     323.4425      1.141     4.79     898.6553     57.00068     88.81305         5     1.119     0.581 -30.78   0
       545    736.4025    221.5916 307.6257933  +6.6124043     44595.97     61290.68     63464.18     80.41743     161.4156     323.1853      1.454     2.94     889.6794     57.00068     7508.816        53     1.368     1.059 -18.25   0
       546    339.6742    222.6577 307.7905522  +6.5986649     4106.703     6641.436     7475.147     81.06129     161.7374     323.3461      1.698     3.71     902.4898     57.00068     584.0067        18     1.462     0.779 -27.00   3
       547    340.2078    219.5924 307.7904340  +6.5999484     5263.768     8212.102     9019.756     80.41743     161.5444     323.2496      1.694     4.73     902.4233     57.00068     696.9091        28     1.540     1.088 -22.61   3
       548    970.1932    220.3138 307.5287193  +6.6207436     3164.063      4516.16      4470.51     80.54662     161.4156     323.1209      1.400     3.38      886.373     57.00068     597.7357        20     1.286     0.853 -17.93   0
       549    904.2611    218.7429 307.5561605  +6.6191911     8352.522     11331.81     11740.52     81.18945      161.673     323.4104      1.426     3.15     886.7479     57.00068     1610.501        28     1.289     0.924 -16.26   0
       550   1008.5321    218.9762 307.5128379  +6.6225751     1947.321     2422.829     2271.779     80.67559      161.673     323.3461      1.362     2.69     886.2408     57.00068     427.6973        14     1.072     0.777 -10.10   0
       551    447.7434    217.6937 307.7458302  +6.6043424     5485.739     7632.402     7965.379     80.93293     161.7374     323.5711      1.533     3.29     895.6204     57.00068     792.2341        25     1.244     1.015 -20.69   0
       552    222.5283    214.3089 307.8394929  +6.5981744     781.8188     1304.221     1550.533     80.93293     161.9301     323.3782      1.965     5.05     910.5704     57.00068     97.49658         8     0.892     0.807   3.30   0
       553    105.2316    209.0134 307.8883925  +6.5964135     5133.423     7291.151     7685.967     80.54662       161.48     323.3139      1.508     3.12     915.9349     57.00068     811.8683        25     1.241     1.017 -24.01   0
       554    924.7053    208.4261 307.5480138  +6.6241333     930.3714     1248.603     1340.485     81.18945       161.48     323.2496      1.402     4.52     885.5726     57.00068     220.4265         8     1.018     0.601  -7.39   0
       555    602.3275    207.7361 307.6819532  +6.6136362     619.7667     974.6519     715.0567     81.06129     161.7374     323.4104      1.377     3.41     890.5507     57.00068     122.2227         5     0.772     0.435 -74.05   0
       556    275.5216    205.7156 307.8177711  +6.6035039     37657.56     53263.44     55272.26     81.18945     162.0584     323.5068      1.554     3.29     908.9363     57.00068     5591.022        56     1.421     1.151 -23.98   0
       557    250.8407    206.8203 307.8279856  +6.6022181     7139.885     10593.18     10940.97     80.67559     161.5444     323.1531      1.556     3.14     909.6245     57.00068     1049.581        36     1.416     1.089 -13.27   0
       558    704.7731    205.1308 307.6394852  +6.6181420     1002.028     1145.114     1228.826     80.67559     161.6087     323.2818      1.406     3.65     889.6155     57.00068     160.0844        10     1.054     0.657 -14.70   0
       559    399.5624    201.2294 307.7663985  +6.6095227     55144.15      78291.4     80664.12     80.67559       161.48     323.2496      1.529     3.07     897.6002     57.00068     8953.032        58     1.408     1.156 -21.51   0
       560    155.5965    202.4498 307.8676946  +6.6008187     4556.688     6302.348     6537.053     80.41743       161.48       322.96      1.503     3.17     912.9501     57.00068      666.136        24     1.238     0.984  -8.58   0
       561    416.9594    201.7385 307.7591549  +6.6098965     1511.658     2093.495     1609.631     81.06129     161.7374     323.4425      1.522     3.52     896.6835     57.00068     237.1366        16     1.200     0.857 -20.35   0
       562    303.6070    198.8927 307.8063353  +6.6072646     19977.79      28766.2     29955.93     80.67559     161.4156     323.1853      1.557     3.16     906.5591     57.00068     3145.672        46     1.412     1.132 -21.33   2
       563    311.2062    198.9492 307.8031769  +6.6074966     2287.947     3595.486     4666.186     80.54662     161.5444     323.0244      1.863     7.05     905.6644     57.00068     354.0802        22     2.037     0.930 -60.93   2
       564    738.8490    197.4848 307.6255870  +6.6224390     37049.31     50664.59     52098.24     81.06129     161.7374     323.4104      1.453     3.07        888.3     57.00068     5835.801        48     1.369     1.052 -22.25   0
       565    787.4944    198.2162 307.6053549  +6.6237639      1346.17      1563.79     1693.947     80.80437     161.5444     323.2174      1.301     2.66     887.4724     57.00068     259.7258        11     0.916     0.767   3.08   0
       566    686.9462    199.1399 307.6470919  +6.6200188     1141.871     1373.357     966.5443     81.18945      161.673     323.3461      1.369     4.61     889.8644     57.00068     152.1939        10     0.960     0.754 -22.90   0
       567     26.5549    197.8348 307.9214496  +6.5983783     768.5191      1229.91     1553.675     80.67559      161.673     323.2496      1.643     4.75     919.7745     57.00068     121.2817         7     0.983     0.652 -42.19   0
       568     55.6862    194.6768 307.9094565  +6.6006636     9909.941     14565.22     15468.59     81.06129     162.0584     323.4747      1.592     3.20     918.0882     57.00068     1431.541        36     1.379     1.106 -19.80   0
       569     89.5788    192.7868 307.8954427  +6.6025855     1593.124     2151.963     2026.219     80.80437     161.4156     323.2818      1.464     3.32     916.1819     57.00068       290.08        14     1.106     0.887 -28.53   0
       570    997.3571    191.8889 307.5183878  +6.6333858     1304.361      1657.45     1435.855     81.06129     161.6087     323.4104      1.357     2.75     883.8147     57.00068     261.6751        11     0.910     0.870 -54.32   0
       571    723.3588    185.5455 307.6324228  +6.6268500     731.1086     1114.788     1295.559     80.93293     161.7374     323.3782      1.558     3.54     888.2056     57.00068     154.3625         7     1.018     0.746 -23.26   0
       572   1000.1973    183.7040 307.5174821  +6.6368599      522.245     889.7695     897.8322     80.67559     161.4156     323.0566      1.246     4.41     883.0667     57.00068     86.97217         7     1.234     0.448  -4.27   0
       573    572.7570    182.0489 307.6951010  +6.6232507     859.7449     1213.521      1044.35     81.06129      161.673     323.3139      1.499     4.83     890.1332     57.00068     128.5991        11     1.062     0.761 -10.41   0
       574    998.1020    178.1618 307.5185383  +6.6390782     2306.914     3470.074     3817.011     81.06129     161.6087     323.6032      1.530     3.25     882.5397     57.00068     454.0355        16     1.277     0.748 -14.00   0
       575    581.3554    175.6880 307.6917432  +6.6261650     1007.196     1573.827     1319.894     81.06129     161.6087     323.4104      1.841     5.12     889.9445     57.00068     166.9716        12     1.353     0.686 -36.10   0
       576    274.4226    171.9902 307.8193658  +6.6173905     33559.71      48297.6     50174.02     80.67559       161.48     323.2174      1.534     3.36     908.3749     57.00068     5442.237        55     1.416     1.190 -26.75   0
       577    589.7778    173.7558 307.6883095  +6.6272449     2270.217     3234.516     2753.953     80.54662     161.6087     323.1853      1.462     3.62     889.8322     57.00068      388.254        18     1.198     0.927 -25.35   0
       578    333.8807    174.0290 307.7945990  +6.6185468     1239.625     1733.867     2005.406     80.93293     161.6087     323.3782      1.507     3.47      902.188     57.00068     202.9199        11     1.031     0.715 -13.59   0
       579     19.8502    170.3862 307.9251632  +6.6094843      4963.68     7228.405     7820.952     80.41743      161.673     323.0887      1.524     3.09     919.0031     57.00068      759.342        27     1.315     1.025  -6.07   0
       580    706.0726    168.5993 307.6401732  +6.6332681     8993.364     12528.68     12665.45     80.41743     161.2867     323.2174      1.433     3.14     888.0016     57.00068     1467.999        30     1.266     1.015 -18.41   0
       581    183.8280    169.8972 307.8570679  +6.6152079     970.2686     1249.426      1113.41     81.18945       161.48     323.3461      1.356     3.01     910.9692     57.00068     176.6638         8     0.990     0.592 -25.69   0
       582    260.1572    166.9572 307.8254614  +6.6189888     900.4135     1284.799     1655.472     80.80437     161.7374     323.1853      1.573     5.50     908.5881     57.00068     125.9993        10     1.049     0.815 -48.35   0
       583    116.8146    165.6663 307.8850467  +6.6146992     5461.555     8054.586     8258.519     80.54662     161.6087     323.3139      1.597     3.27     913.8735     57.00068      764.203        25     1.340     0.988 -25.76   0
       584    578.2399    163.9596 307.6934321  +6.6309028      733.461     1127.149     854.2927     80.80437     161.8659     323.2496      1.672     5.53     889.7026     57.00068     137.3679         9     1.287     0.670 -10.04   0
       585    456.0072    162.9112 307.7442432  +6.6272370     1588.186     2287.839      2025.45     80.54662     161.4156     323.1209      1.483     3.28     891.5756     57.00068     276.9318        15     1.170     0.825 -26.54   0
       586    644.6309    162.7628 307.6658929  +6.6336209     964.2557     1299.623      1361.62     80.67559       161.48     323.2174      1.432     3.44     889.1899     57.00068     150.8971         7     0.852     0.593   5.99   0
       587    387.5056    161.6810 307.7727401  +6.6254457     4095.316     6689.324     6963.424     80.80437     161.9943     323.4747      1.758     3.94     896.2698     57.00068     568.9446        33     1.483     1.244 -44.88   0
       588    564.3060    160.4025 307.6993400  +6.6319044     673.9445     1052.867     1475.875     80.67559     161.4156     323.0566      1.810     4.30     889.7025     57.00068     115.6956         6     1.150     0.458 -60.41   0
       589    352.0017    160.5829 307.7875252  +6.6247068     3582.067     4994.059     5727.388     80.67559     161.2867     323.0887      1.556     3.32     899.5277     57.00068     502.3781        19     1.210     0.909 -24.71   0
       590    106.2189    160.4785 307.8896233  +6.6164841     1957.736     2911.045      2774.74     80.54662     161.4156     323.3461      1.488     2.91      914.189     57.00068      314.678        16     1.116     0.859  -3.63   0
       591    742.4249    158.4345 307.6254134  +6.6386811     607.8323     969.4616     464.2116     80.54662     161.5444     323.1531      1.575     5.10     886.1793     57.00068     121.9934         7     1.018     0.791 -24.91   0
       592    667.9321    158.6073 307.6563531  +6.6361168     945.8839     1281.723     1362.953     80.54662       161.48     323.2496      1.471     4.88     888.8222     57.00068     135.6552         9     0.992     0.842  -9.34   0
       593    998.9584    154.8877 307.5189625  +6.6487159     1625.197     2243.132     2127.638     81.06129     161.7374     323.4104      1.448     3.36     880.5983     57.00068     286.7347        14     1.120     0.813  -4.64   0
       594    724.7708    154.6426 307.6328747  +6.6396560     641.3942     891.6129     905.7379     80.67559      161.673     323.2496      1.504     3.31     886.6288     57.00068      126.217         5     1.071     0.296 -55.26   0
       595    203.8440    149.5593 307.8494406  +6.6242778     6089.319     8714.471      8685.85     80.80437     161.7374     323.2818      1.537     3.23     909.7831     57.00068     854.1902        30     1.308     1.034 -21.03   0
       596     86.5916    149.3763 307.8981514  +6.6204067     2355.096     3156.313     2733.764     80.67559     161.5444     323.2174      1.497     3.76     914.6346     57.00068     350.4366        16     1.222     0.869 -39.87   0
       597    665.6010    148.3899 307.6576650  +6.6402571     6910.344      9510.61     9469.076     80.54662     161.4156     323.1853      1.488     3.01     888.0092     57.00068     1221.926        29     1.270     1.047 -33.34   0
       598    813.8616    148.0506 307.5960859  +6.6453571     1220.745     1600.375     1530.177     81.06129      161.673     323.4104      1.431     3.52     883.8589     57.00068     212.2692        12     1.106     0.728 -10.30   0
       599    617.7953    145.6962 307.6776148  +6.6397682     10552.55     14894.99     16306.33     80.80437     161.4156     323.1209      1.508     3.10     888.3912     57.00068     1574.958        36     1.347     1.073 -30.84   2
       600    621.3543    137.1538 307.6764237  +6.6434143     58601.01     82263.08     85255.57     81.06129     161.6087     323.4104      1.482     3.24     887.7976     57.00068     10701.28        61     1.404     1.132 -20.59   2
       601    253.1908    145.8222 307.8290686  +6.6274802     850.0372     1115.601     893.8594     80.67559       161.48     323.2174      1.395     3.26     908.3057     57.00068     143.4705         6     0.769     0.535 -32.60   0
       602    555.6292    145.5408 307.7034447  +6.6377494     565.7007     705.1456     763.0775     80.67559     161.8016     323.3139      1.405     4.46     889.0396     57.00068     98.48285         7     1.140     0.497  -2.04   0
       603     17.2030    144.4736 307.9271396  +6.6200929     850.7752     1363.875     1782.741     80.54662     161.2867     323.2496      1.873     4.60     918.5637     57.00068     124.2457         8     0.939     0.638 -56.60   0
       604    344.9789    141.3391 307.7910915  +6.6324157     3922.211      6194.82     6705.662     80.67559      161.673     323.3139      1.668     3.63     900.3326     57.00068     583.9433        28     1.514     1.056 -52.16   0
       605    526.7868    140.7818 307.7155863  +6.6387473     1767.634     2491.557     2388.918     80.80437     161.4156     323.2818      1.473     2.86     889.2092     57.00068     309.0487        15     1.257     0.737 -24.54   0
       606    991.3207    140.1477 307.5226294  +6.6545468     906.9174     1307.393     1102.224     81.06129     161.7374     323.3782      1.417     4.63     879.7676     57.00068     154.6686        12     1.297     0.705 -22.19   0
       607    687.9853    137.9523 307.6487171  +6.6453157     365.4949     362.4994     185.9248     80.41743      161.673     323.1209      1.082     3.63     886.7825     57.00068     84.75049         5     0.990     0.383  58.97   0
       608    300.4929    130.8463 307.8099250  +6.6352531     4128.651     5894.583     6671.345     80.93293      161.673     323.5068      1.555     3.32     905.5278     57.00068      639.568        24     1.298     0.971 -34.58   0
       609    700.0352    125.4800 307.6441305  +6.6508684     1110.914     1520.952     1576.924     80.93293     161.8016     323.4104      1.472     6.04      885.684     57.00068     198.3526        14     1.474     0.872 -29.84   0
       610    671.7133    124.1768 307.6559399  +6.6504584     1468.632     2078.047     1494.548     81.06129     161.5444     323.2496      1.542     3.70     886.0984     57.00068     299.1098        15     1.330     0.816 -18.70   0
       611      2.3078    113.5230 307.9343742  +6.6323684     50352.51     82853.66     99070.23     80.02863     142.8979     259.2422      2.042     5.96     919.2688     57.00068     14241.88       199     3.240     1.967 -84.32  24
       612    685.7445    121.1203 307.6502138  +6.6521900      3642.92     5005.915     5106.967     81.18945     161.7374     323.4104      1.464     3.14      885.652     57.00068     649.1954        24     1.258     0.963 -13.78   0
       613    427.5565    112.1573 307.7577721  +6.6472363     4661.061     6399.869     6511.023     80.80437     161.7374     323.2174      1.463     2.92     891.5848     57.00068     828.0015        23     1.255     0.909 -20.42   0
       614    899.9735    107.6516 307.5616681  +6.6649138     4358.173     5882.625     5499.564     80.67559     161.8659     323.2818      1.395     3.25     879.9584     57.00068     738.1908        20     1.228     0.872 -23.27   0
       615    881.8754    108.5612 307.5691563  +6.6639338     2449.771     3306.452     3556.332     80.93293     161.7374     323.4104      1.518     3.81     880.4396     57.00068     388.1544        19     1.345     0.820 -17.43   0
       616    579.9625    107.7205 307.6946091  +6.6541793     835.2346     1086.444     1756.738     80.93293     161.8016     323.3782      1.603     4.65     886.6924     57.00068     159.5427         8     0.978     0.628  15.93   0
       617    592.1414    106.0808 307.6896048  +6.6552644     2058.499     2789.317     3057.914     81.06129     161.8016     323.3782      1.419     3.28     886.3988     57.00068     333.2344        17     1.245     0.828 -23.18   0
       618    391.0090    104.0089 307.7732292  +6.6493735     2035.948     2990.642     2650.928     80.41743     161.5444     323.2496      1.529     3.80     894.7625     57.00068     321.5746        20     1.378     0.979  -6.62   0
       619    238.3038    105.2741 307.8366217  +6.6437199     961.3268     1390.315     1821.275     80.80437     161.8659     323.3782      1.591     3.57      908.108     57.00068     178.6964         9     1.016     0.713 -21.67   0
       620    138.7847    100.7980 307.8781133  +6.6422194     3653.463     5291.013     5578.228     80.67559     161.3512     323.1853      1.530     3.12      910.139     57.00068     589.1462        23     1.236     1.007 -21.10   0
       621     20.6563     98.6238 307.9272567  +6.6391379      13857.1     19865.07     21352.25     80.67559     161.7374     323.1853      1.575     3.14     917.6492     57.00068     1986.862        39     1.381     1.103 -22.65   0
       622    287.0861     99.3453 307.8165574  +6.6478076     1394.233     2250.727      2527.17     81.06129      161.673     323.5711      1.722     3.72     905.7842     57.00068     222.3788        16     1.207     0.957 -29.57   0
       623    755.9980     97.5474 307.6218204  +6.6642731     708.5422     1129.736     1899.879     80.41743       161.48       322.96      2.352     2.65     883.2509     57.00068     143.7834         6     0.882     0.500  72.99   0
       624    560.7179     98.5803 307.7029114  +6.6573080     771.8218     949.5635     1226.698     80.67559     161.4156     323.3139      1.353     4.05     886.5015     57.00068     113.8562         7     0.958     0.490  -3.99   0
       625    548.1458     98.2356 307.7081458  +6.6570289     770.9338     1033.534     962.9969     80.93293     161.7374     323.4104      1.199     2.81     886.6598     57.00068     157.6634         6     0.739     0.607 -73.68   0
       626    978.0564     97.0202 307.5295855  +6.6719101     574.3574     603.8243     1230.353     80.54662     161.7374     323.1853      1.568     3.58     877.4106     57.00068     101.9993         5     0.994     0.372 -32.47   0
       627    941.9464     97.3155 307.5445774  +6.6705829     684.9488     683.8075     374.5232     81.06129     161.7374      323.539      1.177     2.75     878.3821     57.00068       131.73         7     0.738     0.654 -11.45   0
       628    150.3878     96.8460 307.8734270  +6.6442415     524.8088     611.8636     825.3779     80.54662     161.5444     323.0887      1.278     3.46     909.5861     57.00068     81.15448         5     0.762     0.453 -73.06   0
       629    889.0637     94.8713 307.5666293  +6.6698260      635.049     1048.024     1076.558     81.06129     161.7374     323.4104      1.724     5.18     879.5363     57.00068     102.9851         7     1.065     0.711 -18.43   0
       630    822.3763     93.3570 307.5943849  +6.6682228     6983.188     9605.261     9822.005     80.67559     161.6087     323.2174      1.434     3.10     880.9186     57.00068     1377.584        26     1.248     0.956 -14.99   0
       631    767.5779     93.6803 307.6171396  +6.6662571     3547.706     5032.053     4834.487     80.67559     161.4156     323.3461      1.525     3.12     882.6297     57.00068     589.4934        24     1.313     0.922  -8.48   0
       632     92.5484     94.1713 307.8975438  +6.6433983     647.3255     1021.137     501.9552     80.67559     161.8659     323.2818      1.547     4.69      911.627     57.00068     122.8237         5     0.998     0.660 -18.44   0
       633    412.9751     94.1792 307.7644355  +6.6541692     1253.136     1610.468     1252.942     80.67559     161.5444     323.3461      1.342     2.65     891.9167     57.00068     230.8246        10     0.893     0.720 -61.13   0
       634    529.9393     91.6917 307.7159296  +6.6591202     1289.634     1751.045     1950.754     80.93293     161.8016     323.4747      1.428     3.61     887.2456     57.00068     187.2722        10     0.970     0.736 -12.90   0
       635     45.5714     91.4967 307.9171483  +6.6429199     1200.228     1372.496     1078.817     81.18946       161.48     323.3782      1.379     3.90     915.1445     57.00068     187.6609        11     1.086     0.711 -38.58   0
       636    649.5892     90.9889 307.6662470  +6.6634196      620.301     932.7031     1249.608     80.67559     161.5444     323.3782      1.608     4.16     884.4467     57.00068     101.1837         6     0.936     0.528  -0.44   0
       637     61.0437     90.4279 307.9107573  +6.6438824     3577.238     4963.058     5066.755     80.67559     161.8016     323.2818      1.466     3.11     913.9122     57.00068     543.3456        20     1.188     0.922 -22.94   0
       638    422.4246     90.1080 307.7606472  +6.6561672     1094.363     1136.391     1389.413     81.18945       161.48     323.2174      1.360     4.57     891.2742     57.00068     162.8737         9     1.085     0.647 -26.71   0
       639    584.7933     87.2342 307.6932916  +6.6627991      1406.72      2160.14     1938.029     80.41743       161.48     323.1531      1.538     4.87     885.6855     57.00068     257.7435        14     1.292     0.850 -24.68   0
       640      3.2383     86.0757 307.9349167  +6.6437311     2841.115     4117.901     4362.029     80.93293     153.4917     273.3371      1.554     3.56     917.9973     57.00068     449.1024        22     1.298     0.964 -20.36  24
       641    712.4853     83.8069 307.6403590  +6.6684903     573.3988     844.5106     1103.909     80.67559     161.4156     323.2174      1.437     4.54     883.4855     57.00068     92.59833         6     0.992     0.591  26.10   0
       642    762.0487     81.0769 307.6198601  +6.6712756     2317.031     3184.646     3241.854     80.93293     161.8016     323.3782      1.421     3.14     882.3212     57.00068     394.4413        17     1.190     0.844 -31.11   0
       643     76.0122     81.8326 307.9048302  +6.6479352     917.5867      1294.72      1477.02     80.54662       161.48     323.2818      1.491     4.88     912.3022     57.00068     127.2858         8     1.002     0.673  -8.93   0
       644    654.4333     80.7762 307.6645780  +6.6677982     614.0846     967.1354      1309.76     80.54662     161.5444     323.1853      1.719     4.90     884.1564     57.00068     98.67242         8     1.038     0.655 -31.21   0
       645    402.8499     81.0525 307.7690843  +6.6592487     1119.045     1603.891     1176.579     81.18945     161.6087     323.4104      1.516     3.66     893.0444     57.00068      201.141        11     1.073     0.846 -49.20   0
       646    683.3613     79.9986 307.6525863  +6.6690878     388.6602     521.9728     456.1163     80.15843       161.48     323.0887      1.715     4.50     883.6689     57.00068     85.35345         5     1.013     0.567  16.29   0
       647    100.1752     80.0404 307.8948535  +6.6494890     1103.421     1492.592     1350.349     80.67559     161.5444     323.1531      1.449     3.71     910.5751     57.00068     165.0784        10     1.002     0.746  24.62   0
       648    417.8798     74.5995 307.7630580  +6.6624174     2854.266     3963.315     3789.706     80.28804     161.0932     323.1531      1.511     3.39     891.3865     57.00068     411.7847        21     1.204     0.989 -33.81   0
       649     88.7171     74.8027 307.8997903  +6.6512654     10337.61     14940.45     15586.26     80.41743     161.3512     323.0566      1.535     3.13     911.0159     57.00068     1607.993        36     1.361     1.112 -20.36   0
       650    631.4713     66.9303 307.6745830  +6.6727456     20913.06     28533.35      30165.3     81.06129     161.8659     323.3139      1.474     2.98     884.1893     57.00068     3868.979        40     1.327     1.052 -17.69   0
       651    255.5208     68.8402 307.8306998  +6.6593404     1612.413     2272.095     3390.494     80.93293     161.7374     323.3461      1.512     3.46      906.471     57.00068     241.2612        14     1.181     0.772 -15.00   0
       652    661.7054     67.6752 307.6619975  +6.6734506     622.2474     894.3635     1104.345     80.80437     161.9301     323.3782      1.205     3.42     883.7867     57.00068     113.1396         5     1.130     0.300 -53.85   0
       653    941.5053     65.9377 307.5458129  +6.6835229     496.6458     1079.922     1309.196     80.93293     161.8016     323.4104      1.764     4.07      877.245     57.00068     107.1645         5     1.190     0.398 -74.32   0
       654    531.3073     62.9117 307.7163304  +6.6710480     5695.994     7945.188     8700.997     81.06129     162.1867     323.4747      1.459     3.04     886.3139     57.00068     986.6279        25     1.289     0.934 -27.38   0
       655    249.6762     62.9768 307.8333257  +6.6615646     2194.209     3148.344     4312.442     80.67559     161.6087     323.3139      1.573     2.83     906.4582     57.00068       377.83        16     1.067     0.880 -45.34   0
       656    617.8028     56.7851 307.6806028  +6.6764763     3539.441     5219.439     6454.045     80.67559     161.3512     323.2174      1.709     4.25      884.026     57.00068     552.1221        26     1.313     1.215  70.91   2
       657    436.8506     58.5460 307.7557181  +6.6696819     25373.93     35703.98     35965.25     81.18945     161.7374     323.4104      1.514     3.07     890.2185     57.00068     3596.791        47     1.396     1.102 -25.13   0
       658    257.4341     58.8742 307.8302415  +6.6635192     10457.56     14549.84      15668.6     80.93293     161.7374     323.3461      1.510     3.10     906.2072     57.00068     1732.104        31     1.278     1.065 -18.30   0
       659    914.6809     58.6695 307.5572011  +6.6856280     2220.184     2944.091     2711.252     81.31741     161.9943     323.4104      1.469     3.14     877.9785     57.00068     374.2469        18     1.211     0.845  -5.91   0
       660    550.0895     58.7786 307.7086667  +6.6733841     691.3739     979.1563     723.2673     81.06129     161.5444     323.2818      1.455     3.75     885.6851     57.00068     128.2042         6     0.950     0.424 -39.45   0
       661    317.7773     59.1309 307.8051649  +6.6654416     1115.044     1806.798     2286.286     80.67559      161.673     323.3461      1.800     4.42     902.2188     57.00068     158.0626        10     1.026     0.731  -8.28   0
       662     22.8593     58.5542 307.9276976  +6.6557545     2570.949     3646.801     3531.169     80.93293     161.7374     323.4747      1.529     3.45     914.1482     57.00068     384.1509        19     1.229     0.921 -25.06   0
       663    245.2575     55.5887 307.8354108  +6.6644662     3320.766      4806.38     4957.275     80.41743     161.7374     323.0887      1.476     3.10     906.3441     57.00068       509.87        23     1.330     0.948 -27.27   0
       664    298.5069     53.3580 307.8133651  +6.6671773     1027.106     1442.472     1357.147     81.18945      161.673     323.4747      1.410     3.69     904.3912     57.00068     153.8095         9     0.979     0.654   4.43   0
       665    935.4592     48.8855 307.5488967  +6.6903614     1100.031     1505.683     1388.008     81.06129     161.7374     323.4747      1.444     3.98     877.0769     57.00068     196.5129        12     1.207     0.756 -21.34   0
       666    686.7368     48.2110 307.6522528  +6.6823246     1860.098     2824.413     3350.958     80.54662     161.5444     323.2496      1.607     3.09     882.9456     57.00068     330.9724        17     1.338     0.827 -40.71   0
       667     91.7297     47.9347 307.8994475  +6.6624591     629.6305     1088.972     824.3572     81.06129     161.8016     323.3782      1.841     4.25     909.5364     57.00068     101.9329         6     0.875     0.590  -2.43   0
       668    197.5274     43.7030 307.8556404  +6.6677676     815.8041     1240.384     1299.069     80.67559     161.8659     323.3461      1.738     4.31     906.1957     57.00068      121.828         8     1.182     0.576 -13.68   0
       669    174.9428     40.9472 307.8651156  +6.6681454     11706.35     16799.03     17120.04     81.06129     161.7374     323.3782      1.520     3.34     906.0891     57.00068     1722.712        37     1.366     1.108 -30.58   0
       670    252.6771     42.9828 307.8327542  +6.6699200     766.1356     1080.765     1111.984     80.54662       161.48     323.2818      1.498     3.69     905.8601     57.00068     120.7537         7     0.853     0.688  19.91   0
       671    920.4624     38.7051 307.5554688  +6.6940637     4805.665     6584.825      6750.82     80.93293     161.8016     323.4104      1.426     2.69     877.3441     57.00068     919.1625        23     1.243     0.925 -14.93   0
       672    519.1758     39.2096 307.7221685  +6.6804268     3238.792      4515.79     4511.415     80.67559     161.5444     323.2496      1.476     3.21     885.7653     57.00068     548.1115        21     1.268     0.892 -19.59   0
       673     76.4518     38.0472 307.9061286  +6.6660264     545.0966     711.3021     431.2748     81.18945     161.6087     323.4104      1.610     6.05     909.8195     57.00068     85.20953         7     1.223     0.841 -85.54   0
       674    721.2346     37.5208 307.6382799  +6.6878927     2204.585     2997.452     3002.915     80.93293     161.8016     323.4104      1.464     3.19     881.4556     57.00068     388.3403        16     1.241     0.800 -18.72   0
       675    457.3051     37.6439 307.7479250  +6.6789978     2059.211     2777.031      2051.87     81.06129      161.673     323.5068      1.391     3.07     888.2167     57.00068     328.4266        15     1.129     0.794 -24.02   0
       676    985.4130     34.9149 307.5286111  +6.6977968     2083.163     3145.755     3399.422     80.67559     161.6087     323.2174      1.595     3.89     872.8323     57.00068     377.4503        20     1.400     0.923 -35.63   0
       677    704.6840     31.4398 307.6453603  +6.6898495     8318.119     11371.75     12037.72     81.06129      161.673     323.3139      1.465     2.94     881.8302     57.00068     1426.225        28     1.276     1.002 -10.76   0
       678    624.8892     30.8107 307.6785327  +6.6874374     4099.064     5591.022     5637.501     80.80437       161.48     323.1853      1.472     3.36     883.1476     57.00068     633.8046        22     1.314     0.849 -13.30   0
       679    326.9134     30.4241 307.8023381  +6.6776001      1011.44     1468.796     2035.822     81.06129     161.5444     323.2174      1.640     4.84      900.657     57.00068     157.5745         8     1.021     0.649 -33.61   0
       680    381.0300     29.3812 307.7798912  +6.6798486     665.8613     754.2292     924.3087     80.67559     161.5444     323.2496      1.229     3.04     894.7195     57.00068     132.6571         8     0.820     0.698 -83.75   0
       681    425.1263     27.0090 307.7616518  +6.6823084     6950.739     9797.129     9731.441     80.67559     161.2867     323.2174      1.453     3.04     890.7065     57.00068     1159.037        28     1.243     1.064 -16.69   0
       682     26.0753     26.5289 307.9274454  +6.6690841     9587.695     13582.87     13934.41     81.31741     161.8659     323.3782      1.513     3.13     911.2397     57.00068     1410.331        35     1.337     1.112 -18.83   0
       683    672.1528     25.8960 307.6590620  +6.6910492     931.3008     1113.915     761.0461     80.93293     161.6087      323.539      1.217     3.47     883.1081     57.00068     215.0829         9     1.158     0.559 -12.19   0
       684    500.8198     23.6785 307.7303175  +6.6862232     1143.096     1579.639     1206.879     80.67559     161.4156     323.3461      1.533     5.12     885.3174     57.00068     172.0947        13     1.250     0.989 -79.75   0
       685    417.1502     22.6427 307.7651126  +6.6838433     873.9178     1373.397     1239.701     81.18945     161.7374     323.3782      1.463     4.54     891.4322     57.00068     108.8871         9     0.920     0.704  68.70   0
       686    321.6759     21.8733 307.8048025  +6.6809543     14452.17      20315.3     21273.38     81.31741     161.9943     323.4104      1.494     3.10     901.1765     57.00068     2395.921        37     1.397     1.036 -21.43   0
       687     95.3589     22.1362 307.8988124  +6.6732320     2798.681     4121.351     4101.404     81.06129      161.673     323.4747      1.516     3.25     908.1959     57.00068     475.4902        24     1.286     1.088  -5.08   0
       688     86.7517     20.9375 307.9024285  +6.6734369     1636.321     2305.451     2100.845     80.93293      161.673     323.4425      1.432     3.67     908.4493     57.00068       287.59        15     1.262     0.790 -26.31   0
       689    790.3741     20.5293 307.6101261  +6.6972207      883.686      1068.59     1201.615     80.67559     161.6087     323.3139      1.173     3.54     879.7527     57.00068     167.9213         8     1.010     0.625  -1.98   0
       690    387.9349     19.8054 307.7773456  +6.6840338     2589.476     3495.253     3540.713     80.54662       161.48     323.1531      1.399     3.13     893.9607     57.00068     402.8206        16     1.174     0.808 -20.04   0
       691    983.6578     16.9474 307.5299426  +6.7051563     728.6349     823.3926     763.2842     81.06129     161.7374     323.3782      1.093     2.24     871.6483     57.00068     142.5456         7     0.696     0.647  73.24   0
       692    807.4026   1021.8018 307.5694526  +6.2843935     1103.526     1800.987     1913.597     80.41743     152.5405     272.3082      1.581     5.21     916.4398     57.00068     164.4811        11     1.464     0.630 -18.07  16
       693    263.0957   1019.1165 307.7954950  +6.2672674     1067.865     1508.962     1181.031     80.93293     162.1226     305.7617      1.445     2.67     929.6851     57.00068     209.9042         9     0.895     0.656 -13.85  16
       694     67.3607     15.7993 307.9106578  +6.6749049     693.0283     750.7747     496.0015     80.15844       161.48     323.0887      1.226     3.45     908.8882     57.00068     107.5674         5     0.754     0.457 -75.82   0
       695    907.2867   1015.8465 307.5281867  +6.2901880     8924.774     13732.55     13763.94     81.06129     161.6087     323.3782      1.628     3.33     916.2116     57.00068     1179.501        35     1.361     1.184 -17.98  16
       696    538.6730   1015.2109 307.6812308  +6.2781240     9051.218     12898.06     14142.44     80.54662     161.3512     323.2496      1.520     2.93      924.633     57.00068     1636.092        33     1.397     1.034 -26.14  16
       697    883.7122     12.9488 307.5716015  +6.7034701     1508.048     2101.732     1700.869     81.06129     161.6087     323.4747      1.384     3.36     877.0994     57.00068     288.0851        11     1.149     0.639 -19.59   0
       698    880.9250   1012.0353 307.5392582  +6.2908815     12728.18      19561.5     20485.45     80.93293     161.8016     323.3782      1.622     3.14     916.1408     57.00068     1856.245        46     1.463     1.235 -12.86   0
       699   1002.7340   1011.6287 307.4887039  +6.2951139     4749.203     7977.176     8697.649     80.80437      161.673     323.3139      1.805     3.76     908.3246     57.00068     658.4727        37     1.546     1.239 -32.46   0
       700    593.8693   1012.4598 307.6584100  +6.2811085     1531.874     2193.895     2379.962     81.18945     161.7374     323.3782      1.574     3.30     922.2209     57.00068     264.9843        14     1.170     0.734 -30.29   0
       701    525.1217   1011.0809 307.6869951  +6.2793752      4611.13     6771.196     7268.742     81.31741     161.9943      323.539      1.560     3.15     924.5563     57.00068     712.0948        30     1.511     1.076  -3.15   0
       702    634.7903   1010.4832 307.6414890  +6.2832944     1666.518     2335.868     2579.863     80.67559     161.4156     323.2174      1.507     4.30     921.1663     57.00068     242.8697        16     1.291     0.830 -10.93   0
       703     59.5969   1009.8190 307.8802806  +6.2642636     1052.798     1420.383      1219.58     80.67559     161.2867     323.1853      1.436     4.22     929.6158     57.00068     148.9528        11     1.100     0.747  -9.98   0
       704    478.2754   1007.5675 307.7065602  +6.2792558     2517.815     3344.543     3073.587     80.93293     161.7374     323.3461      1.436     3.26     924.4647     57.00068     435.6628        19     1.191     0.915 -23.26   0
       705    912.6532    999.6248 307.5265022  +6.2970646     45174.95     69256.67     72065.52     80.54662     161.7374     323.2174      1.653     3.23     915.3533     57.00068      6996.54        66     1.497     1.285 -19.15   0
       706    317.9972   1000.4983 307.7733324  +6.2767977      576.567     892.6166     1118.669     80.80437       161.48     323.0566      1.409     3.72     928.6608     57.00068     94.73529         6     0.804     0.495  -6.50   0
       707    220.0529    998.0615 307.8140722  +6.2745140     1959.627     3051.151     2471.364     81.06129      161.673     323.3461      1.581     3.66     929.5939     57.00068      340.342        17     1.234     0.879 -34.64   0
