#   1 NUMBER                 Running object number                                     
#   2 X_IMAGE                Object position along x                                    [pixel]
#   3 Y_IMAGE                Object position along y                                    [pixel]
#   4 ALPHA_J2000            Right ascension of barycenter (J2000)                      [deg]
#   5 DELTA_J2000            Declination of barycenter (J2000)                          [deg]
#   6 FLUX_APER              Flux vector within fixed circular aperture(s)              [count]
#   9 FLUXERR_APER           RMS error vector for aperture flux(es)                     [count]
#  12 FLUX_RADIUS            Fraction-of-light radii                                    [pixel]
#  13 FWHM_IMAGE             FWHM assuming a gaussian core                              [pixel]
#  14 BACKGROUND             Background at centroid position                            [count]
#  15 THRESHOLD              Detection threshold above background                       [count]
#  16 FLUX_MAX               Peak flux above background                                 [count]
#  17 ISOAREA_IMAGE          Isophotal area above Analysis threshold                    [pixel**2]
#  18 A_IMAGE                Profile RMS along major axis                               [pixel]
#  19 B_IMAGE                Profile RMS along minor axis                               [pixel]
#  20 THETA_IMAGE            Position angle (CCW/x)                                     [deg]
#  21 FLAGS                  Extraction flags                                          
         1     16.4145     83.7568 307.9362859  +6.6321110     702815.8      1827635      2184291     82.26078     165.5137     331.0603      2.612    13.38     983.5547     58.40123     61262.44       511     2.740     1.819 -28.01  20
         2    193.3996     10.7628 307.8651969  +6.6682337     7051.981     15539.92     17289.47       82.128     165.5137     331.1262      2.293     7.22     972.5446     58.40123     945.0622        51     2.290     1.097 -25.48  16
         3    939.0032      8.5731 307.5552384  +6.6942439     2824.399     5730.658     6463.331     82.52571     165.4477     331.1262      2.085     7.41     938.2563     58.40123     442.2993        26     2.131     0.722 -25.82  16
         4    537.5798      8.8409 307.7221513  +6.6806406     2078.349     4484.155     4786.526     82.65786     165.5137     331.0932      2.216     8.39     949.5262     58.40123     237.6234        28     2.047     0.961 -19.51  16
         5      8.6956     10.1269 307.9420156  +6.6622470     538.7727     751.2661     611.7124     82.92152      165.843     331.3239      1.508     4.44     980.5769     58.40123     89.53308         6     1.244     0.451 -41.01   0
         6    739.8014      7.2518 307.6381175  +6.6881009     1369.889     3090.776     3269.032     82.39335     165.3157     324.9712      2.212     7.65     945.6707     58.40123     229.1944        22     1.887     0.868 -26.22  16
         7    476.0048      7.3036 307.7478073  +6.6792006     1129.765      2272.67     2741.883     82.78979     165.3817     325.3405      2.223     7.18     950.6539     58.40123     178.5881        19     1.858     0.776 -18.57  16
         8   1001.7302      5.6883 307.5292520  +6.6975383     1130.994     1543.172     1497.794     83.05304     165.9746      311.107      1.339     2.64     932.9575     58.40123     223.8302         8     0.853     0.718 -68.60  19
         9   1004.7830      4.4187 307.5280256  +6.6981648     1172.194     1977.188     2170.001     82.78979     165.4477      296.043      1.919     4.83     932.5034     58.40123     193.9198        13     1.304     0.819 -15.59  19
        10    722.5032      1.9092 307.6454921  +6.6897251     4926.052     7799.852      8712.45     79.01235      140.862     259.0804      1.749     7.03      945.873     58.40123     637.3345        22     1.815     0.763 -18.65  24
        11    642.3611      1.5389 307.6788298  +6.6871827      2168.48     3059.031     3346.641     74.75357     134.8449     252.7687      1.499     5.32       947.59     58.40123     330.9534        15     1.524     0.662 -10.53  24
        12    723.8958   1008.2220 307.6107286  +6.2742943     776.3482     1235.647     1289.459     83.05304     165.5137     331.1591      1.618     6.62     989.4037     58.40123     131.0746        12     1.652     0.744  -5.83   2
        13    906.4889   1021.4984 307.5344121  +6.2749412     1047.095     2146.314     2360.582     83.05304     160.0151     283.7314      2.131     5.17     982.7161     58.40123     156.4324        13     1.127     0.939  -5.90  26
        14    809.3779   1023.7321 307.5746853  +6.2707610     2572.376     3526.604     3893.045     71.16328     130.5682     248.1496      1.340     4.27      986.377     58.40123     618.9084        13     1.622     0.424  -4.63  24
        15    598.7120   1020.9769 307.6623076  +6.2648203     52905.05     109031.6     119869.6     83.05303     163.5902     291.0233      2.166     8.65       991.45     58.40123     7723.409        89     2.275     1.117 -25.14  24
        16    728.6982   1005.7205 307.6088181  +6.2754885     1454.118     1837.553     2114.622     82.92152     166.1061     331.3568      1.106     3.35     989.3388     58.40123     325.0504         9     1.130     0.654 -55.83   3
        17    732.0441   1004.4724 307.6074703  +6.2761162     1811.217     2741.308     2806.561     82.92152     165.7772     331.3568      1.620     5.74     989.2538     58.40123     260.6967        15     1.501     0.693 -39.98   3
        18    255.6136   1006.9357 307.8053340  +6.2590585     918.6456     1876.103     1674.392     82.52571     165.5137     331.2251      2.128     7.16     997.7749     58.40123     133.9127        16     1.772     0.810 -20.40   0
        19    453.4152   1006.2538 307.7231762  +6.2660087     756.8485     1378.722     1284.348     82.39336     165.7114     331.0273      1.838     5.76     993.8707     58.40123     138.4485         9     1.570     0.594 -30.30   0
        20    746.3030   1004.5863 307.6015420  +6.2765480     768.6123     1358.099      748.341     82.92152     165.4477     331.0932      1.752     6.49     988.8167     58.40123     154.0621        11     2.146     0.552 -30.98   0
        21    377.2314   1002.7050 307.7549496  +6.2649069     1349.086     2565.726     2753.752     83.18435     165.5137     331.3898      2.053     7.42     996.3555     58.40123     198.1166        20     1.926     0.801 -28.75   0
        22    764.5325    992.0865 307.5943918  +6.2823211     5858.089     11671.72     12758.15     83.18434     165.9746     331.3568      2.101     7.85     987.1398     58.40123     869.8079        37     2.188     0.842 -25.42   0
        23    559.9387    992.7286 307.6793775  +6.2751789     2896.696     6043.338     6871.573     83.18435     165.7114     331.3898      2.127     7.61     990.9131     58.40123     463.2756        30     2.069     0.874 -28.68   0
        24    531.8442    993.1586 307.6910358  +6.2740559     688.6908     1121.431     952.3057     82.78979     165.7114     331.1591      1.864     5.07     991.3174     58.40123     150.2163         9     1.482     0.569 -35.09   2
        25    310.2561    991.2700 307.7831657  +6.2673698     10802.32     22943.54     25745.84     83.18435     165.6455      331.258      2.241     8.44     997.3116     58.40123     1664.588        54     2.452     0.963 -28.95   0
        26    825.6575    991.5463 307.5690127  +6.2845961      837.666     1519.635     1371.326     83.18435     165.7114     331.3239      1.856     6.43     985.0908     58.40123     141.3604        13     2.023     0.574 -16.75   0
        27    434.3563    991.8890 307.7315837  +6.2712974     776.8904      1404.24     1174.646     83.05304     165.5796     331.3568      1.794     5.67     994.2944     58.40123     135.3459        11     1.688     0.536 -26.50   0
        28    279.8945    989.4492 307.7958422  +6.2670973     582.8621     968.8011     856.0865     82.92152     165.5796     331.4557      1.899     3.49      997.561     58.40123     103.2045         5     0.811     0.434 -20.80   0
        29    925.8538    985.5264 307.5275846  +6.2904425     6444.494     13219.36     15035.58     82.92152     165.7114      331.291      2.141     7.49     980.2364     58.40123     957.8757        43     2.216     0.938 -25.51   0
        30    557.1085    984.9580 307.6808176  +6.2782919     6019.191     12093.43     13815.72     83.05304     165.7114     331.4227      2.116     8.09     990.8535     58.40123     947.2858        37     2.173     0.841 -25.90   0
        31    899.4145    981.7240 307.5386992  +6.2911259     9036.461     18927.88     21484.84     82.52571     165.4477     331.1591      2.161     8.11     981.9727     58.40123     1246.951        49     2.261     0.954 -23.76   0
        32    612.3254    982.4235 307.6579616  +6.2811957      1035.82     2240.123     1895.002     82.65786     165.5137      331.258      2.213     7.01     990.2812     58.40123     164.9586        16     2.008     0.686 -28.15   0
        33   1021.0901    981.1373 307.4881615  +6.2954462     3481.782     7118.768     7973.041     83.05304     163.0556     289.3685      2.159     7.69     977.1183     58.40123     462.3191        32     2.021     0.935 -28.71  24
        34    651.5961    980.6607 307.6417046  +6.2832440     1046.217     1577.668      2297.91     82.39336     165.5137     331.0273      1.958     3.66      989.054     58.40123     166.7229        10     1.102     0.663 -62.20   3
        35    654.6425    979.6860 307.6404719  +6.2837488     979.8989     1387.853     2097.687     83.05304     165.5796     331.3239      1.860     4.96     988.9394     58.40123     128.7687         9     1.172     0.677 -52.87   3
        36    541.6799    981.6335 307.6873411  +6.2791452     2911.922      3639.13     4190.707     82.92152     165.7114     331.3568      1.282     2.85     991.0063     58.40123     464.5289        13     1.031     0.723  -8.69   3
        37    544.9580    980.0000 307.6860346  +6.2799300     2636.589      4110.24     5267.242     82.26078     165.3157     330.8954      1.721     5.18     990.9221     58.40123     397.8968        20     1.616     0.834 -10.31   3
        38     76.8313    979.9207 307.8805334  +6.2641734     624.4689     803.6094     1024.789     82.92152     165.7114      331.291      1.674     5.07     997.1164     58.40123     102.0156         8     1.261     0.576 -61.91   0
        39     80.4167    978.6953 307.8790857  +6.2648005     551.2142     671.4279      727.107     82.92152     165.5137     331.1591      1.316     3.48     997.1164     58.40123     97.04272         5     0.788     0.444 -70.84   0
        40    494.5247    978.0031 307.7070572  +6.2790569     1241.619      1558.75     1426.242     82.52571     165.1836     331.2251      1.247     4.25     992.1525     58.40123     209.2247         8     0.919     0.627 -41.23   3
        41    497.9949    976.5266 307.7056655  +6.2797833     1489.662     2051.629     1876.743     82.65786     165.2497     331.2251      1.453     4.33     992.0701     58.40123     234.6176        11     1.233     0.635 -42.74   3
        42    931.1698    969.3169 307.5259249  +6.2973133     31404.55     65520.57     72844.69     83.05304     165.5137     331.2251      2.181     8.03     979.7529     58.40123     4794.889        74     2.281     1.053 -25.75   0
        43      4.1463    969.1179 307.9111003  +6.2661754     2252.479     4730.568      5738.94     83.05303     164.3888     292.5196      2.205     8.16     997.1164     58.40123     349.7048        30     2.167     0.887 -22.35  24
        44    238.4822    967.6553 307.8137911  +6.2746976     1235.182     2593.382     3526.604     83.05304     165.7114     331.3568      2.240     7.14     997.3302     58.40123     193.5593        20     2.176     0.657 -29.26   0
        45    125.8988    966.8351 307.8605945  +6.2712342     487.7059      1050.11     1235.562     83.05303     165.5796     331.4886      1.910     6.38     997.1262     58.40123     102.7679         8     1.528     0.749 -41.16   0
        46    636.9060    965.9817 307.6483070  +6.2888106     640.7977     875.2092     1431.468     82.92152     165.4477     331.1921      2.104     5.01     989.1061     58.40123     89.85767         8     1.470     0.484 -21.44   0
        47    829.0347    963.1317 307.5685729  +6.2964411     1465.006     3054.214     3214.246     82.92152     165.7772     331.4227      2.143     7.40     983.7012     58.40123     222.6079        21     2.028     0.757 -22.61   0
        48    777.3811    960.8761 307.5901121  +6.2956385     4752.999     9670.376     11161.08     82.52571     165.4477      331.258      2.131     8.04     985.2255     58.40123     689.2028        34     2.195     0.823 -26.67   0
        49    564.2578    960.2642 307.6786867  +6.2887277     506.4698     1218.372     1523.337     83.18435     165.6455     331.3568      2.204     5.56     990.5043     58.40123     141.6085         7     2.089     0.416 -28.66   2
        50    246.4548    960.0939 307.8107365  +6.2780885     1031.871      1922.27     2318.469     82.92152     165.7114     331.5544      2.052     6.77     997.2329     58.40123     171.4117        17     1.893     0.680 -24.81   0
        51    211.6775    960.0384 307.8251876  +6.2769375     607.6536     1458.834     1567.212     82.92152     165.7772     331.3239      2.494     7.35     997.2211     58.40123     82.13318         8     1.754     0.862  -4.65   0
        52    963.6712    956.7034 307.5128472  +6.3036106     4211.858     5194.549     5876.638     82.92152      165.843     331.3568      1.273     3.02     978.1355     58.40123     708.8523        18     1.320     0.818 -49.88   3
        53    966.9811    955.3428 307.5115179  +6.3042833     4287.711     6640.416      7408.27     82.65786     165.6455     331.1262      1.594     5.80     977.9366     58.40123     598.7742        16     1.343     0.748 -34.75   3
        54     71.7150    958.0474 307.8834063  +6.2730309     2073.902     4229.854      4562.73     83.05304     165.6455     331.3239      2.180     7.28     997.1164     58.40123     280.5062        29     2.255     0.848 -25.38   0
        55    939.5115    947.6442 307.5231929  +6.3065411     1497.177     3190.018     2934.887     83.05304     165.5796     331.3568      2.130     7.35     979.0395     58.40123     218.0462        21     2.035     0.743 -21.54   0
        56    798.8228    944.6147 307.5817544  +6.3030724     935.0698     2303.332     2733.911     82.78979     165.5137     331.2251      2.421     7.82     983.7303     58.40123     189.9079        18     1.820     1.175 -22.20   0
        57    660.1648    943.6833 307.6394003  +6.2987990     3209.064     6667.253     7403.229     83.05304     165.7114      331.291      2.144     8.23     987.9201     58.40123     493.0982        33     2.231     0.849 -25.42   0
        58    270.4919    944.5453 307.8012797  +6.2853191     2852.624     3433.813     2943.691     82.92152     165.5796     331.4557      1.270     2.67     997.0284     58.40123     435.7439        12     0.924     0.790 -55.57   3
        59    273.3409    943.3370 307.8001372  +6.2859141     2760.238     4008.932     3447.125     83.18435     165.6455     331.3568      1.525     3.83     996.9998     58.40123      385.979        16     1.319     0.792 -22.78   3
        60   1008.8679    943.8412 307.4945025  +6.3104356      697.649     1210.349     1446.925     82.92152     165.6455     331.3898      1.810     4.90     975.4081     58.40123     88.51196         8     1.154     0.589   5.89   0
        61     39.0000    942.0143 307.8975461  +6.2785440     1368.114     2020.219     2358.203     82.52571     165.3157     331.0273      1.494     3.10     997.1164     58.40123      230.235         7     0.848     0.658 -67.41   3
        62     41.9301    940.7263 307.8963728  +6.2791748     1484.172     2435.538       2626.6     83.18435      165.843     331.3568      1.946     5.08     997.1164     58.40123     225.7013        14     1.388     0.695 -33.09   3
        63    892.0729    939.8168 307.5431699  +6.3081822     668.2659      1332.19     1347.602     82.52571     165.6455     331.2251      2.250     6.36     980.6433     58.40123     115.8518        11     1.830     0.620 -45.01   0
        64    483.5768    941.2302 307.7128571  +6.2938706      624.975     857.4155     730.1007     82.52571     165.5796     331.1591      1.405     3.46     992.0872     58.40123     86.26251         5     0.776     0.447 -70.56   0
        65   1015.2133    936.9949 307.4920975  +6.3134749     740.2726     1525.788     2798.278     82.65786     165.4477     331.1921      4.116     5.94     974.6812     58.40123     129.6466        10     1.497     0.663 -27.10  18
        66    582.7557    936.9542 307.6717932  +6.2989741     1156.028     1330.566     1415.529     83.05303     165.7114      331.258      1.135     3.76     989.7343     58.40123     184.1262         8     1.032     0.550 -59.98   3
        67    586.0201    935.4968 307.6704863  +6.2996856     957.2144     1505.376      1459.13     82.92152     165.5137     331.0932      1.675     5.03      989.615     58.40123     157.8334         9     1.277     0.560 -35.13   3
        68    622.3609    933.4240 307.6554568  +6.3017637     815.6376     871.6008     930.2613     82.65786     165.4477     331.0932      1.171     3.45     988.6095     58.40123     154.0352         5     1.011     0.339 -69.11   2
        69    625.4287    931.8871 307.6542343  +6.3025014     804.6872     1117.295     746.0687     83.18435     165.4477     331.1921      1.185     3.53     988.5064     58.40123     144.9902         6     0.905     0.453 -52.36   3
        70     73.0451    933.1003 307.8837059  +6.2833754      708.277     1384.839     1999.198     83.05304     165.6455     331.5544      2.255     4.93     997.1164     58.40123     119.9728         7     1.297     0.531 -22.64   0
        71    302.5267    931.1962 307.7884247  +6.2919112     1023.794     1373.642     1741.022     82.52571     165.2497     331.1592      1.473     4.71     996.4903     58.40123     177.2153        11     1.277     0.693 -26.04   3
        72    305.5104    929.3115 307.7872492  +6.2927900     1059.533     1362.908     1250.487     82.78979     166.2374     331.4227      1.387     2.96     996.3871     58.40123     189.8966         9     0.965     0.603 -79.50   3
        73    770.2491    926.5724 307.5942395  +6.3095622      681.871     983.2783     920.6066     82.65786     165.7772      331.258      1.676     5.25     984.0782     58.40123     136.9959         8     1.723     0.451 -28.18   0
        74    908.2686    922.9335 307.5370123  +6.3156961       5311.9     10729.67     11838.44     83.05304     165.7772     331.3568      2.164     7.76     979.6622     58.40123     762.0338        36     2.188     0.837 -27.03   0
        75    444.0670    920.0917 307.7299930  +6.3012673     1606.916     3424.376      4286.34     82.92152      165.843     331.3568      2.288     8.01     992.5199     58.40123     260.2129        25     2.169     0.827 -29.60   0
        76    345.8308    918.5037 307.7708645  +6.2986120      6816.21     13846.24     15005.54     83.18435     165.4477     331.3898      2.130     7.38     995.3544     58.40123     990.9741        41     2.244     0.893 -27.41   0
        77    265.8561    917.4499 307.8041298  +6.2963493     5142.946     10462.03     11365.46     83.05304     165.7114     331.3568      2.107     7.56     996.7471     58.40123     718.0579        36     2.158     0.867 -26.50   0
        78    592.3265    912.4053 307.6686508  +6.3094316     743.3786     1198.126     1096.741     82.65786     165.2497     331.2251      1.970     4.36     988.5921     58.40123     146.8612         7     1.002     0.625 -44.99   2
        79    777.6823    912.1473 307.5916402  +6.3157676     656.2963     1075.512     1211.749     83.05304     165.7114     331.3568      1.800     4.97     983.3794     58.40123     115.1665         9     1.452     0.482 -24.52   0
        80    923.6128    908.1993 307.5311355  +6.3222941     803.5844     1721.077     2053.774     82.65786     165.3817     331.1262      2.269     6.90     978.8758     58.40123     151.9789        14     1.849     0.722 -27.33   0
        81    879.4409    907.5597 307.5495121  +6.3210768     493.0877     1094.533     831.5961     82.78979     165.7114     331.1921      1.381     4.17      979.966     58.40123     87.89722         6     2.034     0.244 -36.39   0
        82    760.4782    901.0852 307.5991644  +6.3197571     1148.508     2319.328     2293.935     83.05304     166.0403     331.4557      2.125     7.10     983.5812     58.40123     220.9307        20     2.380     0.594 -26.32   0
        83     10.7168    898.1077 307.9107979  +6.2957143     759.4495     1605.289     1866.571     82.78979     166.0403     331.4557      2.059     5.90     996.7155     58.40123     129.7791         8     1.784     0.549 -37.00  16
        84    991.1718    896.9949 307.5034418  +6.3291847      909.338     1779.223     2767.264     82.52571     165.5137     331.1262      2.315     6.26     975.0025     58.40123     157.1581        13     1.713     0.642 -25.58   0
        85    545.5302    896.7286 307.6886286  +6.3143295     806.0666     1532.474     883.1246     83.05304      165.843      331.258      1.965     6.65     989.7575     58.40123     145.2819        12     1.859     0.667 -28.18   0
        86    676.8787    895.3649 307.6340966  +6.3193102     1688.312     2252.506     2650.354     82.92152     165.7772     331.3239      1.349     3.97     985.7606     58.40123     303.4879        11     1.011     0.752 -29.38   3
        87    680.5848    893.7168 307.6326125  +6.3201152     1423.813     2063.895     2643.502     82.65786     165.3817     331.1921      1.518     2.95     985.6066     58.40123     283.2216         8     0.891     0.610 -30.76   3
        88    968.0146    892.4999 307.5132167  +6.3302645     618.7007     1124.859     1664.439     83.05304     165.4477     330.9614      2.010     4.18     976.1603     58.40123     83.10779         7     1.041     0.479  -8.92   2
        89    839.1295    890.9879 307.5668247  +6.3265664     661.6748      1311.78     1702.327     82.52571     165.4477     331.1262      1.893     6.11     980.8242     58.40123     123.8401         9     1.736     0.604 -35.89   0
        90     92.7970    889.9965 307.8769717  +6.3018387     1345.639     2913.867     3447.707     82.39335     165.2497     331.1262      2.151     7.64      996.612     58.40123     218.1556        23     2.335     0.860 -30.96   0
        91     75.6996    890.4779 307.8840591  +6.3010619     2124.963     4469.944     4781.795     82.78979     165.9746     331.3568      2.181     7.39      996.612     58.40123     281.5629        28     2.186     0.818 -29.76   0
        92    217.3294    890.3113 307.8252182  +6.3059158     1284.737     1558.684     1759.877     83.18435     165.9746     331.3568      1.329     3.27     996.8789     58.40123     213.0951        10     1.053     0.721 -33.81   3
        93    221.0068    888.4850 307.8237525  +6.3067939     1281.947     1954.577     2446.746     82.65786     165.3817     331.1591      1.929     6.18     996.8967     58.40123     185.6478        13     1.400     0.768 -21.54   3
        94    955.5123    890.4581 307.5184811  +6.3306885     563.8144     728.1158     944.7537     83.05304     165.7114     331.4557      1.475     3.75     976.7665     58.40123     94.08154         6     0.980     0.412 -18.39   0
        95    357.7747    885.6688 307.7670205  +6.3125711     666.6097     1508.784     1690.589     82.65786     165.5796      331.258      2.558     6.39     994.8224     58.40123      114.452        11     2.249     0.509 -33.98   0
        96    253.4662    885.7043 307.8103604  +6.3090377     495.6647     805.2143     725.1624     83.05304      165.843     331.3568      1.550     6.25      996.634     58.40123     91.50537         7     1.583     0.694 -30.42   0
        97    810.4025    884.7859 307.5789722  +6.3281630     612.1129     1144.042     1033.107     82.65786     165.3817     331.1591      2.139     4.50     981.6667     58.40123     102.5704         5     1.232     0.467 -29.24   0
        98    673.4368    883.5645 307.6359275  +6.3240666     5058.114      9932.23     10528.02     82.78979     165.5796     331.0932      2.064     7.68     985.4349     58.40123     754.7457        35     2.144     0.838 -26.72   0
        99     31.2579    882.7297 307.9027890  +6.3027580     687.0872     1172.636     1608.448     83.18435     165.7114     331.3239      1.765     2.25     996.5215     58.40123     159.0659         6     0.698     0.611 -57.36   0
       100    911.2454    879.9122 307.5372332  +6.3335586     2037.298     4023.687     4600.007     83.05304     165.5796     331.3239      2.105     6.18     978.4373     58.40123     307.5762        26     2.082     0.765 -23.21   0
       101     48.1254    879.6033 307.8958875  +6.3046192     768.1611     1565.461      1754.87     82.52571     165.1836     331.2251      2.254     5.95     996.4827     58.40123     127.7506         8     1.844     0.540 -28.44   2
       102    354.6728    877.6398 307.7685829  +6.3157814     9750.892     12290.85     13838.56     82.92152     165.7114     331.3898      1.284     3.34     994.8906     58.40123      1563.29        23     1.245     0.808 -58.70   3
       103    357.3717    876.3146 307.7675066  +6.3164195     10592.67     17583.82     19853.23     83.18435     165.3817     331.1591      1.782     4.42     994.8016     58.40123     1591.064        28     1.607     0.941 -34.62   3
       104     91.2331    877.6024 307.8780449  +6.3069028      831.642     1743.396     1764.256     82.26078     165.5137     331.0932      2.048     6.24     996.4568     58.40123     142.6381        13     1.932     0.567 -22.86   0
       105    227.4666    876.3573 307.8214822  +6.3120191     751.7626     1635.268     1489.469     83.05304     165.6455     331.3898      2.229     5.99     996.8923     58.40123     136.4354        12     1.862     0.543 -21.44   0
       106    432.1403    868.2613 307.7367132  +6.3222645     698.5634     1288.684     1497.609     83.05304     165.7114     331.3568      2.079     4.04     992.0408     58.40123     139.4342         7     1.084     0.482 -38.04   2
       107    119.9167    867.4164 307.8664748  +6.3120776     1221.154     2397.481     2983.988     82.65786     165.3817     331.2251      2.085     6.37     996.3597     58.40123      209.335        16     1.975     0.577 -22.09   0
       108    686.6440    863.7531 307.6311124  +6.3326901     538.5815     1208.657     1878.054     83.05304     165.6455      331.291      2.054     3.76     984.2819     58.40123      105.962         5     1.300     0.312 -54.32   2
       109    513.8271    864.6206 307.7028941  +6.3265188     556.2961     998.2706     1139.548     82.52571     165.5137      331.258      2.082     4.38     989.8583     58.40123     69.37427         5     1.149     0.474   5.64   0
       110    899.5297    862.4731 307.5426926  +6.3403659     1150.602     1418.582     1998.643     83.18435      165.843     331.3239      1.303     3.35     978.2311     58.40123     222.7729         7     0.914     0.536 -53.00   3
       111    903.1591    860.7694 307.5412421  +6.3411910     1377.459     1978.083     2613.289     82.52571     165.5137     331.1591      1.561     4.40      978.101     58.40123     226.8845        11     1.115     0.685 -18.07   3
       112    835.6602    860.5709 307.5692979  +6.3390085     2356.546     4829.064     5416.433     82.65786     165.7114      331.291      2.108     7.57     980.1734     58.40123     383.2555        25     2.045     0.787 -27.05   0
       113    101.4879    861.5103 307.8743337  +6.3138931     1587.317     2158.394     2495.768     82.78979     166.2374     331.4227      1.309     3.27     996.2888     58.40123      235.938        11     1.058     0.728 -71.68   3
       114    104.3207    860.3499 307.8731963  +6.3144680     1553.706     2366.904     2674.267     83.05304     165.7772     331.3239      1.694     4.69     996.2916     58.40123     216.1308        13     1.260     0.803 -24.70   3
       115    870.5490    861.9262 307.5547540  +6.3396196     1307.525     1596.315     1272.828     83.05304     165.7772     331.3568      1.148     5.49      979.095     58.40123     228.6017        10     1.448     0.587 -54.89   3
       116    873.9082    860.5557 307.5534045  +6.3402981     1289.846     1608.741     1435.205     83.05303     165.6455     331.4557      1.318     4.19      978.974     58.40123     256.0592        12     1.265     0.599 -29.02   3
       117    571.6154    851.9545 307.6793120  +6.3336932     233746.2     481194.6     533791.3     82.52571     165.5137     331.0603      2.167     7.98     986.9823     58.40123     33177.14       172     2.368     1.153 -26.70   0
       118    414.3159    855.3032 307.7445609  +6.3270139       5005.1     6730.271     7861.711     83.05304     166.1061     331.3898      1.480     2.86     992.2341     58.40123     773.0959        19     1.109     0.911 -50.30   3
       119    417.6095    853.6931 307.7432471  +6.3277896     4767.221     7142.058     7834.929     82.65786     165.3157     331.1262      1.590     5.18     992.0708     58.40123     764.7691        23     1.289     0.906 -38.95   3
       120    659.1445    854.9271 307.6428393  +6.3354097     1051.486     2013.797     2657.833     82.92152     165.5796      331.291      1.939     6.33     984.6251     58.40123     138.0084        14     1.654     0.680 -26.07   0
       121    358.9481    852.9805 307.7676467  +6.3261065     8637.056     18015.87     20428.68     82.52571     165.7772     331.1262      2.236     7.59     994.3549     58.40123     1235.063        49     2.283     0.964 -27.98   0
       122    909.8070    848.1115 307.5389085  +6.3466402     3897.301     8011.821     9423.519     82.52571     165.3817     331.0603      2.215     8.39     977.3304     58.40123     587.5428        35     2.184     0.900 -22.90   0
       123    675.5218    850.0004 307.6362012  +6.3379944     2229.089     2750.738       3518.9     82.26078     165.0514     331.0603      1.304     3.21     984.2043     58.40123     387.4929        12     1.061     0.696 -39.98   3
       124    678.9410    848.5101 307.6348310  +6.3387246     2193.369     3235.457     3844.853     82.92152     165.7114     331.4557      1.453     3.30     984.1011     58.40123     383.3915        13     1.179     0.639 -48.82   3
       125    750.0323    845.5200 307.6053909  +6.3423478     588.7511     941.3038     799.2485     82.92152     165.7114      331.291      1.392     2.23     982.1666     58.40123     118.2891         5     0.719     0.457  20.67   2
       126    652.3719    843.2530 307.6460502  +6.3400020     2310.821     4767.539     5823.691     82.78979      165.843     331.2251      2.155     6.91     984.3758     58.40123     358.5299        28     2.091     0.781 -25.49   0
       127    840.9061    842.2750 307.5677384  +6.3467385     1207.879     2415.171     2312.703     82.78979     165.9088      331.291      2.105     7.00     979.3921     58.40123     238.3231        18     2.050     0.669 -22.19   0
       128    967.0332    841.4954 307.5153520  +6.3512904     724.2966     1455.257     1538.992     83.18434     165.5796     331.4227      2.211     6.15     974.3075     58.40123     135.8671        10     1.778     0.598 -26.57   0
       129    644.7102    838.7788 307.6493860  +6.3415916     1755.223     4010.818     5469.053     83.05304     165.5137     331.2251      2.700     9.19     984.3452     58.40123     267.1194        31     2.485     1.115 -41.42   0
       130    188.1460    838.1543 307.8391239  +6.3264638     476.2899     536.3374    -110.9734     83.05304     165.7114     331.3239      1.418     5.14      996.568     58.40123     74.75494         6     1.389     0.538 -19.38   0
       131    928.9677    835.9216 307.5313593  +6.3523156     2181.642     4821.234     5232.086     82.92152     165.7114      331.291      2.235     7.63     976.0915     58.40123     343.3292        26     2.167     0.752 -24.08   0
       132    340.4836    836.3584 307.7758856  +6.3323465     715.6736     1003.294     643.6545     83.05304     165.6455      331.258      1.744     4.21     994.4821     58.40123      136.832         7     1.247     0.404 -15.95   2
       133    386.7632    831.9241 307.7568061  +6.3357377     1845.424     4007.459     4482.239     82.92152     165.7772     331.3568      2.266     7.76     992.7457     58.40123     297.0483        26     2.081     0.843 -23.13   0
       134    522.9969    821.7681 307.7005415  +6.3445200     2087.897     4239.139     4370.615     82.26078     165.5137     331.0932      2.156     7.72     987.8605     58.40123     324.2983        25     2.136     0.850 -28.90   0
       135    866.3627    821.3456 307.5578694  +6.3562340      782.747     1368.957     1258.673     82.92152     165.7114     331.3568      1.866     4.60     978.0485     58.40123     123.2448         7     1.242     0.484 -50.77   2
       136    690.0605    820.8157 307.6311510  +6.3505326     3191.707     3662.595      3635.19     82.52571     165.6455     331.0603      1.325     4.13     983.1002     58.40123     873.2074         9     1.318     0.370 -57.28   0
       137    570.4985    817.7543 307.6809390  +6.3477759     4101.821     9198.403        11320     83.05304     165.5796     331.5544      2.474     8.45     985.5172     58.40123      639.962        44     2.462     1.017 -17.93   2
       138    578.9573    816.0745 307.6774811  +6.3487540     886.6078      1161.69     1216.683     82.92152     165.7772     331.3568      1.389     4.96     985.0858     58.40123     128.8489         9     1.093     0.640 -42.96   3
       139    282.4566    818.1365 307.8006186  +6.3379122     428.0221     958.2238     1398.347     83.18435     165.6455     331.3568      2.026     4.15      995.666     58.40123     81.54919         5     1.502     0.327 -49.54   0
       140    903.8262    816.4109 307.5424683  +6.3595281     922.4809     1213.806      1062.56     82.65786     165.5137     331.1921      1.375     4.08     976.2183     58.40123     154.4531        11     1.122     0.874 -58.01   3
       141    907.3517    815.3359 307.5410396  +6.3600902     817.5853     1200.426     947.7466     82.92152     165.5796     331.3239      1.881     4.95     976.0432     58.40123     132.5031        10     1.149     0.794 -24.77   3
       142    489.4949    815.8445 307.7146647  +6.3458377     1052.866     1880.846     2557.721     83.05304     165.6455     331.4557      2.147     6.92      989.554     58.40123     154.8866        12     2.289     0.587 -29.42   2
       143    127.6520    816.7194 307.8649920  +6.3332697       765.86     1077.326     1338.873     83.05304     165.7114     331.3239      1.135     3.44      996.399     58.40123     161.4544         5     0.748     0.456  10.83   3
       144    130.9908    815.6361 307.8636417  +6.3338297     919.9219     1283.251     1786.904     82.52571     165.4477     331.0932      1.534     4.22     996.4268     58.40123      154.141         7     1.020     0.499  -6.26   2
       145    540.6954    811.6202 307.6935322  +6.3493055     13820.07     28143.11     31044.45     82.92152     165.5137     331.1262      2.156     8.64     986.3988     58.40123     1943.865        52     2.258     0.945 -26.01   0
       146    954.3952    809.8577 307.5216756  +6.3639293     2678.717     5730.019     5692.542     82.39335     165.5796     331.0273      2.144     7.81     973.3981     58.40123      415.374        28     2.094     0.815 -26.71   0
       147     51.0655    802.1755 307.8973120  +6.3366849     976.8777     1940.487     2085.616     82.65786     165.7114     331.2251      2.039     6.46     995.9492     58.40123     140.7384        14     1.745     0.672 -27.43   0
       148    333.2612    800.4284 307.7801112  +6.3469371      2217.02     4797.517     5586.091     82.65786     165.7114      331.258      2.181     7.71     993.9044     58.40123     332.2155        27     2.100     0.792 -26.47   0
       149    798.8812    796.1801 307.5867658  +6.3643594      39269.8     79641.98     87913.77     82.78979     165.3817      331.258      2.135     7.92     978.8152     58.40123     6501.741        77     2.286     0.992 -25.55   0
       150     33.1454    798.4768 307.9048845  +6.3376058      1569.06     3152.516     4303.967     83.18435     165.7114     331.3239      2.208     7.02     995.8936     58.40123     236.1564        20     2.115     0.653 -32.47   0
       151    738.2808    797.2130 307.6119141  +6.3618979      595.697     1181.133     1804.706     82.65786     165.4477     331.1591      2.173     3.74     981.1422     58.40123      100.538         5     0.994     0.404  -4.17   0
       152    255.7309    772.6049 307.8132770  +6.3558085     734367.4      1942865      2374812     82.52571     165.3157     331.1591      2.713    15.70     995.1233     58.40123     64494.77       679     2.978     2.302 -44.35   4
       153    922.3552    792.2871 307.5355858  +6.3701097     5627.039     6941.315     7346.659     83.05304     165.5796     331.3239      1.254     3.04     974.2734     58.40123     900.0606        18     0.986     0.882 -46.90   3
       154    925.6397    790.7067 307.5342744  +6.3708723     5555.168     7888.577     8684.563     83.18435     165.6455     331.4227      1.474     3.10     974.0259     58.40123      891.687        19     1.241     0.809 -36.12   3
       155    727.0698    790.8555 307.6167889  +6.3641460     15235.63     31338.09     35562.24     83.05304     165.5796      331.258      2.176     7.39     981.0698     58.40123     2199.297        55     2.266     0.967 -27.60   3
       156    720.8079    787.3165 307.6195113  +6.3653968     62526.36     127804.6     141932.5     82.65786     165.3817     331.1591      2.137     7.76     981.0118     58.40123     10080.69        87     2.292     1.016 -26.25   2
       157    365.7697    788.1116 307.7670223  +6.3531186     14130.58     29469.25     32921.75     83.18434     165.5137      331.258      2.195     7.80     992.2478     58.40123     1932.605        55     2.242     1.030 -26.20   0
       158    414.6309    788.4493 307.7467067  +6.3546262     1063.727     2103.261     2397.635     82.65786     165.7114     331.2251      2.075     6.58     990.5461     58.40123     188.3192        17     1.821     0.668 -26.01   0
       159    654.2890    787.8298 307.6471366  +6.3629492     544.2389     1179.242     1507.097     83.18435     165.4477      331.258      2.272     5.45     982.7659     58.40123     96.63269         8     1.838     0.456 -29.20   1
       160    427.6067    785.9663 307.7413992  +6.3560886     15237.39     31680.27     35545.63     82.39335     165.5137     331.0932      2.187     7.46     990.1323     58.40123     1957.008        60     2.290     1.035 -24.68   0
       161    962.6504    785.7191 307.5190627  +6.3741724     1294.804     1785.291     1858.217     83.05304     165.7772     331.3239      1.300     3.72     971.9724     58.40123     231.4589        12     1.182     0.722 -60.40   3
       162    965.9355    784.6803 307.5177326  +6.3747114     1327.538     1902.516     1553.951     83.31544     165.7772      331.291      1.517     5.07     971.7986     58.40123     227.7485        11     1.356     0.656 -43.34   3
       163    921.0377    782.8738 307.5364523  +6.3739521     4694.209     9720.105     11012.64     82.92152     165.7772     331.3898      2.113     7.84     973.8792     58.40123     770.8489        31     2.072     0.830 -24.37   0
       164    661.6487    781.8901 307.6442800  +6.3656489     4534.309     9213.427     10886.15     83.05304     165.5137     331.4886      2.203     7.67     982.5076     58.40123     648.8187        33     2.117     0.831 -26.52   0
       165    451.3602    779.2839 307.7317559  +6.3596479     1044.542      2185.01     1956.557     83.05304     165.6455      331.258      2.340     4.72     989.1989     58.40123     172.2675        10     1.221     0.670 -29.68   2
       166    175.2435    779.4905 307.8464876  +6.3502478      513.738     799.1718     660.7552     83.05304     165.6455     331.4227      1.760     5.72     996.3735     58.40123     104.5801         8     1.788     0.516 -31.39   0
       167    887.8659    774.1663 307.5505329  +6.3764347     518.3814     901.9082     991.3353     82.92152     165.7772      331.291      1.719     3.78     975.0981     58.40123     87.78174         5     0.964     0.426 -45.86   0
       168    696.6521    772.1925 307.6300632  +6.3708294     1648.667      3094.74       3269.2     82.52571     165.5137     330.9614      2.047     7.08     981.0878     58.40123     263.5404        21     2.119     0.663 -26.51   0
       169    614.5934    773.8699 307.6641071  +6.3673779      666.635     1236.187     1222.939     82.52571     165.2497     331.1921      2.314     4.81     982.9464     58.40123      104.223         9     1.648     0.398 -22.01   0
       170    166.3527    772.8941 307.8504073  +6.3526709     597.9939     1165.598     1277.227     82.92152     165.6455     331.4557      2.061     5.47     996.4105     58.40123     121.2407         9     1.652     0.511 -27.29   0
       171    141.2418    772.6785 307.8608491  +6.3519114     650.4861     1469.433      1620.76     82.92152     165.7114     331.3239      2.218     6.97     996.3206     58.40123      131.462        12     1.851     0.737 -22.31   0
       172    430.5476    768.6360 307.7407673  +6.3633428     37649.18     76539.56     86107.07     82.92152     165.7114     331.3568      2.177     6.98     989.4035     58.40123     5177.558        79     2.307     1.092 -25.88   0
       173    971.6550    770.9205 307.5158218  +6.3805842     658.8506     986.1975     1798.029     83.18435     165.7114     331.3568      1.568     3.24     971.1733     58.40123     123.9757         6     0.745     0.630 -32.96   0
       174    548.2461    767.6332 307.6918907  +6.3677205     4882.846     10071.44     10940.31     82.78979     165.7114      331.258      2.149     7.01     984.3935     58.40123     680.7611        36     2.169     0.879 -24.64   0
       175    463.3469    767.2717 307.7271837  +6.3650111     2710.961     3621.162     4033.118     82.92152     165.6455      331.291      1.386     2.77     988.1827     58.40123     442.4289        15     1.057     0.835 -62.97   3
       176    466.3098    765.4135 307.7260157  +6.3658782     2871.619     4644.524     5842.958     82.78979     165.4477     331.1591      1.876     4.02     987.9617     58.40123     466.9811        21     1.470     0.944 -17.15   3
       177    793.4409    764.2599 307.5901097  +6.3773559     8355.493     16825.27     18500.52     83.05304     165.7114     331.3898      2.130     8.13     977.6152     58.40123     1235.126        38     2.189     0.844 -27.17   0
       178    461.4107    759.8610 307.7282406  +6.3680055     1570.404     3171.831     3720.117     82.39335     165.5796     331.0273      2.183     6.84     987.8747     58.40123     220.1263        19     1.807     0.726 -27.45   0
       179     22.7726    760.3182 307.9104992  +6.3530088     781.3443     1505.433     1815.643     82.92152     165.5137      331.258      2.108     6.30     995.8835     58.40123     140.9189        13     2.181     0.511 -24.51   0
       180    814.9617    758.6229 307.5813574  +6.3804058       1010.2     1941.608     1481.129     82.65786     165.4477     331.1262      1.784     5.88     976.8562     58.40123     169.8279        14     2.017     0.483 -23.55   0
       181    143.5106    753.7518 307.8605526  +6.3598021     1884.797     4486.141     5496.262     83.05304     165.5796     331.4886      2.378     7.55      996.175     58.40123     246.1575        32     2.302     0.936 -23.33   3
       182    151.2438    756.3221 307.8572514  +6.3590023     7892.907     16461.77     19259.72     82.92152     165.7114     331.3239      2.245     6.95     996.2293     58.40123     1063.443        51     2.283     1.020 -24.00   3
       183    159.4930    756.5682 307.8538151  +6.3591794     1952.688     4155.284     4576.257     83.18435     165.5137     331.3568      2.255     7.83     996.2819     58.40123     288.5886        28     2.237     0.812 -23.20   3
       184    987.3943    753.4490 307.5098726  +6.3883254     892.1605      2201.59     3100.139     82.39336     165.5137     330.9614      3.128     9.33     970.3049     58.40123     160.5875        21     2.784     0.873 -40.26   0
       185    937.2930    753.3835 307.5306963  +6.3866730     4276.562     6077.188     7106.973     82.78979     165.5137     331.1591      1.491     3.62     971.7568     58.40123     740.2009        18     1.295     0.794 -55.04   3
       186    940.3467    752.2971 307.5294640  +6.3872240     4131.724     6103.738     6935.037     82.92152     165.7114     331.5873      1.544     3.43     971.6265     58.40123     647.5017        19     1.431     0.740 -35.14   3
       187    694.5214    750.4544 307.6316870  +6.3797329     1178.634      2380.15     2884.225     83.18435     165.7114     331.3568      2.241     7.54     980.1829     58.40123     193.7657        18     2.146     0.742 -21.07   0
       188    581.3296    749.8727 307.6787463  +6.3761667     1669.316     3338.406     3255.441     83.18435      165.843      331.291      2.163     7.04     983.2042     58.40123     251.2445        22     2.112     0.760 -21.19   0
       189    429.5216    749.2081 307.7418552  +6.3713294     878.1284     1726.823     1717.196     82.65786     165.1836     331.1262      2.018     7.23     988.6821     58.40123     114.4548        13     2.001     0.732 -26.22   0
       190    143.4996    747.2581 307.8607790  +6.3624827     1299.107     2981.754     3344.343     82.78979     165.7114     331.5215      2.403     7.98     996.1091     58.40123     167.7932        21     1.920     0.928 -30.54   0
       191    962.7792    744.4091 307.5204086  +6.3912328     2213.067     4727.225     5474.278     82.65786     165.4477     331.1262      2.174     8.08     970.7371     58.40123     383.2808        27     2.139     0.853 -22.05   0
       192    933.1260    744.8383 307.5327176  +6.3900615     2270.443     4550.971     5626.014     82.92152     165.7114     331.3898      2.068     7.28     971.4944     58.40123     355.1103        25     2.076     0.715 -25.99   0
       193    993.6719    744.0710 307.5075813  +6.3924077     1254.672     2590.817     2709.887     83.18435      165.843     331.2251      2.024     6.27     970.0034     58.40123     222.6472        17     2.219     0.498 -27.13   0
       194    683.4469    744.8227 307.6364806  +6.3816859     935.7681     1692.443     2773.862     82.65786     165.7114     331.1921      2.431     3.32     980.6164     58.40123     155.0331         9     0.963     0.661 -36.15   2
       195    831.7008    742.6340 307.5749433  +6.3875691     831.9446     1160.408     1065.249     83.05304     165.5796     331.4886      1.533     4.61     975.7146     58.40123      123.264         7     1.256     0.481 -38.58   0
       196    259.4225    738.3930 307.8129099  +6.3700578     1195.195     2307.315     3541.529     82.52571     165.5137     331.1591      2.672     3.31       994.23     58.40123     188.8076        11     1.030     0.721 -34.54   2
       197    949.3832    735.2950 307.5262846  +6.3945468     674.3785     1114.869     1092.156     82.92152     165.5137     331.1591      1.657     4.20     970.7681     58.40123     147.5533         5     0.968     0.520 -46.63   2
       198    952.6899    733.6802 307.5249651  +6.3953243     707.5449     922.8341     1412.753     82.78979     165.9088     331.4227      1.479     3.40     970.6729     58.40123     116.5837         5     0.879     0.519  59.31   2
       199    440.3613    795.2135 307.7357842  +6.3527005     554.4562     652.6254     695.4203     82.65786     165.5137     331.0273      1.404     3.03     990.2119     58.40123     93.20502         5     0.736     0.446  72.25   0
       200    924.4207    733.3000 307.5367264  +6.3945335     743.5148     1445.197     1781.749     83.05304     165.5796     331.0932      2.150     5.90      971.369     58.40123     150.9796        11     1.970     0.497 -24.41   0
       201    975.4233    733.2716 307.5155310  +6.3962550     1372.459      1930.92     2414.413     82.65786     165.5796     331.3239      1.374     2.75     970.2327     58.40123     296.3002         8     0.831     0.647 -23.74   3
       202    978.8893    731.5530 307.5141488  +6.3970808     1727.705      2548.18     2944.414     83.05304     165.5796     331.4557      1.607     3.88       970.14     58.40123     292.8746        14     1.223     0.777 -40.64   3
       203    697.0785    731.2659 307.6312761  +6.3877413     667.8118      1516.71     2057.235     83.18435      165.843      331.291      2.113     6.36     979.2309     58.40123     116.0334         9     2.099     0.541 -31.58   0
       204   1020.7913    725.3468 307.4969447  +6.4010472     1129.206     1986.848     1887.352     82.52571     164.7867     293.2277      2.058     4.40     969.2469     58.40123     190.8324         9     1.088     0.633 -21.35  18
       205    912.9463    725.2273 307.5417687  +6.3974818      370.442     836.2174     1679.787     82.78979      165.843     331.2251      2.776     3.55     971.7191     58.40123     94.39746         5     1.732     0.210 -39.44   0
       206    821.8744    723.5425 307.5796747  +6.3951217     667.6017     1561.632     1803.648     83.05304     165.7114      331.291      2.597     3.70     975.1368     58.40123     146.3276         6     0.982     0.401 -19.35   2
       207    905.3066    722.3771 307.5450404  +6.3984023     917.7454     1385.466     1859.748     83.05304     165.5137     331.1591      1.536     4.74     972.0116     58.40123     149.6514         7     1.024     0.621 -38.83   3
       208    908.3431    721.2925 307.5438152  +6.3989520     931.3659     1277.297     2327.762     82.92152     165.6455     331.4557      1.729     4.08      971.845     58.40123     163.0887         9     1.084     0.601 -38.91   3
       209    879.3729    717.7958 307.5559736  +6.3994239     521.7888     860.8107     939.9271     82.52571     165.5137     331.1591      1.648     3.40      973.057     58.40123     81.97058         5     0.749     0.446 -71.94   0
       210    864.7358    712.2385 307.5622451  +6.4012273     986.4373     1892.586     2256.856     83.05304     165.6455     331.4227      2.238     6.26     973.4136     58.40123     161.6725        10     1.630     0.675 -12.54   2
       211    127.2421    711.4280 307.8687585  +6.3767260     608.5792     1811.769     1861.167     82.65786     165.6455     331.1921      2.631     6.48     995.0813     58.40123     104.1251         8     2.487     0.474 -43.81   0
       212     61.4853    712.4786 307.8960479  +6.3740690     1689.863     2417.388     2863.296     83.05304     166.0404     331.4227      1.483     3.40     995.6246     58.40123     232.4655        14     1.024     0.894  -6.44   3
       213     64.2806    711.3531 307.8949247  +6.3746283     1426.054     2070.258     2717.448     83.05304     165.7114     331.3239      1.553     3.03     995.6138     58.40123     227.7477         9     0.891     0.691 -64.85   3
       214    673.6998    700.7144 307.6420299  +6.3995694      3770.68     4666.052      5607.36     83.05304     166.2374     331.4227      1.350     3.35     978.7396     58.40123     655.4301        17     1.237     0.735 -56.25   3
       215    676.9938    699.5092 307.6407019  +6.4001777     3814.451     5882.932     6449.152     82.65786     165.3817     331.0932      1.569     3.93     978.5831     58.40123     549.7101        19     1.358     0.826 -42.89   3
       216    620.6880    700.4504 307.6640700  +6.3978958     848.9865     1409.162     1941.642     83.05304     165.5137     331.4557      2.108     5.11     981.0482     58.40123     148.3853         8     1.384     0.533 -19.97   2
       217    624.0000    699.0167 307.6627423  +6.3985991     797.5164     1374.369     2082.334     82.52571     165.1836     330.9614      1.692     3.57     980.8802     58.40123     115.1697         5     0.823     0.479 -69.07   3
       218    137.6230    696.6955 307.8649478  +6.3831593     2427.668     3677.475     4004.923     83.05304     165.4477     331.1591      1.638     4.39     994.2819     58.40123     335.1426        16     1.374     0.769 -34.60   3
       219    140.2980    695.3959 307.8638805  +6.3837862     1774.427     2628.006     2732.832     82.78979     165.3817     330.9943      1.559     2.86     994.1348     58.40123     325.9666        12     1.120     0.801 -51.51   3
       220    649.1517    696.0595 307.6523901  +6.4006659     1323.476     2611.677      2867.61     83.05304     165.7114     331.3898      2.371     6.91     979.6053     58.40123     202.9515        19     2.061     0.650 -27.48   0
       221   1012.6548    695.4062 307.5013400  +6.4131366     1781.849     3674.371     3470.207     82.52571     165.4477     330.9943      2.145     6.64     968.9945     58.40123     345.4109        20     2.109     0.620 -24.77  16
       222    792.4600    692.3085 307.5929590  +6.4070300      14412.7     29059.45     32045.52     82.92152     165.7114     331.3898      2.127     7.52     974.5612     58.40123     2161.983        55     2.238     0.970 -27.02   0
       223    922.3756    691.9915 307.5389764  +6.4115203     2735.674     5567.328     5984.316     82.65786     165.5137     331.1592      2.110     7.54     970.5575     58.40123     424.2425        28     2.075     0.767 -24.04   0
       224    491.4607    692.7104 307.7180385  +6.3967420     986.7673     2057.814     2162.343     82.92152      165.843     331.3898      2.084     6.99     984.0115     58.40123     132.1981        17     1.937     0.707 -28.90   0
       225    519.8538    692.1519 307.7062578  +6.3979287      614.361     1299.134     1433.248     83.05304     165.7114     331.3568      2.031     4.96     983.3401     58.40123     94.90894         8     1.607     0.433 -17.07   0
       226    672.8819    685.1713 307.6428979  +6.4059592     4804.774     10053.92     11445.68     82.92152     165.5137      331.258      2.205     7.98     977.8266     58.40123     669.9007        43     2.254     0.977 -28.37   0
       227    368.0977    685.0647 307.7695663  +6.3957415     540.1381     732.7535     860.2415     83.05304     165.7772     331.3568      1.415     3.58     988.5208     58.40123     134.0938         5     1.156     0.319 -25.83   0
       228    932.4597    677.6871 307.5352702  +6.4177645     821.1655     1595.788     1574.954     83.05304      165.843     331.4227      2.277     7.14     969.9982     58.40123     136.1044        14     1.987     0.719 -17.91   0
       229    744.8821    673.6634 307.6133654  +6.4131302      2338.24     5104.208     6150.606     83.18435     165.7772     331.3239      2.444     7.69     975.9184     58.40123     365.3562        32     2.284     0.915 -25.53   0
       230    265.9768    686.0084 307.8119731  +6.3919066      4136.41     8899.495     9963.844     82.65786     165.4477     331.1262      2.229     7.68     990.9621     58.40123     539.7544        36     2.203     0.922 -27.31   0
       231   1010.9979    670.1441 307.5028841  +6.4235113     6313.984     13011.14     13766.57     82.39335     165.3817     330.9943      2.093     7.96      968.548     58.40123      1086.53        36     2.158     0.821 -25.29  16
       232    947.6721    671.5950 307.5291542  +6.4207899     1432.835     1725.956     1551.622     82.65786     165.2497     331.2251      1.180     3.11     969.6392     58.40123     273.2975        10     0.958     0.760 -56.40   2
       233    950.7954    670.1973 307.5279034  +6.4214716     1512.465     2081.776     1856.158     82.39335     165.2497     331.1591      1.505     3.05      969.539     58.40123     310.7954         9     1.080     0.640 -32.94   3
       234     29.0809    670.4722 307.9109496  +6.3903154     1285.924     2687.909     3125.692     83.31544     166.0403     331.3568      2.448     7.45      995.177     58.40123     167.6629        17     1.575     0.988 -19.99   2
       235     88.4135    665.0020 307.8864802  +6.3945806     17756.17     36613.51     40842.65     82.65786     165.3817     331.0932      2.194     6.85     994.8162     58.40123      2242.28        65     2.259     1.121 -27.99   0
       236    549.7338    666.0677 307.6947273  +6.4097040     1523.167     3074.002      3169.98     83.05304     165.7114     331.3568      2.151     7.62     982.2191     58.40123     194.4777        22     1.902     0.854 -22.91   0
       237    518.3439    663.0897 307.7078742  +6.4098768     1112.368     2233.256     2599.655     82.92152     165.6455     331.4557      2.221     6.26     982.8251     58.40123     153.8351        15     1.797     0.612 -22.82   0
       238    939.5038    662.2913 307.5328643  +6.4243573     776.3506     1392.771     1394.639     83.05304     166.2374      331.291      1.822     6.84     969.5541     58.40123     144.8945        13     1.807     0.726 -25.07   0
       239    704.8041    659.3581 307.6305079  +6.4176898      3086.35     3432.574     3150.001     82.39335     165.3817     331.0603      1.066     3.79     976.5988     58.40123     786.2295         8     1.084     0.380  83.47   0
       240    732.5399    657.9989 307.6190268  +6.4191830     2065.195     2537.187     2681.217     82.39335     165.5137     330.9943      1.264     3.06      976.194     58.40123      392.595        12     1.283     0.589 -48.93   3
       241    735.9756    656.5186 307.6176492  +6.4199096     2066.684     2953.082     2643.227     82.78979     165.4477      331.258      1.499     5.48      976.143     58.40123     293.6459        15     1.359     0.756 -41.04   3
       242    560.8015    658.8411 307.6903735  +6.4130602      749.363     1137.481      1227.85     82.39335     165.3817     330.9943      1.672     5.17     981.7118     58.40123     105.2676         8     1.032     0.775  36.36   0
       243    756.4062    655.5089 307.6091923  +6.4210128     2987.987     5932.542     5765.447     82.65786     165.3817     331.0932      2.084     7.04     975.2139     58.40123     439.0797        32     2.131     0.920 -21.92   0
       244    587.6407    653.4652 307.6794019  +6.4161829     2318.461       4541.2     4292.939     83.05304     165.6455     331.4227      1.951     7.52     980.6807     58.40123     290.9696        26     2.015     0.786 -23.97   0
       245    422.4510    654.4875 307.7480196  +6.4101981     885.9713     1351.147     1235.721     83.05304     165.5796     331.4557      1.671     3.09     985.0718     58.40123     149.6356         7     0.852     0.637 -16.39   2
       246    425.6482    652.6603 307.7467531  +6.4110602     637.7267     792.2518      938.296     83.05304     165.6455     331.3898      1.252     5.18     984.9355     58.40123     93.93329         6     1.212     0.626 -68.10   2
       247    248.4112    652.7983 307.8204060  +6.4050248     1310.897     2887.127     2892.056     82.65786     165.3817     331.1262      2.225     7.15      990.129     58.40123     170.3689        22     2.057     0.867 -27.36   0
       248    331.7643    652.5745 307.7857733  +6.4079301       883.55      1773.42     2350.702     82.65786     165.5137     331.0932      2.474     6.46     988.3837     58.40123     128.3779        14     1.876     0.624 -24.19   0
       249    992.7144    651.2814 307.5111220  +6.4306867      4797.69     5761.015     5737.343     82.78979     166.0403     331.3898      1.178     2.46     967.8856     58.40123     961.1655        16     0.935     0.855 -23.40   3
       250    995.9404    650.0000 307.5098246  +6.4313238     5455.562     8039.952     8022.841     82.26078     165.4477     330.9614      1.490     3.77     967.7519     58.40123     882.0098        19     1.259     0.832 -25.94   3
       251    714.4301    649.1443 307.6268542  +6.4222303     730.3256     1244.496     1072.908     82.92152     165.7772      331.258      1.589     4.84     976.4008     58.40123     105.9523         8     1.624     0.409 -24.46   0
       252    438.4644    645.5220 307.7416699  +6.4144393     1588.896     2391.041     2887.535     83.31545     165.7772      331.291      1.631     3.63     984.4473     58.40123     243.1785        14     1.115     0.927  35.28   3
       253    441.7012    644.2247 307.7403689  +6.4150839     1618.332     2265.004     2996.577     83.18435     165.4477     331.1591      1.566     3.92     984.3098     58.40123     239.5706        12     1.042     0.881 -25.44   3
       254    151.6828    644.6634 307.8608821  +6.4051162     14233.26     20289.91     20219.52     83.18435     165.7772     331.3568      1.544     3.74     991.8392     58.40123     1883.719        30     1.435     0.969 -59.69   3
       255    154.3380    643.3430 307.8598237  +6.4057511      13926.8     22293.46     23028.69     83.18435     165.6455     331.3568      1.726     4.12     991.7217     58.40123     1856.122        31     1.593     1.004 -40.19   3
       256    822.1988    644.1307 307.5822341  +6.4279199     684.9516     1419.226     1386.139     82.52571     165.2497     331.1591      2.132     5.95     972.3782     58.40123      127.359        12     1.773     0.562 -25.20   0
       257    989.5088    633.4767 307.5130574  +6.4379304     5049.179     11007.37     12251.18     82.92152     165.9746     331.3239      2.268     7.96     967.0881     58.40123     750.7047        47     2.169     1.123 -20.06   0
       258     35.9825    631.4794 307.9094148  +6.4066471     761.0035     1283.788     1759.658     82.65786     165.3817      331.258      2.054     5.13     994.6187     58.40123     116.4735         9     1.053     0.708 -26.03   2
       259    583.1578    628.7209 307.6821065  +6.4262483     31913.83     67295.64     75538.62     82.92152     165.7114     331.3239      2.219     6.96     979.9725     58.40123     4090.684        75     2.345     1.068 -26.68   0
       260    373.0137    638.7407 307.7691019  +6.4150328     598.2343     1132.822     1355.914     82.39335     165.6455     331.0273      2.217     5.40     986.4597     58.40123     106.7579         7     1.534     0.537 -37.02   0
       261    190.5543    625.6013 307.8453786  +6.4142995     1936.567      4176.64     4515.049     82.39336     165.3817     330.8954      2.206     7.73     990.6228     58.40123     258.9777        29     2.060     0.954 -24.44   0
       262     83.4390    619.6497 307.8900973  +6.4131363     841.0139     1828.937     2269.034     82.92152     165.7114      331.291      2.426     7.28     992.8062     58.40123     142.7659        14     2.257     0.658 -25.29   0
       263    480.4482    612.5338 307.7253445  +6.4294735     41833.23     87481.55      98581.2     82.92152     165.6455     331.3239      2.237     6.97     983.3089     58.40123     5269.893        87     2.347     1.154 -27.70   0
       264    154.4035    607.5251 307.8610198  +6.4205409     1153.056     2519.323     2120.042     82.52571     165.1836     331.2251      2.165     7.64      990.836     58.40123     176.3589        19     1.851     0.920 -23.68   0
       265    432.8187    606.7230 307.7453377  +6.4302678     632.3235     1206.297     1328.749     82.52571     165.3817      331.291      2.030     6.59     983.4785     58.40123      125.924         8     1.426     0.856 -87.77   2
       266    626.4904    604.2516 307.6649289  +6.4378087     604.4307     1222.197       1298.7     83.05304     165.5137     331.4557      2.218     5.35     977.7097     58.40123     88.04016         8     1.498     0.540 -26.09   0
       267    325.8265    601.8173 307.7899716  +6.4286856     1587.301     3253.423     3510.935     82.65786     165.4477     331.2251      2.186     7.34     986.5521     58.40123     201.7446        27     2.100     0.852 -25.46   0
       268     24.1054    614.1698 307.9149425  +6.4133916     1349.187     2701.143     3055.996     83.18434     165.4477     331.2251      2.215     7.85     994.8528     58.40123     175.6522        23     2.015     0.856 -22.07   0
       269    752.2860    596.0765 307.6129227  +6.4454126     3649.979     7360.961     7363.201     83.05304     166.0403     331.3898      2.084     7.59     974.4889     58.40123     498.1999        32     2.101     0.854 -25.29   0
       270   1021.4570    592.7738 307.5011572  +6.4558064     693.7614     837.6711     425.7409     82.65786     159.9469     284.1542      1.162     1.81      963.478     58.40123     172.5752         5     0.667     0.471  69.97  16
       271    806.0013    591.2859 307.5907595  +6.4491945     9315.229     19822.22     21330.39     82.26078     165.2497     331.0273      2.140     8.38     971.9563     58.40123      1472.26        42     2.179     0.901 -25.79   0
       272    547.5021    591.8541 307.6981797  +6.4402694     886.8863     1820.485     1752.942     82.92152     165.7114     331.5544      1.937     6.90     980.1071     58.40123     125.1284        13     1.715     0.779 -27.53   0
       273    628.2673    589.9822 307.6646755  +6.4437600     1875.331     2556.877     2447.413     82.52571     165.6455     331.2251      1.452     3.39     977.6049     58.40123     290.6523        13     0.990     0.884 -36.15   3
       274    631.4749    588.5270 307.6633917  +6.4444686     1778.998     2262.785     2488.047     83.31545     165.9746     331.3898      1.393     3.19     977.5367     58.40123     296.4928        11     1.044     0.718 -24.33   3
       275    946.9773    585.8188 307.5323498  +6.4561817     897.1717     1557.904     1977.738     82.78979     165.6455      331.258      1.938     6.39     966.9141     58.40123     175.4162        12     1.615     0.710 -28.25   0
       276    388.4140    583.5646 307.7645818  +6.4383323     714.6003     1407.838     1450.244     82.65786     165.5137     331.1591      2.128     6.15     983.7744     58.40123     96.84247         8     1.363     0.781 -21.74   0
       277    242.8298    583.0672 307.8251050  +6.4336256     979.7151      1959.35     2515.734     82.78979     165.7114      331.291      2.400     6.02     987.8282     58.40123     131.6613        13     1.875     0.544 -31.56   0
       278    881.9379    574.5585 307.5597647  +6.4586495     2043.445     4037.444     4090.571     83.05304     165.6455     331.4227      2.020     7.12     969.2621     58.40123     296.2355        22     2.050     0.692 -25.93   0
       279    176.9253    574.8235 307.8527766  +6.4348030     606.8097     1326.271     1977.916     82.65786     165.5137      331.258      2.873     5.71      989.381     58.40123     107.3573         9     1.951     0.470 -37.56   0
       280    840.5424    572.0289 307.5770563  +6.4583048     1900.187     3651.361     4041.393     82.65786     165.7772     331.2251      2.025     7.02     970.6413     58.40123      269.108        21     1.876     0.736 -25.84   0
       281    821.2413    563.2473 307.5853767  +6.4612827     109659.6     223867.9     249350.5     82.92152     165.7114     331.1921      2.175     7.32     971.1288     58.40123     14948.73       143     2.671     1.107 -26.31   0
       282    268.8683    566.9695 307.8148324  +6.4411507     5292.859     11123.88     12247.32     82.92152     165.7114      331.291      2.246     6.70     986.1849     58.40123       650.21        43     2.248     1.027 -28.96   0
       283    203.0527    561.4750 307.8423736  +6.4411967     39044.05     82794.48     96070.47     83.05304     165.7772     331.3239      2.292     6.80     987.9084     58.40123     4977.558        90     2.384     1.221 -26.97   0
       284    125.5319    558.5002 307.8746934  +6.4398053     3783.742     5470.486     5439.842     83.05304      165.843      331.291      1.564     2.95     990.2974     58.40123     534.8033        23     1.216     1.090 -74.75   3
       285    128.3207    557.2877 307.8735758  +6.4404002     3627.408     6162.584     6525.452     82.78979     165.9746     331.4557      1.796     3.65     990.2117     58.40123     543.4583        23     1.433     0.975 -31.82   3
       286    992.0176    555.2326 307.5146652  +6.4703199     951.4548     1838.503     1347.936     82.65786     165.5137     331.1921      1.981     6.59     962.9488     58.40123     188.4663        13     1.807     0.675 -21.81   0
       287    857.9509    550.4576 307.5705523  +6.4677953     3023.658     6231.267     7021.375     83.05304     165.7114     331.4227      2.171     7.99     969.4476     58.40123     472.9396        31     2.129     0.838 -26.00   0
       288    376.4351    548.6395 307.7707507  +6.4523477     11127.69     23796.64      27203.5     82.78979     165.5796     331.1262      2.266     6.84     982.7447     58.40123     1418.808        54     2.294     1.110 -25.71   0
       289    176.5138    548.4774 307.8538473  +6.4456664     1124.282     1660.423     1538.568     83.05304     166.0404     331.4227      1.612     3.74     988.4945     58.40123     149.3113         9     0.878     0.770  -0.94   3
       290    179.9911    547.0000 307.8524525  +6.4463938     1193.697     2352.968     3140.922     82.26078     165.3157     331.0273      2.503     4.62     988.3248     58.40123     223.6624        13     1.367     0.778 -34.47   3
       291    542.7210    543.5909 307.7018091  +6.4600348     4427.354      9052.26     10481.28     82.65786     165.3157     331.1591      2.194     6.55     978.1309     58.40123     605.4412        41     2.232     1.000 -29.50   0
       292    811.9542    543.7931 307.5898970  +6.4690030     3933.787      8233.52     8940.256     82.52571     165.4477     330.9614      2.147     7.97     971.1672     58.40123     610.1301        31     2.116     0.840 -25.68   0
       293    115.7235    544.5103 307.8792478  +6.4452495     605.0189     1266.121      1022.35     83.05304     165.9746     331.3898      2.074     6.01     990.2747     58.40123     98.22888        11     1.838     0.553 -31.78   0
       294    400.9872    540.1222 307.7608365  +6.4566920     884.2147     1866.086     2098.297     82.65786     165.3157     331.1262      2.452     6.83     982.0055     58.40123     139.6013        15     2.004     0.653 -29.11   0
       295    189.8413    536.7526 307.8487086  +6.4509573     4476.722     9318.353     10316.39     82.92152     165.7114     331.1921      2.188     6.77     987.5585     58.40123     551.7444        44     2.208     1.033 -23.62   0
       296    587.4750    536.6520 307.6834436  +6.4644060     1703.433     3569.612     4113.528     83.05304     165.7772     331.3239      2.348     7.82     977.7814     58.40123     232.2997        25     2.171     0.788 -29.08   0
       297    285.0424    533.1656 307.8092635  +6.4556530     56294.03     120828.3     138835.8     82.78979     165.7114     331.1262      2.285     6.88     983.6547     58.40123     6959.469       103     2.389     1.256 -27.11   0
       298    828.3647    536.1342 307.5833358  +6.4727161     997.9138     1871.557     2049.787     82.92152     165.7114     331.3898      2.169     6.26     970.1502     58.40123      148.923        14     1.964     0.561 -27.53   0
       299     61.3220    535.3824 307.9021695  +6.4471783     3313.741     7139.596     8235.745     82.52571     165.4477      331.258      2.221     7.19     992.0281     58.40123     419.1578        38     2.158     1.012 -24.77   0
       300    573.6501    530.6404 307.6893943  +6.4664228     752.5532     1402.624     1821.116     83.05304     165.7114      331.258      2.152     5.68     977.6936     58.40123      97.7016         9     1.370     0.664 -21.80   0
       301    268.6713    528.2181 307.8162365  +6.4571430     1018.736     2274.979     3129.407     82.52571     165.5796      331.258      2.663     7.97     983.9797     58.40123     132.9055        20     1.934     0.917 -13.46   0
       302    982.3963    527.6949 307.5195974  +6.4813672     845.2147     963.7375     918.7878     82.78979     165.3817     331.0603      1.036     2.11     962.4306     58.40123     181.9785         5     0.671     0.470  61.88   3
       303    986.1471    526.2420 307.5180876  +6.4820928     1006.885     1511.793     1788.228     83.05304     165.7772     331.3568      1.577     5.52     962.1757     58.40123      152.449        11     1.419     0.610 -42.16   2
       304    808.1315    525.5624 307.5921047  +6.4764016     10916.37     22435.05     24647.33     82.92152     165.7114     331.4227      2.135     7.47     970.5751     58.40123     1485.614        48     2.256     0.906 -26.22   0
       305    511.7994    524.0020 307.7153280  +6.4670813      26574.6     59964.87     70335.23     82.39335     165.2497     330.9943      2.377     7.01     978.8368     58.40123     2989.744        81     2.430     1.269 -24.24   0
       306    224.2613    520.4047 307.8349610  +6.4588693     1361.426     2890.329     3579.194     82.39336     165.5137     331.0932      2.173     7.00     985.4432     58.40123     183.3517        25     2.067     0.836 -22.34   0
       307     59.6064    520.7908 307.9033814  +6.4531444      795.256     1587.309     1630.287     82.39335     165.5137     331.1591      2.080     7.06     991.7269     58.40123      91.3183        14     1.729     0.807  -9.39   0
       308    681.7966    518.9689 307.6448403  +6.4748794     898.2438     1948.232     2236.586     82.52571     165.5137     331.1262      2.439     6.98     974.7723     58.40123     131.3998        18     2.136     0.639 -25.80   0
       309    671.6689    519.1119 307.6490450  +6.4744798     2044.287     4208.017     5354.797     83.18435     165.9746     331.3239      2.564     7.79     975.0762     58.40123     265.4545        26     2.034     0.835 -25.03   0
       310    733.9191    517.8192 307.6232144  +6.4771059     879.1891     1845.684     1733.017     82.65786     165.3817      331.258      1.999     6.36     973.2242     58.40123     128.2798        15     1.763     0.645 -20.70   0
       311    409.2998    514.7838 307.7582449  +6.4674336     1089.011     2389.404     3178.326     83.05304     165.4477     331.1262      2.592     7.83     980.7282     58.40123     150.7862        19     1.939     0.884 -26.57   0
       312    340.9695    512.9474 307.7867081  +6.4658875     2592.996     5562.627     6817.555     82.92152     165.7772      331.258      2.329     6.80     981.4084     58.40123     299.8112        35     2.231     0.988 -29.47   0
       313    156.1209    511.5161 307.8635853  +6.4602369     17155.62     36385.43     41173.15     83.18434     166.0403     331.4227      2.248     6.71     988.3126     58.40123     2187.036        63     2.323     1.133 -28.05   0
       314    883.8666    511.6817 307.5610955  +6.4846746     1052.279     2062.833      1893.38     83.18435     165.9746     331.3898      1.874     6.26     966.5276     58.40123     187.1561        16     2.020     0.545 -25.84   0
       315    520.7924    512.3555 307.7119866  +6.4721926     1360.729     2911.408     3874.956     82.52571     165.5796     330.9943      2.461     7.00     978.1267     58.40123     173.7731        20     1.928     0.711 -20.92   0
       316    121.2082    509.6762 307.8781586  +6.4598164     1756.831     3628.594     3844.686     82.65786     165.1836     331.0932      2.177     7.32       988.84     58.40123     257.8787        23     1.966     0.920 -24.25   0
       317      2.5509    509.1992 307.9274907  +6.4559994     1244.859     1678.807     1859.469     82.39335     148.7753      269.082      1.547     4.29     994.8633     58.40123     197.8868        14     1.296     0.716 -42.68  24
       318    981.5410    506.1349 307.5206835  +6.4902402      3581.96     7040.815     7929.924     83.18435     165.6455     331.3568      2.068     7.20     961.7596     58.40123     615.0601        31     2.144     0.811 -25.57   0
       319    359.7381    507.3049 307.7790995  +6.4688501     629.8504     1053.555     1418.626     82.78979     165.7772     331.3568      1.777     3.06     980.8016     58.40123     124.2902         5     0.734     0.448 -10.35   0
       320    553.3573    499.7477 307.6988801  +6.4784944      830.455     1333.297     1756.868     83.05304     165.7772     331.3568      2.293     5.34     977.0853     58.40123     110.8159        10     1.126     0.782 -13.48   2
       321     20.4321    495.8324 307.9205162  +6.4621231     16743.61     35809.89     40697.45     82.52571     165.4477     331.0273      2.268     7.02     993.7722     58.40123     2034.375        70     2.296     1.174 -25.91   0
       322    453.1576    492.6508 307.7407697  +6.4780498     27612.76     59264.43     67646.43     83.18435     165.7114     331.3239      2.280     7.07     979.0076     58.40123     3314.888        79     2.374     1.161 -27.55   0
       323      3.4850    489.9322 307.9277616  +6.4639854     127209.9     250536.2     267263.6     83.44634     159.6053     283.4235      2.069     8.23     994.9257     58.40123     15834.72        93     2.078     1.196 -33.69  24
       324    661.1549    492.4045 307.6543230  +6.4851530     8083.716      17261.8     19462.14     82.39335     165.3817     330.9943      2.202     6.96     974.3536     58.40123      1039.28        48     2.259     0.999 -27.61   0
       325    300.7548    493.0423 307.8041016  +6.4727486     736.7088     1420.981     1562.825     82.92152     165.7114     331.1591      1.966     6.35     981.0079     58.40123     103.0704        11     1.923     0.589 -14.46   0
       326    218.2553    490.2737 307.8384858  +6.4711063     12418.71     27770.06     31867.12     82.92152     165.5796      331.258      2.345     6.58     984.8204     58.40123     1391.698        69     2.291     1.328 -23.89   0
       327    995.1473    490.7965 307.5155474  +6.4970291     791.7482     1599.872     2348.655     82.39335     165.5137     330.8954      2.434     6.64     960.7827     58.40123     150.8196        12     1.812     0.682 -26.93   0
       328    181.7638    492.0013 307.8535939  +6.4691602     828.8861      1609.55     2288.894     82.12799     165.5137     331.1262      2.901     6.58     986.6439     58.40123     142.5449        10     1.585     0.767 -34.12   2
       329    835.3282    490.0308 307.5820058  +6.4919848     660.7773     1575.011     1365.667     82.92152     165.7114      331.291      2.402     6.26     967.8081     58.40123     104.5164        13     2.092     0.526 -25.99   0
       330    582.7159    489.2567 307.6870340  +6.4838140     1766.684     3676.972     3789.133     83.05304     165.7114     331.4227      2.077     8.00     976.8413     58.40123     224.6417        27     2.107     0.849 -28.11   0
       331    956.6708    486.3281 307.5316926  +6.4975843     3321.794     6717.599     7449.654     83.18435      165.843     331.2251      2.073     7.38      962.118     58.40123      570.703        27     2.146     0.711 -27.57   0
       332    628.5036    485.4997 307.6681296  +6.4869057     4069.722     5864.888     6487.343     83.05304     166.2374     331.1591      1.590     4.22     975.7205     58.40123     503.8781        19     1.173     1.001 -38.27   3
       333    631.3311    484.3143 307.6669947  +6.4874902     3620.434     5335.872     5955.514     83.18435     165.9746     331.3568      1.622     4.36     975.5884     58.40123     515.3324        18     1.287     0.847 -43.46   3
       334    118.1998    484.9843 307.8802527  +6.4699088     842.1797     1444.717     1582.114     82.65786     165.3817     331.0603      1.990     5.61     987.9373     58.40123      104.204        12     1.323     0.670 -19.00   0
       335    979.3548    478.4933 307.5225289  +6.5015796     2179.553     4601.622     5019.057     82.92152     165.6455     331.4557      2.154     7.42     960.9854     58.40123     370.6456        29     2.193     0.815 -26.03   0
       336    542.2421    475.9593 307.7043096  +6.4879417     4769.743     10243.12     11480.48     82.78979     165.7114     331.1921      2.286     6.81     976.4315     58.40123     567.6517        46     2.299     1.057 -26.62   0
       337    387.9370    476.0583 307.7684439  +6.4827017     1844.805     3988.752     4298.255     83.18435     165.6455     331.3568      2.329     7.23     978.7925     58.40123     218.5835        29     2.272     0.982 -28.20   0
       338    898.4805    471.9528 307.5563683  +6.5015680     2201.088     4477.583     5120.993     83.05304     165.7114     331.3568      2.183     7.59     964.2579     58.40123     299.5773        26     2.141     0.821 -24.96   0
       339    946.5369    464.9459 307.5366298  +6.5060728     853.5057     1644.577     1983.569     83.05304     165.6455      331.291      2.376     4.91     961.7845     58.40123       142.44         8     1.278     0.770 -74.82   2
       340    905.9778    466.2068 307.5534467  +6.5041919      1486.05     3162.277     3709.993     82.52571     165.5137     331.1591      2.185     6.76     963.7291     58.40123       231.34        20     2.035     0.630 -26.38   1
       341    123.1700    465.0157 307.8788693  +6.4783210     545.8739     887.2609     1092.567     82.65786     165.4477      331.258      1.591     6.03     987.4012     58.40123     88.07385         7     1.340     0.763 -72.85   0
       342    729.8625    462.1426 307.6267919  +6.4999570      1959.68     4057.064      4333.44     83.18434     165.6455     331.3568      2.114     7.43     971.7654     58.40123     274.6239        24     1.975     0.782 -26.04   0
       343    400.9371    460.4954 307.7635708  +6.4895654     2335.333     5132.645     5867.128     82.92152      165.843     331.3568      2.287     7.11     977.2006     58.40123     279.4277        32     2.242     0.895 -27.68   0
       344     90.5729    461.5387 307.8925366  +6.4786542     1191.243     1889.222     2555.334     82.65786     165.7772     331.2251      1.804     3.46     988.1342     58.40123     164.0762        10     0.984     0.773  32.80   3
       345     93.6439    460.4559 307.8912972  +6.4792051     1106.453     1735.594     2367.587     83.05304     165.7114     331.3568      1.686     4.82     987.9438     58.40123     183.4996        10     1.183     0.694 -22.24   3
       346    628.5447    456.9924 307.6690819  +6.4986769     6770.506     14176.55     15811.67     82.52571     165.5137     331.0273      2.206     6.63     974.4167     58.40123     808.3667        45     2.249     1.003 -26.05   0
       347    791.5389    453.1913 307.6014584  +6.5057247     10889.52     23080.05     27418.72     82.39335     165.5796     331.0932      2.351     8.02     968.1516     58.40123     1446.474        66     2.637     1.087 -35.11   0
       348    310.7093    453.7677 307.8013038  +6.4892995     1686.002     3569.205     4035.208     83.18435     165.5137     331.3568      2.287     7.16     978.4438     58.40123     226.6565        26     2.023     0.958 -25.57   0
       349    433.2757    453.8130 307.7503567  +6.4934145     566.2896     1080.984     1278.783     82.65786     165.3817     331.1262      2.029     4.79     976.3447     58.40123     112.7702         6     0.988     0.659 -57.91   2
       350    394.0310    450.6104 307.7667783  +6.4934137     1034.872     2470.926     3361.462     82.52571     165.4477     331.1921      2.469     7.96     976.4074     58.40123     153.1575        21     2.069     0.857 -25.61   0
       351    819.7739    450.7179 307.5898056  +6.5076940      1006.57     1751.858     1736.948     82.92152     165.4477     331.3239      1.836     6.02     967.0071     58.40123     158.7939        14     1.854     0.549 -22.01   0
       352    976.6619    448.2717 307.5246724  +6.5139671     1535.468     2829.252     2882.477     83.18435     165.7114     331.3898      1.907     6.27     959.8352     58.40123     260.1479        17     1.822     0.606 -24.20   0
       353    128.7119    445.3768 307.8772369  +6.4866164     2957.716     6106.907     7248.945     83.05304     165.5137     331.1921      2.328     6.51     986.8308     58.40123     352.6236        39     2.174     1.120 -25.69   0
       354    766.7590    444.3706 307.6120584  +6.5085342     1606.476      3373.93     3529.503     82.65786     165.5796     331.1591      2.159     6.84     968.8794     58.40123      219.485        25     1.981     0.898 -25.82   0
       355    287.2668    442.2865 307.8114394  +6.4932484     936.4517     2026.763     2523.096     83.05304     165.9746     331.3568      2.823     7.52      978.709     58.40123     120.0145        18     2.340     0.676 -21.56   0
       356    364.7240    440.0770 307.7793191  +6.4967742     2134.856     4636.993     5566.104     83.31544     165.9746     331.3898      2.363     6.27      975.629     58.40123     305.3707        30     2.071     1.022 -28.53   0
       357    720.5247    437.9614 307.6314949  +6.5096269     1222.194     2681.832     2992.939     82.92152     165.7772     331.3568      2.249     7.94      970.446     58.40123     195.0143        22     1.956     0.902 -25.19   0
       358    251.4152    436.4984 307.8265388  +6.4944277     697.1757      1297.13     1517.354     83.05304     165.4477     331.0603      1.803     3.54     980.2726     58.40123     117.6529         6     0.985     0.594  55.52   0
       359    561.4410    430.7392 307.6978681  +6.5072579     752.4284     1154.266     1548.204     83.05304     165.7114     331.3568      1.812     5.36     973.6137     58.40123     95.57849         9     1.366     0.593 -36.14   0
       360    482.6895    429.7093 307.7306381  +6.5050311     699.4962     1397.526      1203.24     83.05304     166.2374     331.4227      1.958     4.80     973.9731     58.40123     106.1442         8     1.515     0.431 -65.68   2
       361    485.8882    428.5877 307.7293467  +6.5056020     735.6434     1150.651     1117.531     82.65786     165.4477     331.1921      1.760     4.12     973.8763     58.40123      136.032         6     1.112     0.435 -31.87   3
       362    847.0015    428.1242 307.5792542  +6.5179363     1017.783     2178.092     2830.111     82.39335     165.1175     331.1591      2.320     6.79     965.6546     58.40123     146.0544        17     1.917     0.675 -29.69   0
       363    833.9170    426.2684 307.5847563  +6.5182634     1415.795     2557.353     3521.122     83.31544     165.9746     331.3568      2.275     4.70     965.8386     58.40123     226.2567        13     1.371     0.599 -35.24   2
       364    729.8034    425.1846 307.6280719  +6.5152139     9893.177     20777.36     23126.31     82.65786     165.3157     331.1591      2.175     7.71     969.2203     58.40123     1304.125        49     2.225     0.986 -27.39   0
       365    650.8420    421.1529 307.6610320  +6.5142239     1686.765     3743.416     4708.147     83.05304     165.7114     331.2251      2.416     6.80     972.2147     58.40123     221.4451        27     2.082     1.084 -27.67   0
       366    623.3163    416.3471 307.6726374  +6.5152822     8520.296     23382.51     30900.59     83.05304     165.7114     331.4557      2.892     8.08     972.4228     58.40123     1142.854        85     2.642     1.754   3.48   0
       367    955.0869    414.9762 307.5347695  +6.5269908     2698.006     5420.351     5581.394     83.05304     165.5137     331.1591      2.072     7.47     959.6775     58.40123     420.0622        27     2.075     0.752 -24.45   0
       368    394.2362    411.0684 307.7680407  +6.5097460     18557.66     40358.96     46381.16     82.92152     165.7772     331.4227      2.310     7.10     972.9261     58.40123     2212.687        71     2.334     1.212 -26.12   0
       369    908.1879    411.9644 307.5543675  +6.5266614     1211.415     1955.453      3541.24     82.52571     165.5137     331.0932      2.002     5.60     962.2139     58.40123     334.3197        12     1.708     0.518 -33.10   2
       370    140.4189    410.4589 307.8735641  +6.5014281     1426.376     3048.514     3306.383     82.65786     165.5796     331.0932      2.175     7.87     985.6163     58.40123     190.8192        24     1.963     0.883 -24.82   0
       371    923.8064    405.3905 307.5480978  +6.5298995     3236.459     6796.624     7195.813     82.52571     165.5137     331.1591      2.187     7.42       960.84     58.40123     536.3544        33     2.238     0.828 -26.81   0
       372     73.4576    406.3612 307.9015368  +6.5008554     839.4321     1884.833     2469.101     83.05304     165.7772     331.3239      2.442     6.61     987.3214     58.40123     117.4503        14     1.848     0.663 -30.33   0
       373    251.7686    401.5770 307.8275838  +6.5088572      8994.39     19364.77     21914.53     82.52571     165.5137     331.0932      2.275     6.54     978.4294     58.40123     1096.974        54     2.255     1.153 -27.68   0
       374     85.5745    396.5990 307.8968341  +6.5052957     539.6622     996.4657     1495.536     82.65786     165.3817     331.0932      1.361     3.91     986.8369     58.40123     90.95947         5     0.984     0.444  75.66   0
       375    975.3380    393.6419 307.5270742  +6.5364781     831.7759     1585.902     1191.772     83.05304     165.6455     331.4227      2.005     7.06     957.7554     58.40123      103.069        14     1.642     0.850 -31.61   0
       376    150.6907    390.7102 307.8699693  +6.5099287     2886.146     4494.781     4753.236     83.05304     166.2374     331.4227      1.626     3.68     984.9242     58.40123     451.5756        18     1.390     0.815 -56.37   3
       377    153.6629    389.6586 307.8687698  +6.5104633     2974.201     4442.234     4852.332     83.18435     165.6455     331.3568      1.649     4.67     984.8273     58.40123     362.5504        16     1.337     0.789 -50.12   3
       378    364.7876    391.4458 307.7809507  +6.5168543     892.1794     2140.883     2193.388     82.39335     165.5137     331.0603      2.246     7.59     972.3474     58.40123     128.9843        19     1.930     0.835 -26.90   0
       379    195.6916    392.0342 307.8512189  +6.5109029     644.8284     1162.036     1214.814     83.18434     165.5796     331.3568      2.047     3.99     981.7751     58.40123     98.70984         5     0.691     0.658 -88.26   2
       380    254.8695    390.2355 307.8266819  +6.5136444     768.2562     1450.079     2090.816     82.92152     165.7772     331.4227      2.428     4.36      977.653     58.40123     127.6188         7     1.103     0.491  -5.48   2
       381    450.7181    388.4474 307.7453333  +6.5209894     569.9698     877.9089     987.7709     83.05304     165.7114     331.3568      1.494     4.30     971.0344     58.40123     106.0865         5     0.868     0.607  49.76   0
       382    174.1742    386.0415 307.8603676  +6.5126499     1653.441     3623.988     4066.054     82.65786     165.6455     331.1262      2.285     7.69     983.4756     58.40123     202.5116        32     2.140     1.101 -31.87   0
       383    839.3857    386.2766 307.5838402  +6.5349585      507.335     907.1561     797.1223     82.65786     165.4477     331.1591      1.830     3.00     964.2028     58.40123     96.87732         4     0.854     0.308 -30.91   2
       384    568.9206    385.6207 307.6962943  +6.5261377     697.1811     1315.133     1123.007     82.65786     165.3817     331.3239      1.854     4.46     969.6921     58.40123     111.9827         7     1.311     0.431 -10.35   0
       385    397.3838    380.9775 307.7677580  +6.5222755     1381.482     2940.223     2740.314     82.78979     165.5137      331.258      2.147     7.57      971.438     58.40123     168.7216        21     1.922     0.880 -23.43   0
       386    985.9601    380.1788 307.5231147  +6.5423928     701.0724     1417.113     1778.752     82.65786     165.5137     331.0932      2.237     5.46     956.7223     58.40123     121.7716         7     1.471     0.572 -27.50   0
       387     16.3944    380.7431 307.9261314  +6.5095009     612.4108     1320.094     1489.025     82.52571     165.5796     331.0273      2.291     7.42     988.2661     58.40123     95.67096         9     1.857     0.831 -10.83   0
       388    451.4276    374.4581 307.7455150  +6.5267890     4723.401     10388.68     11376.62     82.65786     165.7772     331.2251      2.266     8.94     970.0966     58.40123     751.8582        41     2.230     1.001 -24.70   0
       389     47.5833    375.3320 307.9133526  +6.5127905      2270.48     4844.101     5684.663     82.52571     165.6455     331.2251      2.306     7.34     987.3025     58.40123     273.1235        33     2.345     0.877 -30.37   0
       390    783.6587    373.5473 307.6074383  +6.5383429     1298.491     2803.079     3562.554     83.05304     165.7114     331.3239      2.621     7.59     965.7789     58.40123     183.9569        20     2.091     0.771 -30.18   3
       391    791.9166    371.7679 307.6040659  +6.5393549     8652.948     18146.15     20639.82     83.05304     165.5137     331.2251      2.225     7.74       965.59     58.40123     1120.801        52     2.326     0.989 -24.57   2
       392    355.3843    370.2604 307.7855818  +6.5252837     783.3853     1560.591     2072.301     82.52571     165.6455     331.0603      2.385     6.40       971.56     58.40123     104.5541        11     1.338     0.861 -27.47   0
       393    966.0858    363.8853 307.5319290  +6.5484538      529.731     1041.469     1084.455     82.78979      165.843     331.3898      1.692     3.74      956.894     58.40123     108.2753         5     1.289     0.311 -32.95   0
       394      3.7005    362.7624 307.9320229  +6.5164946     736.7942     1660.578     2715.797     83.05304     161.1705       286.64      2.727     6.40     988.7627     58.40123     88.57391        10     1.779     0.645   8.43  26
       395    499.4898    358.2556 307.7260877  +6.5350978     2122.588     4396.215     4911.095     82.92152     165.5137     331.4557      2.272     6.86     967.8983     58.40123     303.8693        30     2.064     0.999 -29.69   0
       396    471.7925    358.6548 307.7375878  +6.5339999     1360.215     2924.673     2782.201     82.52571     165.5137     331.0273      2.236     7.85     968.5096     58.40123     176.8326        23     1.988     0.876 -28.91   0
       397    857.3326    354.7042 307.5774509  +6.5485964     22474.49     47946.76     54031.15     83.05304      165.843     331.3239      2.243     7.25     961.8022     58.40123     2823.242        70     2.276     1.154 -29.00   0
       398    350.6253    350.1963 307.7882443  +6.5334068     586.9964     800.1904     946.1007     82.52571     165.3817     331.1591      1.755     4.09     970.8826     58.40123     97.68854         6     1.465     0.326  -9.11   0
       399    629.2315    347.1789 307.6725309  +6.5440386     1783.481     3610.553      3675.08     82.52571     165.5137     331.1921      2.025     7.36     965.2903     58.40123     222.5923        25     1.982     0.839 -26.01   0
       400     37.5901    347.4824 307.9184590  +6.5239500     751.6637     1371.446     1535.017     82.65786     165.3157     331.1591      2.125     7.11        987.3     58.40123     116.7509        13     1.816     0.780 -17.24   0
       401    713.7929    340.6867 307.6375985  +6.5495626     52077.55     109936.2     124141.3     82.52571     165.3817     331.0603      2.248     7.46     964.6057     58.40123      6541.07        91     2.335     1.154 -25.56   0
       402    870.5645    342.7161 307.5723569  +6.5539900     939.3961      1536.49     2458.889     83.05304     165.7114      331.291      2.359     5.64     960.3008     58.40123     150.3354        10     1.399     0.642   3.65   2
       403    873.9468    340.6920 307.5710195  +6.5549392     670.6003     864.1378     1349.721     82.92152     165.5137     331.4886      1.453     3.69     960.0378     58.40123     125.7758         5     1.376     0.284 -36.18   3
       404     91.9326    341.0022 307.8960921  +6.5284639      885.987     1764.687     2131.357     82.39335     165.3157     331.1262      2.226     4.53     985.0245     58.40123     156.0525        11     1.263     0.771 -42.52   2
       405    953.4160    338.3256 307.5380626  +6.5585820     549.9244     359.0219     580.5144     82.52571     165.4477     331.1921      1.329     3.38     956.2421     58.40123     88.81104         5     1.076     0.308 -68.09   0
       406    575.7346    337.6880 307.6950928  +6.5461568     1681.103     3601.937     4265.339     83.05304     165.9088     331.3239      2.351     7.49     964.6583     58.40123     221.6913        27     2.088     0.873 -23.47   0
       407    113.5206    336.2615 307.8872805  +6.5311513     4077.509     8676.575     9894.831     83.18435     165.7772     331.3239      2.291     6.79      984.416     58.40123     494.1531        41     2.216     1.071 -26.16   0
       408    559.5830    333.6205 307.7019455  +6.5472925     4707.076     9810.881     10863.42     82.78979     165.5137     331.2251      2.244     7.24     964.3961     58.40123     593.6486        41     2.264     0.985 -25.21   0
       409    288.6205    331.3355 307.8146625  +6.5391012     1530.055      3493.76     3940.107     82.65786     165.7114     331.1921      2.424     8.00     972.6808     58.40123     225.9671        25     2.195     0.850 -27.64   0
       410    422.4168    328.7879 307.7591307  +6.5446667     16584.24      36170.2     41042.16     82.78979     165.3817     331.2251      2.326     6.98     967.8087     58.40123     1911.826        68     2.322     1.199 -26.83   0
       411    530.5504    327.3751 307.7142273  +6.5488935      754.875     1667.965     1683.134     82.65786     165.7114     331.2251      2.156     6.44     964.0663     58.40123     122.6298        10     1.925     0.605 -32.59   0
       412    402.7040    326.7977 307.7673932  +6.5448237     829.4785     1548.337     2695.918     82.52571     165.3817     330.9943      1.967     7.00     968.4313     58.40123     107.4703        12     1.671     0.823 -23.45   0
       413    500.2452    324.5012 307.7269232  +6.5490593     581.4711     1399.533     1428.963     83.05304     165.6455     331.5544      2.721     4.66     964.4721     58.40123     89.43274         6     1.309     0.471 -28.32   2
       414    816.3351    321.7532 307.5956128  +6.5608246     721.3881     1226.319     929.4617     82.92152     165.6455     331.3568      1.776     6.00     961.4921     58.40123      116.117        10     1.697     0.597 -16.80   0
       415    511.5024    319.1482 307.7224258  +6.5516485     5688.952     12208.87     13952.61     82.92152     165.7114     331.5544      2.304     7.31     963.5806     58.40123     705.9977        44     2.236     1.040 -26.66   0
       416    934.7643    318.3581 307.5464936  +6.5662006     598.8093     1033.601     1157.688     82.78979     165.7114     331.1591      1.712     4.47     956.2197     58.40123     95.88824         6     1.163     0.488 -46.03   0
       417    780.6764    317.9973 307.6105646  +6.5611778     1980.959     4528.088     5253.131     82.52571     165.1836     331.1921      2.367     8.11     961.8526     58.40123     303.9048        28     2.112     0.871 -22.27   0
       418    337.4580    316.4659 307.7948683  +6.5468885     657.3024     1362.636     1130.557     83.18435     165.6455     331.3568      2.168     7.27     970.6587     58.40123     119.0004         8     1.698     0.872 -50.65   0
       419    173.6625    309.6384 307.8631903  +6.5441759     729.9322     1633.219     2069.916     83.05304     165.7114     331.3568      2.606     7.00     981.3519     58.40123     107.1993        12     2.012     0.682 -23.33   0
       420    257.2713    304.2808 307.8286176  +6.5492125     1393.405     3018.148     3158.133     83.31545     166.0403     331.3568      2.179     7.48     974.4647     58.40123      159.382        26     2.057     1.046 -18.14   0
       421    401.4200    303.3452 307.7687264  +6.5544630     4713.357     10293.88     11848.74     82.52571     165.7114     331.1262      2.332     6.75     967.1251     58.40123     595.9417        43     2.258     1.077 -23.62   0
       422    769.2849    299.2302 307.6159377  +6.5685435     36033.77     75752.56     84327.17     83.05304     165.5137     331.1921      2.209     7.32     959.9435     58.40123     4614.435        75     2.302     1.090 -26.38   0
       423    754.6964    303.1933 307.6218680  +6.5664171     653.0225     1206.391     1483.656     82.78979     165.3157     331.1262      2.214     5.08     960.3942     58.40123      93.8656         9     1.356     0.538 -15.40   0
       424    440.9402    298.6680 307.7524568  +6.5577264     1573.991      3080.12     3422.107     83.18435     165.6455     331.3239      2.144     7.44     964.4875     58.40123      207.014        23     1.968     0.842 -21.59   0
       425    585.0073    297.5196 307.6926049  +6.5630531      660.298     1077.061     1633.775     82.65786     165.2497     331.1591      2.264     4.14     960.0314     58.40123     95.11487         7     1.516     0.322 -50.81   2
       426    589.1012    295.5204 307.6909709  +6.5640163     757.0214     1181.443     1399.085     82.92152     166.1061     331.3568      1.483     4.26     959.7556     58.40123     115.3491         6     1.057     0.490 -54.69   2
       427   1005.5874    295.6829 307.5178185  +6.5779370     1077.721      1936.75     2737.122     82.65786     165.5137     331.1591      2.327     4.38     951.7371     58.40123     200.2396        10     1.245     0.577 -38.42   2
       428    944.9245    295.5148 307.5430443  +6.5759727     1645.273     3159.774     2655.073     83.18434     166.0403     331.3898      1.985     6.67     954.9041     58.40123     255.6403        18     1.959     0.637 -26.99   0
       429    477.1876    295.6571 307.7374909  +6.5601911     736.8342     1151.364     1699.264     82.39335     165.5796     330.9943      1.813     4.71     962.0765     58.40123     118.4344         8     1.358     0.463 -20.92   0
       430    427.0191    294.5739 307.7583836  +6.5589475     1292.539     2457.163     2736.684     82.65786     165.5137     331.2251      2.111     6.95      965.001     58.40123      205.392        22     1.803     0.968 -28.58   0
       431    847.0349    289.7206 307.5839373  +6.5750807     657.6654     1089.494     872.9014     82.92152     165.7772     331.3568      1.575     4.99     957.9246     58.40123     107.5577         7     1.109     0.639  36.03   2
       432    850.1575    288.0189 307.5826969  +6.5758881     701.6735     1051.353     725.7906     82.52571     165.5796     331.0932      1.535     3.96     957.7211     58.40123     105.0919         6     0.934     0.481 -34.35   3
       433    459.0400    285.3144 307.7453875  +6.5638497     738.8505     1565.288     2092.314     83.05303     165.6455     331.3239      2.919     4.23     962.2894     58.40123     126.5641         8     1.196     0.707 -11.28   2
       434    204.1795    285.5779 307.8513264  +6.5551406     1554.829     3195.213     3751.365     82.78979     165.6455      331.258      2.173     6.93     978.6743     58.40123      207.399        25     1.887     0.924 -20.66   0
       435    767.6740    283.8299 307.6171305  +6.5748477     4185.326      8504.29     9266.153     82.92152     165.7114     331.3239      2.136     7.78     958.7018     58.40123     574.0281        40     2.173     0.975 -25.45   0
       436    238.9484    284.3232 307.8369158  +6.5568333     470.1092     1023.614     1137.697     83.18435     165.7772     331.3239      2.609     5.28     975.9412     58.40123      98.7674         7     1.669     0.473 -46.32   0
       437    100.3610    283.2244 307.8945639  +6.5526026      756.327     1605.345     1741.626     82.65786     165.5137     331.1262      2.089     6.33     983.8544     58.40123     122.2698        11     1.856     0.607 -19.53   0
       438    784.1586    281.7783 307.6103470  +6.5762485     1658.542      3632.61     4251.365     82.65786     165.5137     331.1262      2.295     7.87      958.599     58.40123     225.7495        29     2.285     0.833 -25.31   0
       439    373.6703    276.4112 307.7811805  +6.5646471     1250.935     3115.521     3602.857     82.52571     165.4477     331.1262      2.521     9.39     967.3445     58.40123     170.8522        30     2.370     1.037 -16.14   0
       440     87.1784    277.2762 307.9002472  +6.5546124     831.9457     1555.967     1629.192     82.65786     165.5137      331.258      2.155     7.51     984.0896     58.40123     106.9905        18     1.741     0.906 -23.54   0
       441   1020.5037    273.5150 307.5123683  +6.5875895     3681.271     4595.639     5040.485     83.05304     166.1061     297.2571      1.249     2.34     949.8029     58.40123     599.1619        17     1.038     0.905 -80.50  19
       442   1023.3824    272.3055 307.5112125  +6.5881853     3331.423     3648.803     4031.687     76.05625     136.1338     254.3184      1.089     3.29     949.6041     58.40123     629.6763        11     0.933     0.701 -55.49  27
       443    499.8090    272.8568 307.7288633  +6.5703666     1231.267     2758.922     3092.335     82.39335     165.6455     331.0273      2.343     7.74     959.8581     58.40123     186.0489        23     1.963     0.890 -26.72   0
       444    262.8768    268.1682 307.8275201  +6.5643110     3787.244      8430.07     9916.893     82.92152     165.7114      331.258      2.366     7.29     973.4896     58.40123     503.8165        42     2.258     1.090 -25.23   0
       445    784.2799    260.7527 307.6110106  +6.5849334     519.9705     733.0168     1119.721     83.05304     165.7114     331.3239      1.110     3.40      957.679     58.40123     98.56561         5     1.240     0.269  34.12   0
       446    397.0455    259.0517 307.7720549  +6.5726025     1154.734     2502.819     2653.278     83.18435     165.6455     331.3568      2.169     7.12     964.6228     58.40123     149.0395        19     1.964     0.724 -33.87   0
       447    238.7550    261.6322 307.8377709  +6.5661948     515.7175     815.4254     828.8198     82.78979     165.7772     331.1591      1.742     4.21       975.92     58.40123     73.93475         5     1.222     0.414 -12.39   0
       448    982.6528    258.6558 307.5286085  +6.5924559     725.7316     1222.606     1264.715     83.18435     165.7114      331.291      1.877     3.59     950.9786     58.40123     128.0184         5     1.103     0.337 -44.35   2
       449    166.8789    255.0466 307.8678754  +6.5664850     984.8254     2184.044      2446.61     83.05304     165.7772      331.291      2.360     8.01     979.9677     58.40123      134.799        19     2.005     0.895 -22.70   0
       450    319.8311    254.7947 307.8042997  +6.5717551     821.8768     1810.857     1758.216     82.39335     165.5796     331.0932      2.453     7.03     969.1368     58.40123     124.0103        16     2.196     0.630 -24.94   0
       451    920.1451    249.8499 307.5548949  +6.5939955     1275.773     2660.482     3328.183     83.05304     165.7114     331.3568      2.205     6.40     953.3388     58.40123     201.9049        16     1.966     0.585 -27.83   0
       452    576.7857    250.3687 307.6976274  +6.5822434     1394.575     2794.242     2919.025     82.65786     165.4477      331.258      2.164     7.65     957.5717     58.40123     202.7642        21     1.929     0.850 -22.94   0
       453    740.1147    247.9711 307.6298063  +6.5887267     3367.674     6923.625     7152.729     83.18435     165.3817     331.1591      2.139     7.47     957.4514     58.40123     453.4852        34     2.157     0.923 -29.06   0
       454    680.7920    248.0876 307.6544654  +6.5866844     1438.024     3166.461     3244.026     82.65786     165.3817     331.0603      2.181     7.46     957.4142     58.40123     199.4703        26     2.039     0.915 -31.87   0
       455    977.8027    247.4798 307.5310038  +6.5969075     493.8578     706.4975     851.0893     82.39335     165.1836     331.0603      1.665     6.22     950.5808     58.40123     133.0088         7     1.671     0.650 -22.38   0
       456    934.6010    240.6851 307.5491956  +6.5982642     742.0116      894.509     862.0928     82.26078     165.2497     331.0273      1.201     3.01      952.288     58.40123     146.1404         5     0.801     0.538 -40.59   2
       457    937.3538    239.3604 307.5480960  +6.5989035     633.8393     950.3488     1129.317     82.92152     165.7114     331.1921      1.770     4.91      952.074     58.40123     108.9619         7     1.336     0.511 -17.87   2
       458    239.4632    233.2735 307.8384448  +6.5779267     1409.672     2931.744     3553.441     83.31545     165.7114     331.3239      2.311     6.69     975.8922     58.40123      177.837        21     1.815     0.897 -21.43   0
       459    881.0258    232.5463 307.5717460  +6.5998272     1123.278     2014.436     2651.602     82.65786      165.843     331.1921      2.414     4.45      953.127     58.40123     194.5789        10     1.177     0.622 -30.68   2
       460    772.6106    231.9669 307.6168399  +6.5964262     1063.857     2187.415     2192.569     82.52571     165.4477     331.1591      2.168     7.63     956.5273     58.40123     163.7219        19     2.041     0.799 -21.48   0
       461    473.8918    222.8375 307.7413417  +6.5901445      14784.3     31904.75     37710.96     83.18434     165.6455     331.3568      2.393     7.19     958.2064     58.40123     1789.406        79     2.801     1.201 -32.74   0
       462    799.5726    222.2387 307.6059607  +6.6013483     9101.494     19328.36     21860.09     82.65786     165.5137     331.1592      2.245     7.31     955.7045     58.40123     1237.707        55     2.348     1.038 -24.37   0
       463    737.1544    219.0851 307.6320186  +6.6005533     541.6935     939.4011     581.0524     83.05303     165.6455     331.3239      1.511     4.79     956.3872     58.40123     84.05066         6     1.116     0.582  68.85   0
       464    160.6684    217.0639 307.8717551  +6.5819562     1436.245     2330.565     2527.566     83.05304     165.7772     331.3898      1.816     4.97     978.9354     58.40123     219.5844        12     1.461     0.670 -51.23   3
       465    163.6049    215.7095 307.8705806  +6.5826147     1400.618     2259.481     2740.326     82.52571     165.3817     331.0273      1.968     4.83     978.8183     58.40123     198.9363        13     1.325     0.683 -43.41   3
       466    134.9528    216.3740 307.8824691  +6.5813716     661.9764     1290.254     1654.242     82.65786     165.7772     331.1921      2.143     3.64     980.0571     58.40123     116.3611         6     0.806     0.511   3.88   2
       467    935.9049    212.4912 307.5496097  +6.6099485     1105.187     1939.429     1651.869     83.05304     166.2374     331.3239      1.789     6.36     950.6945     58.40123     156.1407        15     1.882     0.603 -33.36   0
       468    597.6395    208.8849 307.6903692  +6.6000725      3037.89     6502.789     7821.838     83.05304     165.6455      331.291      2.383     7.50     955.9216     58.40123     365.8375        35     2.284     0.910 -26.57   0
       469    318.6950    209.5867 307.8063145  +6.5903812     843.8464     1650.507     1600.633     82.78979     165.4477     331.1591      2.098     5.98     968.4208     58.40123     109.8511        12     1.903     0.529 -37.22   0
       470    560.2972    208.7755 307.7058980  +6.5988606      1269.26     2845.143     2822.773     83.18435     165.4477     331.2251      2.281     7.70     955.8259     58.40123     182.5802        21     2.169     0.766 -19.22   0
       471    402.1822    208.3628 307.7716476  +6.5937031      1052.83     2424.724      2410.39     82.65786     165.5796     331.0603      2.251     6.81     961.4069     58.40123      170.149        18     1.888     0.900 -29.11   0
       472      1.8769    208.8870 307.9380468  +6.5799597     2340.903     2888.573     3001.971      78.7356     140.2408     258.7431      1.311     3.36     985.6743     58.40123     368.9233        15     1.060     0.867 -63.96  24
       473    904.5956    205.4796 307.5628649  +6.6117931     7732.507     15870.55     17099.98     82.65786     165.1836     331.0603      2.125     7.91     951.1582     58.40123     1142.571        44     2.195     0.936 -25.48   0
       474    958.4398    205.9007 307.5404639  +6.6134252     1790.336     3819.226     4044.346     83.05303     165.5796     331.5544      2.201     7.19     949.5185     58.40123     310.6678        23     2.110     0.687 -23.82   0
       475    332.1236    206.3303 307.8008429  +6.5921788     671.9335     1553.128     2236.489     83.18435      165.843     331.3239      2.348     5.85     967.2043     58.40123     94.33472         8     1.852     0.521 -16.03   0
       476    991.3088    203.2778 307.5268868  +6.6156101     6615.329     13620.81     14958.53     82.78979     165.9746     331.3568      2.132     7.61     948.0591     58.40123     1007.245        38     2.151     0.872 -25.20   0
       477    702.7888    203.3734 307.6468403  +6.6058850     1892.317     4002.728     4614.179     82.65786     165.5137     331.1921      2.248     7.65     955.7035     58.40123     236.6328        26     2.128     0.875 -24.70   0
       478    580.5312    205.1744 307.6976083  +6.6010285     711.0685     1219.557     1486.198     82.65786     165.5796      331.258      1.758     3.63     955.7028     58.40123     115.6259         5     0.868     0.541  39.43   0
       479    224.1794    205.3355 307.8457527  +6.5889447     528.8627     1096.658     842.9825     82.65786     165.7114     331.1921      1.890     4.34     976.7418     58.40123     81.61365         5     0.996     0.538 -49.04   0
       480     29.6669    202.6999 307.9267059  +6.5834548     15504.46     24668.68     26333.92     83.05304      165.843      331.291      1.695     3.50     984.6024     58.40123     2082.103        31     1.330     1.211 -44.50   3
       481     32.3127    201.3745 307.9256513  +6.5840916     14852.51     22718.34     24368.04     83.18435     165.5137     331.1921      1.679     3.74     984.5543     58.40123     2010.841        34     1.414     1.114 -43.57   3
       482    276.8608    202.7188 307.8239408  +6.5918044     888.5634     1614.708     843.7358     83.18435     165.7114      331.291      1.792     6.17     972.4838     58.40123     112.6166        10     1.346     0.796 -23.68   0
       483    511.2940    198.2698 307.7266288  +6.6015477     1485.871     2876.224     3231.843     82.92152     165.7772     331.3239      2.176     7.11     956.2039     58.40123     161.3096        21     1.872     0.804 -28.25   0
       484    843.0202    195.0103 307.5888213  +6.6140490     1495.676     3102.061     3578.545     82.65786     165.3817     331.1921      2.330     7.28     952.3212     58.40123     213.7405        21     2.078     0.714 -29.66   0
       485    893.6754    194.6306 307.5677733  +6.6159059      1297.99     1849.859       2008.5     82.92152     165.7772     331.3239      1.485     3.49       950.92     58.40123      202.916        11     1.045     0.709 -33.18   3
       486    896.6399    193.6546 307.5665738  +6.6164084     1462.482      2511.66     2773.887     82.92152     165.7772     331.3239      1.936     4.38     950.8116     58.40123     199.3771        11     1.173     0.735 -42.30   3
       487    523.4601    194.0906 307.7217131  +6.6036829     1726.673     3556.616     4009.627     82.92152     165.7772     331.3898      2.174     7.09     955.6895     58.40123     223.5908        25     2.122     0.786 -25.44   0
       488    357.9162    190.8061 307.7906495  +6.5994584      3983.74     10251.46     12709.66     82.65786     165.3817     331.1591      2.685     8.19     964.6651     58.40123     415.6304        61     2.526     1.452 -42.62   0
       489    754.8542    191.3614 307.6256017  +6.6125943     26701.13      56452.6     63220.32     83.05304     165.7772     331.3239      2.231     7.27     954.6432     58.40123     3462.695        73     2.310     1.108 -25.92   0
       490    986.7349    190.7445 307.5292134  +6.6206315     1597.348     1904.902     2353.648     83.18435     165.6455     331.3239      1.194     2.41     947.8015     58.40123     347.9622         9     0.812     0.728  65.07   3
       491    989.9699    189.5350 307.5279093  +6.6212392     2033.181     2881.712     2894.185     82.78979      165.843      331.258      1.440     4.14     947.6528     58.40123     321.0225        15     1.365     0.695 -39.85   3
       492    922.7438    188.5044 307.5558953  +6.6194105     5238.507     10627.54     11284.65     82.92152     165.7114     331.5215      2.086     7.98     950.0421     58.40123     804.9982        35     2.094     0.850 -26.86   0
       493    466.2193    187.6342 307.7457310  +6.6044200     3128.702     6768.973     7440.995     82.52571     165.5137     331.1262      2.252     7.05     957.3243     58.40123     416.9756        35     2.152     0.960 -27.69   0
       494    123.4601    179.0273 307.8885236  +6.5964015     3125.793     6704.832     7703.169     82.65786     165.7772     331.2251      2.267     7.24     979.2552     58.40123     369.0245        35     2.161     0.965 -25.76   0
       495    293.9648    175.5694 307.8177567  +6.6035906     22333.89      48163.8     56214.73     82.65786     165.4477     331.0932      2.315     6.86     971.7771     58.40123     2767.983        76     2.380     1.215 -27.46   0
       496    943.1627    177.9771 307.5477626  +6.6244418     514.8171     924.2254     1254.245     82.65786     165.4477     331.0932      2.077     5.66     948.9083     58.40123     91.56445         8     2.087     0.433 -29.43   0
       497    269.4665    176.5773 307.8279073  +6.6023473      4219.63     8955.476     10560.53     82.65786     165.7114      331.258      2.314     6.95     973.4343     58.40123     501.1438        45     2.323     1.074 -25.72   0
       498    721.6570    175.5664 307.6399408  +6.6179999     570.6154     744.9547     819.2766     82.92152     165.7114     331.3239      1.676     6.04      954.421     58.40123     88.77362         7     1.387     0.739 -24.53   0
       499    418.0806    171.0467 307.7663100  +6.6096455     32268.52     70289.23     79810.14     83.05304     165.7114     331.3239      2.303     6.97     958.3889     58.40123     3890.121        80     2.347     1.231 -26.18   0
       500    173.8696    172.3663 307.8677944  +6.6008559      2729.63     5895.851     6280.822     82.92152     165.7114     331.3898      2.316     6.31     977.2379     58.40123     369.1075        40     2.220     1.138 -21.61   0
       501    434.6913    172.1904 307.7593651  +6.6097334     961.5356     1963.231     2421.782     82.78979     165.3817     331.0603      2.211     5.39     957.8373     58.40123     153.9555        10     1.454     0.565 -28.08   0
       502    322.8313    168.7610 307.8059879  +6.6073759     11321.96     25217.99     31973.13     82.65786     165.5137     331.1591      2.607     8.42     968.5772     58.40123     1377.463        92     3.171     1.377 -12.37   0
       503    757.3013    167.2773 307.6254026  +6.6226201     21920.17     46352.62     51584.33     82.65786     165.9746     331.3568      2.209     7.22     953.3038     58.40123     2791.381        69     2.293     1.086 -26.46   0
       504    805.9632    167.7908 307.6051528  +6.6240428     942.0624     2018.508     2440.091     82.52571     165.4477     331.0603      2.355     6.70     951.8802     58.40123     140.8006        14     1.899     0.663 -23.31   0
       505     74.1453    164.5352 307.9095209  +6.6007163     6121.977     13288.87     14490.01     83.05304     165.6455      331.291      2.291     6.95     981.7349     58.40123     790.3648        52     2.267     1.133 -25.02   0
       506    107.8424    162.7262 307.8955737  +6.6026031     967.6286     2367.476       2302.7     82.92152     165.7772     331.3568      2.291     7.52     979.2023     58.40123     154.7346        17     1.969     0.804 -19.94   0
       507   1015.5815    161.8633 307.5181985  +6.6335226     805.4138     1591.769     1894.587     82.65786     165.6455     331.1921      1.934     6.01     945.8513     58.40123     150.1056        13     1.853     0.549 -17.40  16
       508   1016.6087    147.9872 307.5182416  +6.6392861     1810.318     3608.832     4740.928     82.65786     165.5137     331.1262      2.010     6.27      945.019     58.40123     263.2726        25     1.999     0.812 -24.83  16
       509    599.0208    146.0000 307.6919349  +6.6260818      653.614     1574.865     2433.415     82.52571     165.3157     330.9614      3.968     6.57     953.3563     58.40123     102.1542         7     1.482     0.817 -20.09   2
       510    607.4591    143.8820 307.6884986  +6.6272403     1331.492     2725.297     4150.671     83.18434     165.7772     331.3568      3.049     7.53     953.3121     58.40123     155.3943        19     1.877     0.846 -20.33   0
       511    352.2270    143.7488 307.7946199  +6.6186943     680.4219     1482.124     1546.769     82.65786      165.843      331.258      2.184     5.09     965.0891     58.40123     125.7604        10     1.657     0.442 -21.37   0
       512     38.3350    140.2833 307.9252380  +6.6095166     3003.928     6426.709     6825.134     83.18435     165.9746     331.3898      2.209     7.24     984.2203     58.40123     363.3901        37     2.153     1.013 -25.04   0
       513    724.6236    138.4966 307.6399673  +6.6334044     5477.403     11368.58     12531.28     83.18435     165.4477     331.1591      2.183     7.17     952.6584     58.40123     681.0889        41     2.233     0.965 -24.75   0
       514    135.4424    135.4756 307.8850310  +6.6147870     3390.428     7078.296     7814.957     82.92152     165.7114     331.3568      2.200     6.34     977.5315     58.40123     414.0648        40     2.211     1.057 -22.53   0
       515    279.4714    136.3843 307.8251199  +6.6192789     576.6938     1145.671     1519.896     82.52571     165.6455     331.1921      2.342     3.44     973.1187     58.40123     77.37604         5     1.118     0.306 -20.59   0
       516    292.8578    141.8378 307.8193682  +6.6174794     19614.74     43124.14     50061.36     83.05303     165.7772     331.3239      2.348     6.94     972.3119     58.40123     2270.407        79     2.436     1.226 -27.04   0
       517    474.5965    132.9253 307.7441122  +6.6272894     925.2554     1993.055     1632.375     82.52571     165.1836     331.2251      2.083     7.01     954.9288     58.40123     123.5008        15     1.796     0.767 -33.11   0
       518    406.0616    131.6631 307.7726498  +6.6255000     2505.391     5960.754     6479.378     83.05304     165.7114     331.3568      2.380     6.72     958.7681     58.40123     315.3265        41     2.143     1.198 -30.37   0
       519    370.6184    130.4734 307.7874263  +6.6247957     2166.514     4867.563     5111.534     82.52571     165.6455     331.2251      2.207     8.23     962.8083     58.40123     250.5262        30     2.179     0.891 -22.95   0
       520    124.3346    130.5982 307.8898158  +6.6164249     1258.398     2619.717     2866.667     82.39336     165.3157     331.0932      2.138     7.49     977.8453     58.40123     187.5105        24     1.827     0.961 -25.61   0
       521   1017.2903    124.7281 307.5187465  +6.6489119     1104.335     2224.547     2295.809     82.92152     165.9746     328.2128      1.975     5.93     943.6549     58.40123     161.9822        14     1.961     0.505 -25.49  16
       522    222.2064    119.4261 307.8495072  +6.6243458     3607.704     7706.311       8796.8     82.52571     165.5796     331.1262      2.236     6.54     974.4952     58.40123     492.0558        40     2.174     1.040 -27.02   0
       523    684.1638    118.1970 307.6574800  +6.6404251     4185.091     8815.447     9779.405     82.12799     165.5137     331.1262      2.189     7.40     951.9287     58.40123     504.0408        38     2.190     0.964 -27.25   0
       524    105.0145    119.0598 307.8982426  +6.6205350      1386.51     3041.833     3839.905     82.52571     165.6455     331.0603      2.440     8.90     978.2967     58.40123      174.738        27     2.179     1.016 -26.06   0
       525    636.2405    115.5443 307.6774960  +6.6399083      6353.16      13526.4     16362.65     82.92152     165.7772     331.3568      2.308     6.89      952.021     58.40123     806.3864        49     2.328     1.039 -25.20   3
       526    639.7852    106.9934 307.6763131  +6.6435580     35665.48     75467.28     85492.14     82.65786     165.4477     331.1591      2.254     7.47     951.5975     58.40123     4622.792        85     2.334     1.159 -25.55   2
       527    831.4843    118.1497 307.5962272  +6.6453951     635.5945      1283.29     1891.063     83.05304     165.6455     331.4227      1.914     5.00     948.9231     58.40123     117.4751         8     1.742     0.405 -22.40   0
       528     36.4896    113.5867 307.9269188  +6.6204756     773.2136     1377.789     1678.798     82.78979     165.4477     331.1921      1.990     5.97     983.3492     58.40123     93.73962         9     1.301     0.771  -9.49   0
       529    363.2563    111.2638 307.7911425  +6.6324781     2467.673     5463.459     6398.439     83.18435     165.6455     331.3239      2.477     7.19     963.6167     58.40123     329.1188        34     2.181     0.977 -33.90   0
       530    545.1094    110.6255 307.7155542  +6.6388716     1220.628     2351.834     2157.045     83.18435     165.4477     331.1591      2.053     7.08     952.3427     58.40123     155.2859        19     2.028     0.692 -20.23   0
       531   1008.8373    110.5553 307.5227417  +6.6544802     593.3595     1324.002     1365.441     82.78979     165.7114     331.2251      2.221     4.06     943.0585     58.40123     99.59119         5     1.187     0.398 -15.46   0
       532    228.4570   1020.3058 307.8161605  +6.2526220      1565.97     3191.943     3377.884     82.92152     165.7114     299.7798      2.182     7.09     997.9059     58.40123     221.3333        20     2.070     0.680 -23.25  16
       533    319.0192    100.6546 307.8098969  +6.6353652     2195.826     5006.563     5803.651     82.52571     165.7114     331.1262      2.370     7.85     969.0328     58.40123     278.9678        34     2.255     0.958 -21.17   0
       534    690.3121     94.2941 307.6557364  +6.6505006     910.9106     1761.362     1650.783     83.05304     166.1718     331.3898      2.053     6.59     950.7684     58.40123     125.8625        15     1.788     0.681 -29.70   0
       535    704.1966     90.9570 307.6500768  +6.6523451     2016.014     4506.914     5115.314     82.39335     165.3157     330.9943      2.362     7.93     950.5649     58.40123     260.3821        29     2.126     0.856 -22.78   0
       536    445.7831     82.1033 307.7578241  +6.6473004     2619.623      5763.45     6069.554     82.92152     165.5137     331.0932      2.284     8.22     955.0616     58.40123     316.1178        33     2.120     0.992 -26.80   0
       537    918.4545     77.3289 307.5614503  +6.6651676     2834.847     5603.161     6325.162     82.92152     165.5796      331.291      2.190     6.79     943.7137     58.40123     405.3972        29     2.152     0.813 -22.05   0
       538    900.5712     78.1260 307.5688593  +6.6642385     1540.441     3134.189     3176.772     82.92152     165.7114      331.291      2.040     6.96     944.4828     58.40123     219.5431        20     2.028     0.670 -26.06   0
       539    598.3898     78.7287 307.6944867  +6.6538343     578.3796     987.6655     865.3675     82.52571     165.3157     331.1591      1.988     4.89     950.8795     58.40123     88.25842         5     1.064     0.636 -24.53   0
       540    610.5663     76.0270 307.6895157  +6.6553596     1321.695     2623.621     2556.967     82.52571     165.4477     331.0932      1.965     6.89     950.6356     58.40123     180.2441        18     1.878     0.709 -26.25   0
       541    407.9815     74.5375 307.7737993  +6.6491494     1219.548     2116.101      2422.24     82.65786     165.6455     331.1921      1.910     5.89     958.2025     58.40123     172.0847        14     1.511     0.647 -43.99   3
       542    411.4944     73.0025 307.7723911  +6.6499016     902.2186     1578.196     1722.871     82.65786     165.3817     330.9614      1.829     4.91     957.8625     58.40123     126.0723         9     1.234     0.554 -58.52   3
       543    254.9830     75.2581 307.8373884  +6.6436879     511.0427     1130.544      1927.16     82.52571     165.6455     331.0603      2.491     3.54     973.1453     58.40123     89.83875         5     0.805     0.490 -54.90   0
       544    157.0988     70.8770 307.8782355  +6.6421886     2115.547     4580.394     5152.026     82.65786     165.9088     331.3239      2.258     6.87     974.7258     58.40123     284.3807        29     2.192     0.859 -30.79   0
       545    305.1331     69.2571 307.8167420  +6.6478590     927.8284       2134.6     2780.602     83.18435     165.6455      331.291      2.442     7.45     970.6253     58.40123     142.4554        17     2.021     0.770 -29.77   0
       546     39.0957     68.5236 307.9273774  +6.6391678      8151.67     17873.46      20830.5     82.65786      165.843     331.3898      2.330     6.99     981.2837     58.40123     1008.153        53     2.240     1.137 -27.20   0
       547    784.3376     64.3140 307.6176594  +6.6660386      2109.55       2951.8     3579.186     83.18435     165.9088     331.3239      1.590     3.85     946.8525     58.40123     295.1556        18     1.274     0.932 -39.78   3
       548    787.6503     62.6897 307.6163371  +6.6668204      2077.58     2794.114     3176.677     83.05304     165.5137     331.4557      1.531     3.83     946.6028     58.40123     283.2389        12     0.958     0.803 -24.39   3
       549    840.8171     63.1194 307.5942152  +6.6684286     4178.337     8699.727     9989.815     82.65786     165.3817     331.2251      2.186     7.68     945.3156     58.40123     613.1366        36     2.197     0.884 -25.44   0
       550    432.2635     63.3984 307.7640830  +6.6545671     726.1242     1498.976     2195.445     82.39335     165.4477     331.0932      2.767     4.88     956.0009     58.40123     124.5279         7     1.254     0.611 -35.21   2
       551    933.6160     62.1948 307.5556594  +6.6719246     376.5162     703.7112     1637.682     82.65786     165.3817     331.1591      2.096     4.38      942.087     58.40123     70.80505         5     1.146     0.477 -32.63   0
       552    547.2654     61.8714 307.7163179  +6.6590728     650.2884     1329.684     1723.413     83.05304     165.7772     331.3898      2.368     6.96     950.9892     58.40123      94.1264        10     1.977     0.687   0.05   0
       553     79.3502     60.4756 307.9109164  +6.6438528     2038.613     4436.459     5105.566     82.92152     165.7772     331.3239      2.418     6.73     978.2217     58.40123     262.4675        29     2.221     0.866 -25.39   0
       554    439.0491     60.4038 307.7613637  +6.6560322     794.6054     1457.579     2473.095     82.39335     165.5137     330.8954      3.017     5.32      955.405     58.40123     99.40613         9     1.074     0.804  44.42   2
       555    602.9874     57.3214 307.6933037  +6.6628273     860.1627     1724.086     1789.697     82.65786     165.3817     331.1262      2.170     5.51     950.1373     58.40123     133.3618        10     1.356     0.632 -31.07   0
       556     21.9078     55.9576 307.9349535  +6.6437737     1773.784     3681.021     4287.706     83.05304     165.7114     331.4227      2.140     7.18     981.8759     58.40123     222.8668        29     2.026     0.968 -29.44   0
       557    778.6654     51.6707 307.6204475  +6.6710679     1189.809     1479.763     1459.867     83.05304     165.7772     331.3239      1.366     3.86     946.2556     58.40123     162.8038        11     0.958     0.926  59.27   3
       558    782.2983     50.4623 307.6189780  +6.6716889     1126.585     1431.725     1525.131     82.78979      165.843     331.3898      1.399     3.90     945.9709     58.40123     169.4159        10     1.017     0.693 -30.44   3
       559    421.1058     51.4265 307.7691304  +6.6591335     672.9771     1510.976     1561.611     83.18434     165.4477     331.1592      2.153     5.89      956.968     58.40123     112.6282        12     1.992     0.491 -23.00   0
       560    119.0053     49.9288 307.8947898  +6.6495486     806.0314     1321.175     1501.198     82.65786     165.3157     331.1921      1.977     6.19     975.7053     58.40123     114.8083        12     1.589     0.678 -28.83   0
       561    107.0951     44.7562 307.8999186  +6.6512812     6178.321     13029.69     14150.73     83.05304     165.6455     331.4557      2.217     6.91     976.0945     58.40123     773.3837        49     2.218     1.113 -26.91   0
       562    434.6955     45.6423 307.7636771  +6.6619797     1474.276     2282.589     2565.733     83.05304     165.6455     331.4557      1.682     3.58     955.6862     58.40123     199.6097        11     1.139     0.665 -14.99   3
       563    437.9518     44.0000 307.7623792  +6.6627676     1432.734     2408.763     2874.085     82.26078     165.3157     330.8294      1.930     6.83      955.394     58.40123     193.6685        15     1.501     0.871 -17.19   3
       564    649.9501     36.7409 307.6744765  +6.6729045     12369.67     25949.57     29620.37     83.05304     165.7114     331.3568      2.227     7.01     948.7637     58.40123      1497.42        57     2.287     1.092 -25.96   0
       565    273.4209     38.9822 307.8309609  +6.6592871     1017.365     2104.359     3165.208     82.78979     165.5796     331.2251      2.380     7.67     972.5754     58.40123     144.7028        18     1.781     0.925 -32.95   0
       566    704.1540     39.1308 307.6518566  +6.6737409     327.3651     598.0275     661.0349     83.05303     165.6455     331.3239      3.129     5.06     948.0469     58.40123     80.06842         5     1.549     0.467 -67.15   0
       567    549.6916     32.7617 307.7163004  +6.6711726     3676.716      7581.98     8907.246     83.18435     165.6455     331.3568      2.171     7.11     950.0934     58.40123     444.3777        38     2.165     0.989 -25.73   0
       568    267.5771     33.6243 307.8335737  +6.6613018     1277.937     2697.585     3716.606     82.52571     165.5796      331.291      2.313     7.54     972.5831     58.40123     181.1093        19     1.963     0.811 -22.42   3
       569    275.7884     28.7976 307.8303243  +6.6635718     6332.229     13547.95     16162.66     82.65786     165.3817     331.1262      2.352     6.65     972.4611     58.40123     724.0271        54     2.612     1.089 -24.51   2
       570    718.1210     33.0090 307.6462571  +6.6767379     11213.73     11299.83     11020.33     82.65786     165.3157     331.1591      0.508     2.49       947.55     58.40123     7210.186         8     0.491     0.379 -86.13   0
       571     15.3625     31.7337 307.9385040  +6.6535526     795.1711     1373.542     1562.692     82.92152     165.6455     331.3898      2.039     5.43     981.2396     58.40123     105.3813         9     1.143     0.726 -25.66   2
       572    637.5056     30.4882 307.6798638  +6.6750673     782.3995     1179.363     2214.763     83.05304     166.1718     331.3898      2.322     5.74     948.7053     58.40123     90.39783         8     1.424     0.652 -25.51   3
       573    636.0025     26.5489 307.6806229  +6.6766431     2181.964     4684.758     6028.378     82.39335     165.3157     330.8954      2.317     6.91     948.6323     58.40123     275.1364        30     2.082     0.900 -28.49   2
       574    455.2665     28.3598 307.7557128  +6.6698084     15139.21     32066.69     36003.47     83.05304     165.6455     331.4227      2.244     6.68     953.5104     58.40123     1774.702        63     2.278     1.137 -25.61   0
       575    335.3782     29.3653 307.8055280  +6.6653493     676.1752     1377.365     1475.127     82.52571     165.5137     331.0603      2.203     6.08     966.7523     58.40123     95.75745         8     1.820     0.571 -39.43   0
       576     41.2222     28.4343 307.9278652  +6.6557903      1405.61     3089.067     3678.952     82.52571     165.5137     331.0603      2.274     7.93     979.4642     58.40123     214.3579        24     2.204     0.799 -25.03   0
       577    934.6291     27.7515 307.5564066  +6.6861791     1174.711     2037.582     3059.749     82.65786     165.7772     331.2251      2.565     3.62     939.8153     58.40123     260.1429         9     1.094     0.539 -24.42   2
       578    263.8981     25.3221 307.8353869  +6.6646050     1859.772     4138.909     4941.353     82.65786     165.9746     331.3568      2.371     8.37     972.5378     58.40123     214.0104        29     2.177     0.899 -25.51   0
       579    316.1881     24.1639 307.8136846  +6.6668490     815.3098     1362.061     1626.538     82.52571     165.5137     330.9943      1.999     6.37     969.0336     58.40123      89.8551        12     1.243     0.916 -26.28   0
       580    952.1982     19.3375 307.5493863  +6.6902422     685.4037     1282.782     1925.971     82.39335     165.5137     331.0603      2.344     5.57     937.9791     58.40123     103.3484         9     1.572     0.557 -16.54   2
       581    704.9523     17.9978 307.6522432  +6.6824927     1112.612     2264.779     2639.912     82.39335     165.3817     330.8954      1.905     6.59     947.0126     58.40123     169.0156        16     1.995     0.611 -22.30   0
       582    994.6523   1019.7428 307.4978398  +6.2786211     626.3701     994.8378     1332.663     83.05304     165.7114     306.4056      2.182     5.64     979.8142     58.40123      92.5799         9     1.719     0.522 -25.62  16
       583    731.7071   1017.4818 307.6071688  +6.2707336     5292.492     10949.71      11913.2     82.78979     166.0404      327.147      2.157     8.28     989.9252     58.40123      804.278        37     2.215     0.865 -26.96  16
       584    586.2789   1017.3331 307.6675972  +6.2659065     2975.274     4018.947     5148.074     83.18435      165.843     328.0132      1.483     3.15     991.2856     58.40123     438.6464        16     1.035     0.920 -65.42  19
       585    589.4654   1015.5448 307.6663340  +6.2667521     2415.227     3446.238      4937.12     83.18435     165.6455     331.3239      1.645     3.20     991.2785     58.40123     393.8077        16     1.036     0.923 -16.25   3
       586    444.5231   1018.4919 307.7264541  +6.2606565     2344.169     3053.531     3835.731     82.78979     165.9746     319.2107      1.330     2.85     994.4298     58.40123     383.7031        13     0.985     0.769 -54.57  19
       587    447.7015   1017.0269 307.7251835  +6.2613684     2636.741       4231.4     5460.495     83.18434     165.4477     329.6396      1.780     3.99     994.2809     58.40123     408.5983        17     1.496     0.739 -35.06  19
       588    723.5385   1017.0419 307.6105777  +6.2706408     926.3944     1751.809     1782.133     83.05304     165.7114     329.6396      2.248     5.66     989.8334     58.40123     146.4008        11     1.814     0.497 -30.73  16
       589    765.3857   1011.8185 307.5933678  +6.2742029     889.7299     1542.201      1966.69     82.78979     165.3817     331.2251      2.314     4.10     988.0404     58.40123     166.1277         7     0.940     0.549 -32.45   2
       590    971.3232   1006.9503 307.5079662  +6.2831212     4874.972     10070.14     11255.99     82.92152     165.7772     331.3239      2.214     7.21       979.58     58.40123     645.3038        39     2.213     0.937 -21.32   0
