#   1 NUMBER                 Running object number                                     
#   2 X_IMAGE                Object position along x                                    [pixel]
#   3 Y_IMAGE                Object position along y                                    [pixel]
#   4 ALPHA_J2000            Right ascension of barycenter (J2000)                      [deg]
#   5 DELTA_J2000            Declination of barycenter (J2000)                          [deg]
#   6 FLUX_APER              Flux vector within fixed circular aperture(s)              [count]
#   9 FLUXERR_APER           RMS error vector for aperture flux(es)                     [count]
#  12 FLUX_RADIUS            Fraction-of-light radii                                    [pixel]
#  13 FWHM_IMAGE             FWHM assuming a gaussian core                              [pixel]
#  14 BACKGROUND             Background at centroid position                            [count]
#  15 THRESHOLD              Detection threshold above background                       [count]
#  16 FLUX_MAX               Peak flux above background                                 [count]
#  17 ISOAREA_IMAGE          Isophotal area above Analysis threshold                    [pixel**2]
#  18 A_IMAGE                Profile RMS along major axis                               [pixel]
#  19 B_IMAGE                Profile RMS along minor axis                               [pixel]
#  20 THETA_IMAGE            Position angle (CCW/x)                                     [deg]
#  21 FLAGS                  Extraction flags                                          
         1    172.6415     20.1364 307.8654805  +6.6683788     8008.013     16105.89     17639.66     77.98661     155.5407     311.2052      2.125     5.87     826.6085     54.83862     909.8558        50     1.988     1.200  40.98   0
         2    516.8381     18.2635 307.7225078  +6.6807316     2145.506     4237.055     4872.174     77.98661     155.5407     311.1743      2.118     6.11     817.1911     54.83862     259.5753        31     2.026     0.939  50.92   0
         3    918.3081     17.9914 307.5556711  +6.6942978     3103.109     5848.018     6605.704     77.61554     155.2931     310.9268      2.008     6.77     814.4003     54.83862     371.4922        29     1.914     0.934  40.34   0
         4    718.7458     16.2939 307.6386656  +6.6883184     1518.699     3020.437     3506.473     77.86312     155.5407     311.3289      2.150     6.69     816.5222     54.83862     176.7183        23     1.921     0.855  52.70   0
         5    454.9438     16.4166 307.7482928  +6.6794153     1363.427     2476.139     2689.851     77.49146     155.5407     310.8648      1.947     5.93     819.3808     54.83862     178.8475        20     1.658     0.886  41.61   0
         6    983.0059     14.2754 307.5289093  +6.6979956     1531.935     3136.696     3342.062     77.61554      155.107     310.9886      2.094     6.11     811.8688     54.83862     215.6865        25     1.833     0.931  43.93   0
         7    702.4193     10.6739 307.6456424  +6.6900927     5503.234     10647.86      11852.6     77.61554     155.5407     311.0505      2.071     6.30     816.2952     54.83862     675.9967        42     1.976     1.076  42.96  16
         8    622.7863      9.9027 307.6787633  +6.6877411     2740.071     5515.565     6332.918     77.86312      155.355     310.8958      2.177     5.92     816.1392     54.83862     351.2028        33     1.930     1.089  39.24  16
         9    324.2425      9.5206 307.8028445  +6.6778688     864.6443     1920.234     2677.841     77.98662     155.6026     311.0815      2.740     6.65     826.6767     54.83862     116.3561        15     1.671     0.743  56.18  17
        10    422.7965      6.0938 307.7620055  +6.6825988     4579.381     9033.628     9758.385     77.73943     155.2931     295.7953      2.118     5.73     822.2094     54.83862     551.5982        39     1.916     1.115  41.69  24
        11     23.7646      5.6218 307.9278448  +6.6693528     6124.615     12057.79     12985.15     77.49146      155.355      291.238      2.071     5.80     828.8029     54.83862     679.7863        41     1.900     1.133  38.82  16
        12    669.8022      4.6162 307.6594045  +6.6915015     641.7232     1007.424     1096.519     77.61554     155.2311     280.2935      1.794     4.15     816.0336     54.83862     89.74323         6     1.184     0.416  33.67  16
        13    320.0948      2.0693 307.8048234  +6.6808071     8430.327     12441.11     13897.86     75.47835     134.2191     245.8728      1.560     4.05     826.6462     54.83862     1102.708        34     1.668     0.962  10.67  24
        14    498.6475      3.6271 307.7305677  +6.6861664     641.7755     1175.513     1641.462     77.61554     151.0204     268.0436      2.183     2.69     816.6496     54.83862     143.6865         5     0.896     0.474   7.06  16
        15    378.1962      7.8712 307.7804794  +6.6803651     542.8419     1059.309     742.4841     77.49146     155.2311     308.8773      1.543     3.40     825.2629     54.83862     93.90985         5     1.013     0.331  45.85   0
        16     93.4708      2.0065 307.8990023  +6.6731981     1855.886     2893.551     2952.993     74.96662     133.1393     244.8138      1.692     4.67     827.0466     54.83862      245.498        20     1.545     0.869  12.70  24
        17     85.6394      1.4780 307.9022748  +6.6731523     685.1703      1113.32     1491.786     69.64289     125.8567      236.537      1.870     4.54      827.182     54.83862     122.2491         7     0.892     0.658  10.41  24
        18    386.7319      1.1386 307.7771626  +6.6834331     490.0376     554.8044      289.888     65.21878      120.625     230.8126      1.063     3.01     824.7584     54.83862     150.6052         5     0.918     0.343   2.94  24
        19    591.8005    991.9359 307.6581273  +6.2810502      858.233     1735.173     2025.394     77.24268     155.2931     310.8648      2.015     6.60     851.6485     54.83862     114.0845        14     1.838     0.665  31.45   0
        20    743.2953   1022.1007 307.5941905  +6.2736658     878.0385     1765.692     1871.676     77.98661     144.4412     257.9818      2.010     6.81     850.5667     54.83862      147.496        14     1.678     0.776  49.46  24
        21    565.6141   1023.5704 307.6679223  +6.2671046     1013.895     1395.766     1529.187     69.08796     125.0128     235.5177      1.340     3.50     852.4571     54.83862     235.6735        11     1.276     0.637   8.69  24
        22    422.7539   1023.7488 307.7272376  +6.2622362     589.4984     921.8544     1139.759     66.96602     122.4462     232.9293      1.326     3.45     851.7357     54.83862     131.8911         6     1.014     0.386 -12.17  24
        23    522.7040    990.1735 307.6868800  +6.2794605     2965.379     6312.486      7215.69     78.10992      155.355     310.9886      2.301     6.06     851.7693     54.83862     348.0176        39     1.970     1.134  34.22   0
        24    631.9495    989.1033 307.6415516  +6.2835662     946.0757     1902.374     1676.189     77.86312     155.5407     311.2979      2.006     6.50     851.0238     54.83862     134.5692        16     1.910     0.621  45.89   0
        25     57.3946    988.5580 307.8801505  +6.2644795      754.937     1354.347      1639.55     77.36717     155.2931     310.8339      2.031     5.86     845.5669     54.83862     97.35626        10     1.479     0.653  49.68   0
        26    476.0021    986.7269 307.7063907  +6.2793168     1577.737     3115.913     2997.781     77.49146     155.1691     310.9886      1.974     6.22     851.9297     54.83862     231.5898        22     1.780     0.828  35.77   0
        27    910.3901    978.7772 307.5262761  +6.2971519     30862.31     63888.98     72784.88     77.61554      155.355     310.9577      2.204     5.76     846.5754     54.83862     3506.249        94     2.205     1.404  38.74   0
        28    217.4785    976.8164 307.8140805  +6.2747211     1360.894     2783.128     2708.365     77.61554      155.355     310.9886      2.127     7.37     849.7585     54.83862     161.1133        23     1.852     0.873  40.31   0
        29    808.2988    972.4985 307.5688854  +6.2963312     1791.842     3486.693     4346.201     77.98662     155.9732     310.9577      2.301     6.45     847.0414     54.83862     208.1322        25     1.816     0.998  47.11   0
        30    756.4446    970.4936 307.5904871  +6.2954238     4911.758     9844.065     11971.64     77.86312     155.5407     311.2361      2.280     6.19      848.364     54.83862     582.3777        49     2.080     1.356  49.13   0
        31    615.8996    974.4359 307.6487166  +6.2890870     664.6412     1063.923     759.8414     77.98661     155.4789      311.267      1.574     3.70     850.9667     54.83862     112.3409         6     0.795     0.495   2.27   0
        32    226.3298    969.6268 307.8106512  +6.2779887     1127.048     2233.301     2421.708     77.61554     155.4789     311.0505      2.028     7.56     849.8461     54.83862     153.6353        20     1.783     0.898  35.63   0
        33    543.4083    969.8677 307.6789752  +6.2885429     825.0081     1410.914     1136.925     77.49146      155.355     311.0196      1.648     5.43     851.1529     54.83862     96.31451        11     1.227     0.679  40.66   0
        34    190.5051    969.3705 307.8255359  +6.2768888      674.161     1169.357     1309.291     78.10992      155.355     311.0196      2.080     3.88     848.6586     54.83862     88.69794         7     1.126     0.702  84.41   0
        35     50.6467    967.3285 307.8836802  +6.2730210     2002.809     4344.542     4387.889     77.98662     155.6026     311.1124      2.145     6.71     845.1765     54.83862     231.3436        29     1.895     1.041  47.17   0
        36    944.8209    965.5469 307.5124274  +6.3037678     4807.155     9925.809     10699.07     77.49146     155.6026     310.9268      2.189     6.28     845.2956     54.83862     518.0287        48     2.121     1.180  39.34   0
        37    628.2141    960.3793 307.6440819  +6.2953062     494.0955     773.8591     503.4991     77.73943     155.2931     311.0196      1.612     4.69     850.3161     54.83862     68.41797         6     0.821     0.761   8.33   2
        38    918.5779    956.9312 307.5236184  +6.3064497     1470.438     3059.601     2124.371     77.61554     155.5407     311.0815      1.542     7.54     845.6169     54.83862     208.0663        22     1.839     0.919  46.87   0
        39    639.2999    953.1197 307.6397258  +6.2986766     3414.084     6677.924     7745.329     77.98661     156.0349     311.1433      2.093     6.55     849.9006     54.83862     434.4918        35     1.990     1.011  41.92   0
        40    251.4932    953.3570 307.8007589  +6.2855559     3382.408     6555.471     7530.298     77.98662     155.6026     311.2361      2.147     5.73     849.7336     54.83862     398.7296        35     1.840     1.144  43.65   0
        41    779.6851    954.6871 307.5813740  +6.3027311     669.6564     1628.926     2157.753     77.73943      155.788     311.1743      3.115     6.28     847.4764     54.83862     127.1076         8     1.356     0.818  40.54   2
        42    987.2074    952.4243 307.4952709  +6.3106046      552.892     1204.512     1285.857     77.49146     155.4789     310.9577      2.138     6.36     843.7217     54.83862     78.34845         7     1.180     0.961  37.27   2
        43    461.7087    952.0049 307.7135117  +6.2931796     881.9297     1677.581     1636.562     77.61554     155.2931     310.8648      1.832     6.98     850.9173     54.83862     118.7745        13     1.633     0.836  40.45   0
        44     20.0352    950.7191 307.8969606  +6.2788496     1475.188     3092.182     3617.797     77.86312     155.6644     311.1124      2.217     7.63     843.8745     54.83862     173.7123        23     1.631     0.998  38.73   0
        45    942.1683    946.7888 307.5141665  +6.3114278     626.0078     1191.914     1440.622     77.49146      155.355     310.9886      2.048     5.63     844.6584     54.83862     93.23505         9     1.586     0.562  47.63   0
        46    995.4705    946.0143 307.4920571  +6.3135284      661.151     1091.758     1258.632     77.49146     155.4789     311.0196      2.071     6.40     843.4667     54.83862      110.986         9     1.435     0.801  41.16   0
        47    563.9817    945.3868 307.6712670  +6.2993455     1301.549     2546.169     2190.083     77.73943     155.2931     311.0196      1.946     7.43      850.476     54.83862     151.5056        19     1.706     0.906  45.56   0
        48    603.3120    942.1145 307.6550458  +6.3020161     953.1309     1817.075     2087.543     77.73943     155.8498     311.2052      2.043     7.02     850.2138     54.83862     132.4614        16     1.664     0.830  41.84   0
        49    283.1864    940.0349 307.7880539  +6.2921249     1001.983     2140.013     3284.697     77.49146     155.4169     310.9886      3.343     7.33     849.9913     54.83862     147.8679        16     1.648     0.912  32.88   0
        50    749.2098    936.1071 307.5946624  +6.3093859     651.8783     1469.443     1584.146     77.61554     155.2311     310.9268      2.136     6.30     847.4954     54.83862     107.6595        10     1.664     0.671  27.14   0
        51    887.4365    932.3949 307.5373852  +6.3155442     4993.189     10044.54     10448.45       77.118      155.355     310.9268      2.081     5.99      845.739     54.83862     587.1133        45     2.020     1.167  37.15   0
        52    324.9924    927.8847 307.7711091  +6.2985496     7294.982     14283.14     15672.47     77.61554     155.2931     310.9577      2.075     5.78     850.2507     54.83862     868.3881        49     1.975     1.160  39.30   0
        53    245.0930    926.7249 307.8043278  +6.2963414     5362.659     10691.34     12478.67     77.86312     155.7262     311.1124      2.139     5.83     848.9191     54.83862     665.4771        45     1.960     1.165  38.57   0
        54    572.8517    921.4474 307.6684000  +6.3095317     849.0346     1494.563      1529.49     78.10992     155.4789     311.1433      1.928     5.67     849.8457     54.83862     128.6662        11     1.590     0.571  41.66   0
        55    903.4838    919.4714 307.5311603  +6.3214191     577.8547     810.5751     1399.911     78.23302     155.9115     311.1433      1.897     3.55     844.9972     54.83862     98.18048         5     0.773     0.471 -14.50   3
        56    901.9549    916.3174 307.5319025  +6.3226709     719.1136     982.9558      1462.77     77.98661     155.6026     311.1124      1.527     5.60     845.0051     54.83862     96.29962        10     1.186     0.745  37.48   2
        57    423.2346    929.5247 307.7302564  +6.3011735     1639.606     3321.896     3412.497     77.86312     155.6644     311.0815      2.081     7.23     850.5789     54.83862     190.6061        27     1.907     1.027  41.87   0
        58    971.4109    914.1920 307.5031299  +6.3258700     538.0768     831.0168     1155.134     77.61554     155.4169     311.0505      1.928     3.75     843.2958     54.83862     71.95117         5     1.049     0.385  -4.77   0
        59    739.5793    910.3477 307.5995389  +6.3197042     1185.684     2313.867     2754.284     77.49146     155.6026     310.9268      2.052     7.15     847.2244     54.83862     144.3068        20     1.694     0.847  35.16   0
        60    971.4293    907.4451 307.5033515  +6.3286577     829.0759     1914.785     3936.728     77.61554     155.6644     310.9886      4.078     4.59     843.1507     54.83862     143.9548        10     1.182     0.864  35.33   2
        61    603.8382    907.7672 307.6559985  +6.3162218     547.2289     1109.548     1022.895     77.61554     155.4169     310.8958      2.301     5.98      849.421     54.83862     109.9011         8     1.687     0.595  26.64   0
        62    524.9321    906.7651 307.6888010  +6.3139891     862.1476      1456.09     1779.407     77.86312     155.6644     311.2052      1.778     4.38     849.6766     54.83862     129.4593         7     1.178     0.463  48.45   0
        63    657.9778    903.8313 307.6336492  +6.3196624      2009.05     3700.686     4804.423     77.49146     155.4169     310.9268      2.094     6.91     848.4083     54.83862     237.0237        22     1.741     0.857  40.95   0
        64   1009.3430    902.6954 307.4877672  +6.3318861     528.3242     940.1455       667.27     77.86312     155.6026     311.3289      1.346     4.22      842.143     54.83862      81.5564         6     1.508     0.337  45.94   0
        65    819.2341    900.7781 307.5667846  +6.3263233     672.6392     1278.848     1133.977     77.49146     155.4169     310.8648      1.895     6.44     846.4846     54.83862     114.4879        11     1.413     1.112  45.21   0
        66     54.7556    899.9418 307.8842841  +6.3009942     2064.739       4512.2     5271.438     77.86312     155.5407     311.2052      2.412     7.32     845.0529     54.83862     277.9818        28     1.936     1.015  44.39   0
        67     72.2596    899.0273 307.8770468  +6.3019619     1416.929     2878.161     3292.392     77.61554     155.6644     311.0196      2.204     6.78     845.5851     54.83862     211.1862        25     1.902     1.046  41.88   0
        68    936.3834    899.4873 307.5181765  +6.3307739     569.6849     1073.416     1447.994     77.73943      155.355     310.9886      2.060     4.29      843.902     54.83862     99.79065         5     1.331     0.395  54.55   0
        69    198.0540    898.8924 307.8248140  +6.3062549     1603.498     3291.006     3423.607     77.86312     155.5407      311.267      2.104     6.58     847.9244     54.83862        204.6        24     1.702     0.999  40.94   0
        70    338.0306    896.0000 307.7667849  +6.3121585      698.121     1466.521     2228.562     77.24268      155.355     310.8958      2.165     4.17     849.4325     54.83862     98.34601         5     1.121     0.443 -21.12   2
        71    231.8970    895.7570 307.8108674  +6.3086891     553.1948      729.605      651.684     77.98661     155.5407     311.2979      1.453     4.78     848.5643     54.83862     110.5959         6     1.540     0.420  38.71   0
        72    652.7415    893.0304 307.6361919  +6.3239485     5135.875     9896.434     10928.55     77.73943     155.6026     311.0505      2.095     5.76     848.2792     54.83862     604.6318        43     1.999     1.101  41.51   0
        73    890.3732    889.3636 307.5376288  +6.3334178     2086.552      4126.49     4310.119     77.49146     155.4169     310.9268      2.086     6.49     845.0782     54.83862     231.4034        30     1.852     1.084  45.13   0
        74     14.0233    892.2101 307.9014635  +6.3028145     733.2971     1047.014     1048.188     77.61554     155.4169     310.9886      1.531     4.55     843.7627     54.83862     102.7177         7     0.797     0.738  66.38   3
        75     11.4261    890.0104 307.9026175  +6.3036355     804.6201     1061.589     1162.358     77.61554     155.4169     310.9886      1.441     3.82     843.6721     54.83862       130.85         8     0.871     0.677  33.22   3
        76     25.6954    889.7886 307.8966997  +6.3042083     921.5225     1679.722     2253.092     77.61554     155.2931     310.8648      2.190     6.88     844.1317     54.83862     116.0139        15     1.476     0.899  27.13   0
        77    335.6849    886.1074 307.7680972  +6.3161659     12097.82     24116.57     27320.57     77.73943     156.0349     311.2052      2.139     6.00     849.1273     54.83862     1494.677        57     2.042     1.189  39.64   0
        78     70.5271    887.1944 307.8781719  +6.3067913     1021.845     1688.135     1571.851     77.61554     155.1691     311.0196      1.822     6.44     845.4962     54.83862     129.9452        15     1.583     0.736  34.36   0
        79    206.7835    885.9449 307.8216322  +6.3118969     826.7982      1610.08     1987.289     77.49146     155.5407     310.8648      2.118     6.46     848.0516     54.83862     160.7023        12     1.605     0.902  33.32   0
        80    100.0112    877.3228 307.8662666  +6.3118625     1152.271     2046.648     2010.953     77.61554     155.2311     310.9577      1.892     4.79      846.242     54.83862     181.3456        14     1.357     0.760  38.67   2
        81    413.6143    877.3035 307.7360355  +6.3224214     637.9375     1189.075     1364.092     77.73943      155.355     310.8958      1.997     5.46     848.9897     54.83862     95.09662         8     1.513     0.556  37.37   0
        82    494.5157    874.1656 307.7025452  +6.3264342     537.1878     1270.881      1426.08     77.98662     155.4789     311.0815      2.370     4.93     848.8755     54.83862     82.92523         6     1.724     0.400  17.97   0
        83    880.7527    871.0630 307.5422466  +6.3406557     1550.108     2831.223      2572.25     77.86312     155.4789     311.1743      1.900     6.99     845.0465     54.83862     204.3029        19     1.498     0.913  40.57   0
        84    851.3262    870.4353 307.5544890  +6.3399309     1378.769     2856.392     2416.997     77.86312     155.6644     311.0815      2.120     7.53     845.5634     54.83862      205.312        22     1.887     0.841  37.34   0
        85    814.8477    869.9054 307.5696569  +6.3389294     2243.421     4239.292      5317.53     77.86312     155.4789     311.2361      2.041     6.28     846.0904     54.83862     281.6867        25     1.740     0.941  40.98   0
        86     82.4370    870.1265 307.8738112  +6.3142427     1782.946     3587.253     4110.408     77.86312     155.6644     311.1433      2.076     6.51     845.7308     54.83862     215.9044        25     1.718     1.045  33.51   0
        87    550.7979    861.3343 307.6796095  +6.3336232       249042       488366     541513.8     77.36717     155.2311     310.8958      2.079     5.72     848.4363     54.83862     29416.94       206     2.225     1.432  40.21   0
        88    638.7747    864.7733 307.6429555  +6.3351528     867.1473     1672.498     1360.296     77.49146     155.4169     310.9886      2.036     5.58     847.9852     54.83862     117.1797        12     1.595     0.550  43.00   0
        89    395.1334    863.9732 307.7441658  +6.3273069     5771.375      11495.4     12660.08     77.61554     155.4789     311.0196      2.112     6.20     848.5411     54.83862     728.6276        46     2.004     1.124  36.52   0
        90    338.2616    862.3493 307.7678395  +6.3260663     9698.146     18863.29      20710.8     77.98662     155.5407     311.1124      2.064     5.80     848.4768     54.83862     1167.313        49     1.952     1.170  39.33   0
        91    889.0434    857.5417 307.5392632  +6.3465184     3982.385     8136.423      9211.84     77.86312     155.5407     311.1743      2.169     6.42       844.62     54.83862     464.5497        43     2.034     1.263  34.55   0
        92    656.6936    858.6497 307.6357224  +6.3382829      2671.83     4763.407      4954.87     77.86312     155.4789     311.2361      1.865     6.40     847.4037     54.83862     360.8519        25     1.680     0.897  42.21   0
        93   1022.1884    851.6109 307.4841674  +6.3534172     3318.154     5886.814     6044.249     77.73943      142.968     256.7853      1.904     5.70     839.7351     54.83862     377.5688        28     1.780     0.946  50.28  24
        94    622.0395    851.5130 307.6503577  +6.3400693     777.5196     1612.706     2252.355     77.98661     155.5407     311.1433      2.370     6.24     847.6731     54.83862     110.1711         9     1.253     0.874  73.60   3
        95    631.5346    852.8395 307.6463691  +6.3398397     2683.503     5102.057     5731.461     77.98662     155.5407     311.2052      2.164     6.77     847.5649     54.83862     318.2815        30     1.998     0.962  41.94   3
        96    624.5305    847.2481 307.6494686  +6.3419145      1666.22      3516.18     4605.033     77.98662     155.5407     311.1433      2.402     7.37     847.3845     54.83862     199.6623        29     2.109     0.968  40.91   3
        97    819.7405    851.7336 307.5682432  +6.3465996     1196.163     2492.802     2617.618     78.10992     155.5407     311.1124      2.061     7.14     845.6328     54.83862     146.6573        21     1.874     0.806  39.09   0
        98    947.4033    851.2056 307.5152409  +6.3510865     665.0858     1094.672     1097.859     77.36717     155.2931     310.9577      1.838     3.43     842.7609     54.83862     100.3038         5     0.782     0.436  69.67   0
        99    907.8854    845.4011 307.5318507  +6.3521634     2450.335     4705.304     5184.903     77.24268     155.1691     310.8029      2.045     5.86     843.7911     54.83862     279.2902        32     2.034     0.996  44.33   0
       100    318.2495    846.2323 307.7767014  +6.3320509     789.9891     1315.295     1475.712     77.73943     155.6026     311.0505      1.914     7.10     848.3959     54.83862      122.407        12     1.655     0.853  57.13   0
       101    366.0304    841.1308 307.7570327  +6.3357644     1892.191     3659.732     3953.419     77.86312     155.6026     311.0815      2.020     6.51     848.1733     54.83862     245.5582        26     1.776     0.974  37.47   0
       102    502.3286    830.9991 307.7007742  +6.3445274     2138.706      4475.26     5548.152     77.36717     155.1691     310.9268      2.335     6.40     847.1706     54.83862     278.8237        30     1.975     0.997  38.79   0
       103    847.3762    830.4501 307.5574899  +6.3563160     790.0955     1100.798     1631.917     77.61554     155.6644     311.0196      1.677     5.95     844.8011     54.83862     118.5887        11     1.257     0.793  30.74   0
       104    567.6429    828.4435 307.6737358  +6.3477746      483.807     1119.122     1317.238     77.73943     155.6026     310.9886      2.141     4.77      846.692     54.83862     82.96246         8     1.916     0.336  35.63   0
       105    549.3618    827.2534 307.6813688  +6.3476529     4583.433     8829.513     9960.505     77.86312     155.6644     311.1124      2.040     6.22     846.6855     54.83862      592.722        38     1.891     1.061  40.89   2
       106    556.1337    826.2143 307.6785918  +6.3483094     872.2322     1904.342     2237.153     77.49146     155.4789     311.0505      2.338     8.50     846.6169     54.83862     126.8665        19     1.709     1.180  35.51   3
       107    467.1719    826.3051 307.7155352  +6.3452862     1118.034     2089.818     2109.632     78.10992      155.355     311.0505      1.920     7.45      847.102     54.83862     167.8962        19     1.767     0.879  46.98   0
       108    108.7934    825.3844 307.8643995  +6.3336121     1018.293     1913.521      2057.01     77.61554      155.355     310.9577      2.069     7.23     845.2452     54.83862     132.5705        18     1.756     0.833  42.80   0
       109    884.9662    825.3631 307.5420509  +6.3596745      1042.49     2053.989     2179.965     77.73943      155.355     310.8958      2.089     6.89     843.8672     54.83862     161.4195        17     1.667     0.799  46.11   0
       110    685.3008    824.5003 307.6250054  +6.3533478      558.665     753.5732     340.6172     77.98662     155.9732     310.9577      1.699     5.56     845.9861     54.83862     83.78583         6     1.410     0.618  39.53   0
       111    519.9530    821.0298 307.6937949  +6.3492370     14558.16     28530.29     31234.84     77.61554     155.6644     311.0196      2.085     6.16     846.5892     54.83862     1843.572        62     2.052     1.177  40.17   0
       112    933.6649    819.3879 307.5220282  +6.3637707     2846.136     5623.324     5923.508     77.49146     155.4169     310.9886      2.044     6.13     842.0443     54.83862     357.2307        32     1.876     1.033  37.35   0
       113     31.3946    812.2396 307.8969925  +6.3364327     917.0342     1703.225     1561.752     77.24269     155.2931     310.8339      2.051     6.02     844.0849     54.83862        143.2        10     1.237     0.825  -6.42   2
       114     28.6910    810.2980 307.8981818  +6.3371436     861.1871     1295.323     1556.369     77.98662     156.0349     311.0815      1.565     3.62     844.0633     54.83862     135.0696         8     0.896     0.650  10.73   3
       115    312.5885    809.8912 307.7802952  +6.3468718      2405.45     4735.862     4873.569     77.73943     155.2931     310.9268      2.021     5.99     848.1039     54.83862     286.2418        31     1.901     1.011  42.43   0
       116    778.0920    805.6078 307.5871107  +6.3642594     41462.35      79677.1     88633.18     77.61554     155.2931     310.9268      2.068     5.79     845.0165     54.83862     4787.341        88     2.111     1.256  38.65   0
       117     12.5632    807.9931 307.9049585  +6.3375517     1526.672      3030.99     3479.437     77.24268      155.355     310.8958      1.983     6.29     843.9506     54.83862      229.287        24     1.706     0.957  43.00   0
       118    234.8364    781.9312 307.8135427  +6.3558055     760767.3      2044954      2445144     77.86312     155.6644     311.2052      2.634     9.58      846.851     54.83862     63782.99       654     2.931     2.206  55.05   4
       119    701.2607    797.3655 307.6193016  +6.3650913     61176.82     124121.7     169686.9     77.98662     155.6026     311.0815      2.716    10.23     845.1737     54.83862     7882.295       159     3.532     1.353  31.81   0
       120    903.3370    800.8708 307.5352539  +6.3704060     6369.893     12588.79     13851.72     77.98661     155.6026     311.1433      2.115     6.02     842.5486     54.83862     759.5928        44     1.989     1.104  41.16   3
       121    900.3029    792.3506 307.5368038  +6.3738241     5090.657      10094.1     11453.23     77.86312     155.5407      311.267      2.112     5.88     842.4485     54.83862     621.6774        46     2.034     1.169  38.79   3
       122    344.9242    797.5577 307.7672878  +6.3530537      15256.8     29966.57     32927.61     77.86312     155.6026     311.1433      2.079     5.95     847.8882     54.83862     1710.288        58     1.987     1.199  38.94   0
       123    393.7794    797.6421 307.7469949  +6.3546608     1017.012     2244.732     2240.162     77.49146     155.4169     310.9577      2.130     6.93      846.686     54.83862     140.5789        16     1.873     0.719  40.63   0
       124    406.7960    795.3926 307.7416659  +6.3560273        16204     32386.88     35978.71     77.36717     155.2931     310.9886      2.100     5.82     846.1981     54.83862     1897.169        63     2.044     1.225  37.58   0
       125    633.8010    797.1786 307.6473257  +6.3629078     549.4929     1003.897     1266.933     77.61554     155.2931     310.8339      1.640     3.45     845.0604     54.83862       73.849         5     1.003     0.342  43.72   0
       126    944.0608    794.6516 307.5185514  +6.3743363     1533.324     3077.867     3427.574     77.98661     155.5407     311.1124      2.160     7.37     840.9061     54.83862     208.4819        21     1.733     0.877  43.60   0
       127    874.2058    794.3422 307.5475751  +6.3721288     515.5174     599.7062     589.6777     77.49146     155.4789     310.8339      1.206     2.81     843.4609     54.83862      94.6557         5     0.726     0.449  15.44   0
       128    640.8234    791.3265 307.6446086  +6.3655606     4747.652     9389.326     10557.43     77.61554     155.4169     311.0505      2.107     6.36     844.9101     54.83862      578.213        43     1.961     1.067  38.42   0
       129    429.4344    789.2634 307.7324733  +6.3593197     1127.101      2131.71      2599.67     77.86312     155.6644     311.1124      2.074     6.84     845.7036     54.83862     166.3217        18     1.681     0.780  41.78   0
       130    594.4606    783.5275 307.6641302  +6.3672278     567.3229     1270.476      1322.35     78.10992     155.6026     311.1433      2.310     6.88     844.8004     54.83862     90.98218        10     2.241     0.593  42.19   0
       131    868.5991    783.3898 307.5502764  +6.3764656     488.0716     723.2323     1162.915     77.61554     155.2931     310.9268      1.472     3.35     843.2656     54.83862     93.32233         5     1.122     0.289  68.59   0
       132    675.8754    781.5097 307.6303851  +6.3707905     1792.699     3599.687     4036.427     77.98661     155.8498     311.1433      2.136     6.27      844.642     54.83862     208.5921        27     1.776     1.001  38.01   0
       133    145.0723    782.0838 307.8508168  +6.3527201     848.4072     1753.023     1463.849     78.10992     155.9115     311.1433      2.134     6.65     845.1202     54.83862     111.4501        13     1.645     0.754  31.19   0
       134    120.2591    781.9188 307.8611274  +6.3519524     701.2158     1343.292     857.5665     78.10992     155.6644     311.1124      1.896     5.86     844.5604     54.83862     110.2269         9     1.759     0.549  46.42   0
       135    409.7307    778.0509 307.7410396  +6.3632893     39409.22     78543.11      86896.1     77.86312     155.4789     311.1124      2.107     6.16      845.517     54.83862     4726.104        89     2.100     1.302  38.82   0
       136    527.4673    777.1003 307.6921736  +6.3676353     5385.736     10302.36     11262.61     77.98661     155.7262     311.0815      2.055     5.69     844.7918     54.83862      631.525        43     1.978     1.087  35.86   0
       137    444.2705    775.8186 307.7267708  +6.3653716     3358.042     6617.937     7666.018     77.61554     155.4789     311.0505      2.124     6.39     845.2435     54.83862     384.1624        38     2.094     1.039  42.26   2
       138    440.8159    768.9691 307.7284396  +6.3680850     1691.608     3341.775     3722.179     77.61554      155.355     311.0505      2.215     6.76     845.0045     54.83862     235.0769        20     1.757     0.864  35.26   3
       139    772.6406    773.7213 307.5904606  +6.3772486     8744.847     16785.22     17901.96     77.86312     155.6026     311.1433      2.021     5.73     843.9624     54.83862     1010.681        46     1.979     1.080  38.13   0
       140      2.5107    770.2119 307.9104292  +6.3528185      901.624       1594.7      1592.86     77.73943     139.2858     252.3244      1.873     6.41     843.6757     54.83862      111.107        13     1.335     0.863  43.61  24
       141    794.7142    768.0107 307.5814870  +6.3803464      1006.73     2091.821      2383.26     77.61554      155.355     310.9577      2.109     6.92     843.3005     54.83862     119.9093        17     1.432     0.936  37.41   0
       142    122.7222    756.5259 307.8609746  +6.3625242     1443.509     3050.648     3528.877     78.23302     155.8498     311.1433      2.303     7.00     844.0692     54.83862     159.6249        25     1.775     1.059  40.68   3
       143    138.5705    765.9623 307.8540693  +6.3591603      2286.54     4754.367     5371.371     77.61554      155.355     310.9886      2.281     6.37     844.5497     54.83862     256.8802        33     2.003     1.057  33.70   3
       144    130.4259    765.6426 307.8574628  +6.3590180     8379.719     16869.47     19037.33     77.61554     155.6026     310.9577      2.130     6.05     844.3925     54.83862     929.5574        53     2.034     1.203  38.20   3
       145    122.6395    763.1550 307.8607818  +6.3597832     2263.024     4711.097     5197.112     77.73943     155.6026     311.0196      2.177     7.02     844.2031     54.83862     272.1026        29     1.946     0.999  41.07   3
       146    918.1192    762.3784 307.5304232  +6.3868008     4923.039     9676.838      11062.9     77.73943     155.2931     311.0505      2.157     5.55     841.2463     54.83862     607.8365        45     2.040     1.146  41.38   2
       147    912.5026    754.2421 307.5330327  +6.3899740     2346.649     4327.702     4802.922     77.98662     155.4789     311.3289      2.044     5.51     841.2189     54.83862     282.8507        29     1.819     1.017  37.83   3
       148    966.9160    761.7377 307.5101773  +6.3886962     1008.134      2043.22     2919.955     78.10992     155.6644     311.0815      2.152     6.42     839.7747     54.83862     142.9339        16     1.754     0.862  47.10   0
       149    673.6973    759.8889 307.6320267  +6.3796486     1271.722     2482.182     3233.112     77.98661     156.0349     311.1433      2.298     6.67     844.0242     54.83862     164.1093        17     1.675     0.745  37.03   0
       150    560.4645    759.3154 307.6790758  +6.3760889     1711.595     3408.695      3732.58     78.10992     155.7262     311.1743      2.080     6.36     844.1071     54.83862     186.6331        25     1.792     0.948  41.15   0
       151    409.4080    759.6888 307.7418011  +6.3708633     840.7291     1802.713     2112.627     77.49146     155.2931     310.8648      2.294     5.70     844.9081     54.83862     135.0299        10     1.216     0.785 -17.79   2
       152    942.0539    753.9233 307.5207694  +6.3910934     2279.058     4472.021     4857.881     78.10992     155.6026     311.1124      2.117     5.64      840.449     54.83862     280.4011        31     1.886     1.000  36.06   0
       153    664.8763    753.6310 307.6359037  +6.3819380     1169.151     2271.303      2482.99     77.86312     155.6644     311.0815      2.149     7.15     843.8913     54.83862     190.8492        16     1.678     0.855  50.25   0
       154    972.5032    753.5499 307.5081349  +6.3922651     1496.019     2713.126     2911.075     77.86312     155.5407      311.267      1.961     6.90     839.5173     54.83862     177.4998        18     1.588     0.841  36.91   0
       155    237.6416    748.6423 307.8135171  +6.3696504     1530.434     3224.808     4376.458     77.73943     155.6026     310.9886      2.467     6.36     845.5281     54.83862     197.6385        24     1.730     0.951  35.32   0
       156    153.4106    744.1111 307.8486548  +6.3686861     561.1222     863.0849     506.0019     77.73943      155.355     310.9268      1.838     5.55     844.0995     54.83862      109.465         6     1.504     0.612  51.19   0
       157    930.0351    743.7928 307.5261059  +6.3948765     812.7255     1482.995     1454.707     77.49146     155.4169     310.8958      2.082     5.78     840.6654     54.83862     105.8878        12     1.574     0.598  34.59   0
       158    903.9578    742.6978 307.5369744  +6.3944570     838.6117     1523.063     1508.399     77.98661     155.4789     311.3289      2.092     7.17     841.1802     54.83862     123.2665        14     1.628     0.884  39.88   0
       159    956.7995    741.7109 307.5150599  +6.3966309     1657.358     3185.356     3919.114     77.24268      155.107     310.8029      1.997     6.85     839.8671     54.83862     228.7916        22     1.788     0.814  41.18   0
       160    676.2507    740.8137 307.6316164  +6.3876137     788.8245     1515.929     2033.254     77.36717     155.6026     310.8648      1.891     6.82     843.5023     54.83862     121.1687        11     1.708     0.763  52.56   0
       161    998.7800    735.2984 307.4978410  +6.4006823     1246.668     2411.707     2308.454     77.86312     155.4169     310.8648      2.106     8.37     838.6024     54.83862     196.1285        25     2.223     0.881  38.16   0
       162    799.8015    733.3160 307.5805552  +6.3948484     761.8038     1619.856     1568.792     77.24268     155.1691     310.8339      2.147     6.75     841.8263     54.83862     117.6457        13     1.682     0.761  47.99   0
       163    886.2980    731.0282 307.5447064  +6.3986871     1208.525     2184.237     2411.394     78.10991      155.355     311.0815      2.250     6.25     841.1949     54.83862     154.1818        17     1.720     0.757  43.71   0
       164    860.1564    725.6340 307.5557479  +6.4000410     680.1619     1333.485     1362.006     77.73943     155.6026     310.9268      2.120     7.29     841.5568     54.83862     98.09656        11     2.030     0.733  50.29   0
       165    843.1020    722.1426 307.5629504  +6.4009128     1178.391     2478.531      2571.04     77.73943     155.6026     311.2979      2.027     6.36     841.5161     54.83862      170.591        23     1.770     0.988  35.95   0
       166     42.2146    720.9149 307.8956311  +6.3745201     1693.322     3658.159     3748.125     77.61554      155.355     310.9886      2.157     7.96     843.2793     54.83862     218.8848        25     1.890     0.949  37.62   0
       167    105.4260    719.9449 307.8694117  +6.3770516     754.6352     1489.837     1697.467     77.61554     155.6026     310.9577      2.142     3.99     843.1084     54.83862     127.5309         6     0.996     0.457 -77.68   0
       168    654.7757    709.5532 307.6416016  +6.3998070     4630.918     9267.344     9867.819     77.61554     155.6026     310.9886      2.107     5.90     842.7886     54.83862     580.1388        39     1.952     1.117  37.77   0
       169    601.6089    708.8994 307.6637069  +6.3982946      1092.76     2208.556     2572.552     77.73943     155.2311     310.9268      2.017     6.30     843.2446     54.83862     163.2456        13     1.625     0.687  34.67   0
       170    522.8011    709.1702 307.6964304  +6.3955389     489.4216     899.1238     940.4765     77.36717     155.4169     310.9268      1.664     5.46     843.3208     54.83862     99.50708         7     1.754     0.479  43.70   0
       171    991.9924    705.1844 307.5016835  +6.4128952     1983.884     3870.937     4128.088     77.61554      155.355     310.9577      2.081     6.42     838.0969     54.83862      241.867        24     1.771     0.923  32.66   0
       172    628.6506    705.3957 307.6525945  +6.4006486     1540.632     2876.162     3354.948     77.36717      155.355       310.71      2.089     6.91     842.9477     54.83862     178.4543        20     1.645     0.817  44.14   0
       173    117.7642    705.4218 307.8647851  +6.3834663     2758.273     5629.833     5891.415     77.49146      155.355     310.8648      2.116     5.92     842.8376     54.83862     317.7878        35     1.896     1.165  42.59   0
       174    771.6843    701.7860 307.5933074  +6.4069316     15119.62     29170.06      32633.6     77.61554     155.4169     310.9577      2.056     5.99     841.7684     54.83862     1806.343        64     2.028     1.225  41.80   0
       175    901.8378    701.5127 307.5392556  +6.4113990     2760.052     5235.271     5574.125     77.98662     155.5407     311.1124      2.008     5.96     839.7896     54.83862      308.913        32     1.862     1.019  42.33   0
       176    471.0244    702.0757 307.7181779  +6.3967313      1006.08     1874.074     1476.573     77.61554     155.4789     311.0815      1.864     6.84     843.4352     54.83862     123.2693        16     1.593     0.824  33.18   0
       177    499.2177    701.7672 307.7064785  +6.3978053      773.778     1591.944     1845.334     77.61554     155.4169     310.9886      2.132     6.05     843.3632     54.83862     115.7792        11     1.595     0.645  33.19   0
       178    317.4656    702.1205 307.7819559  +6.3915525     604.1522     926.7148     740.7391     78.23302     155.7262     311.0815      1.611     4.59      843.507     54.83862      95.7547         5     0.857     0.699 -48.47   0
       179    245.1709    695.2498 307.8122177  +6.3919584     4498.508      8986.93     9902.136     77.61554     155.7262     311.0196      2.099     6.34      843.076     54.83862     540.2178        39     1.940     1.068  41.44   0
       180    652.1734    694.5072 307.6431955  +6.4059349     5197.082     10283.12      11397.5     78.10992      155.355     310.9577      2.095     6.12      842.434     54.83862     604.0112        40     1.927     1.092  38.86   0
       181    634.9727    695.6196 307.6503020  +6.4048988     640.6808      1479.71     1815.759     77.61554     155.4169     311.0196      2.352     5.95     842.6731     54.83862     103.9992         9     1.439     0.692  36.08   0
       182    912.0740    687.4496 307.5354821  +6.4175504     925.7561     1834.633     1854.635     77.98661     155.6644     311.1433      2.143     7.49     838.8026     54.83862     133.8521        17     1.789     0.877  42.79   0
       183    724.0621    682.9133 307.6137308  +6.4131329     2735.432     5640.303     6602.835     77.98661      155.788     311.1124      2.128     5.97     841.8367     54.83862     335.1384        33     1.920     1.043  46.25   0
       184    680.1003    684.2285 307.6319461  +6.4111168     728.6157      1239.52     1702.111     77.98661      155.355     311.0505      1.659     4.95     841.8508     54.83862     103.9459         8     1.349     0.515  36.28   0
       185    928.6704    680.0977 307.5288384  +6.4211422     1838.922     3357.236      3805.88     77.86312      155.788     311.1433      1.981     7.59       837.71     54.83862     213.5096        27     1.924     0.964  41.78   0
       186    990.2045    679.5786 307.5032963  +6.4234129     6694.792     13149.66     14406.72     77.61554      155.355     310.9268      2.087     6.16     837.5242     54.83862     759.0781        47     2.027     1.112  39.60   0
       187      9.3798    679.2601 307.9106969  +6.3906186     1366.731     2910.036     3526.641     77.61554     155.4789     310.9886      2.197     7.94     843.3928     54.83862      155.211        24     1.777     0.992  35.43  16
       188     67.5628    674.2817 307.8867027  +6.3946371     18718.24     37366.48     41484.13     77.98662     155.6644     311.0815      2.115     6.23     842.5541     54.83862     2176.264        70     2.103     1.258  40.71   0
       189    528.8488    675.1501 307.6950798  +6.4097946     1535.842     2929.757     2822.652     77.98661     155.4789     311.0505      1.888     6.07     843.0662     54.83862     190.4636        22     1.818     0.840  37.20   0
       190    497.7844    672.6469 307.7080682  +6.4097860     987.6412     2003.799     1982.418     77.49146     155.4789     310.8648      1.983     6.84     843.1121     54.83862     141.1144        14     1.782     0.735  38.66   0
       191    919.3127    671.8581 307.5330056  +6.4242330     798.4261      1415.25     1289.583     77.98661     155.6026     311.2361      1.976     4.31     837.8467     54.83862      130.324        10     1.147     0.666  59.24   0
       192    539.3263    670.1201 307.6908996  +6.4122240     594.4211     1365.228     1715.013     78.23302     155.8498     311.1743      2.196     3.52     842.8763     54.83862     121.0285         6     0.977     0.426 -77.11   0
       193    713.5038    666.5876 307.6186726  +6.4195230     2822.729     5161.074     5828.944     77.86312      155.355     310.8958      1.993     5.87     841.3809     54.83862     331.9192        25     1.730     0.884  46.85   0
       194    735.6392    664.9110 307.6095354  +6.4209570     3049.515     5975.182     6639.478     77.98661     155.5407     311.1433      2.063     6.01     841.3314     54.83862     352.0524        31     1.906     0.941  38.34   0
       195    567.2899    662.7954 307.6795346  +6.4161879     2393.431     4669.027     5330.888     77.49146     155.2931     310.8648      2.061     6.21     842.3474     54.83862     335.6899        28     1.958     0.904  41.36   0
       196    403.1851    663.6171 307.7476692  +6.4103387     935.2458      2076.96     2160.205     77.73943     155.2931     311.0505      2.206     8.05     842.5961     54.83862     147.5243        18     1.758     1.030  49.26   0
       197    311.2959    661.8348 307.7858966  +6.4079857     1177.026     2473.637     2817.033     78.10992     155.4789      311.267      2.175     6.91     841.7433     54.83862     151.6488        20     1.618     1.052  47.70   0
       198    227.9677    662.2983 307.8204910  +6.4049906     1232.618     2415.274     2950.877     77.98661     155.4789     311.2361      2.209     6.79     841.6795     54.83862     158.6333        18     1.633     0.791  43.92   0
       199   1008.5366    661.0594 307.4963108  +6.4316751     3573.614     7238.915     8099.766     77.98661     155.5407     311.1433      2.169     6.67     836.8279     54.83862     422.2921        38     2.046     1.047  43.15   0
       200    973.9746    659.9396 307.5107053  +6.4309831     5909.236     11600.45     13242.92     77.61554     155.6026     310.9886      2.121     6.32     836.9868     54.83862     803.5441        42     1.996     1.087  41.43   0
       201    692.9343    658.0082 307.6275091  +6.4223778     701.6828      1460.77     1789.684     77.49146      155.355     310.9886      2.353     6.19     841.1583     54.83862     96.37891         8     1.327     0.811  33.48   2
       202     86.4224    657.7064 307.8794380  +6.4021194      677.811     1237.476     1273.607     77.98662     155.4169     310.9577      2.022     4.29     841.9775     54.83862      111.498         7     1.246     0.420  55.47   2
       203    132.4128    653.2078 307.8604905  +6.4055275     17688.09     35119.81     38463.63     77.61554     155.4169     311.0196      2.118     6.01     841.6488     54.83862     2107.839        68     2.068     1.270  38.34   0
       204    419.3210    654.1749 307.7412897  +6.4147811     2129.807     4306.614     4962.777     77.73943     155.4789     311.1124      2.212     6.74     842.3785     54.83862     246.3057        27     1.898     0.897  44.10   0
       205    800.5312    654.0231 307.5829517  +6.4276272      784.777     1408.762     1329.045     77.61554     155.5407     311.0815      1.851     5.75     840.4292     54.83862      123.444         9     1.539     0.605  42.88   0
       206    968.8752    643.0067 307.5133991  +6.4378075     5263.667     10905.26     12233.28     77.61554      155.107     310.9886      2.244     6.14     836.5707     54.83862     640.4715        51     2.157     1.184  41.09   0
       207   1022.8403    637.4719 307.4911707  +6.4418964      54323.4     79615.46     83826.33     76.11317     135.2192     247.0831      1.601     5.03     835.5468     54.83862     7494.227        62     1.759     1.029  71.29  24
       208     13.4044    641.8663 307.9103084  +6.4062001     738.7684     1572.027     1272.372     77.36717      155.355     310.9268      2.223     7.21     842.6899     54.83862     95.40839        12     1.806     0.807  53.44   0
       209    562.3411    638.0936 307.6824332  +6.4262256     35019.39     69140.04     76241.61     77.86312     155.6026     311.2361      2.097     6.09     841.0722     54.83862     4263.625        83     2.089     1.259  39.21   0
       210    521.4277    638.6763 307.6994075  +6.4246120     618.8679     1142.533     965.7275     77.86312     155.6026     311.0815      2.069     6.01     841.4597     54.83862     114.2766         9     1.658     0.612  62.38   0
       211    169.9881    634.7351 307.8455168  +6.4144237     2103.557     4101.829     4218.789     77.49146     155.4169     310.9577      2.008     6.17     841.1329     54.83862     258.2225        27     1.830     0.953  42.77   0
       212     62.5244    628.9847 307.8903487  +6.4131775     1039.761     1896.396     1822.691     77.49146      155.355     310.9886      2.025     6.35      841.715     54.83862     163.2426        16     1.619     0.863  45.86   0
       213    459.6299    621.9084 307.7256493  +6.4294635     45327.73     89281.71     98981.46     78.10991      155.355     311.0505      2.108     6.05     841.3042     54.83862     5207.522        95     2.122     1.314  39.80   0
       214      3.2400    623.6531 307.9151551  +6.4133803     1208.195     2318.006     2488.947     77.86312     147.6697     262.8595      2.002     7.15     842.4564     54.83862     139.7723        24     1.852     1.024  43.41  24
       215    645.4922    619.3325 307.6485340  +6.4367639     580.3787     1076.735      581.928     77.86312     155.7262     311.1433      1.890     4.59     840.1207     54.83862      90.0307         5     1.179     0.508  31.23   0
       216    133.8504    616.9944 307.8611345  +6.4205343     1253.968     2412.764     2093.079     77.49146     155.4169      310.741      2.028     6.99       840.87     54.83862     153.9444        23     1.737     0.974  34.25   0
       217    413.3216    614.8475 307.7451258  +6.4308246     675.6232     1315.974     1367.685     77.98661     155.6644     311.0505      2.024     6.11      841.035     54.83862     94.89185        10     1.578     0.664  63.20   0
       218    929.0852    614.2065 307.5309068  +6.4483745     626.7211     944.7879     804.6746     77.49146     155.2931     310.8958      1.580     6.27     836.8639     54.83862     116.1242         9     1.615     0.684  47.38   0
       219    305.0810    611.0224 307.7902165  +6.4287657     1491.244     3235.522     3461.294     77.61554     155.2931     311.0505      2.144     6.35     839.6321     54.83862     198.9344        24     1.857     0.878  36.81   0
       220    456.7244    609.9726 307.7272639  +6.4342963     662.2324     1148.159     1693.344     77.86312     155.6026     311.0815      1.921     6.90     840.8806     54.83862     89.97833        11     1.644     0.812  40.30   0
       221    731.7329    605.4612 307.6131835  +6.4453836     3867.287     7392.672     8189.884     77.98662     155.5407     311.1124      2.063     6.01     839.8352     54.83862     466.3452        33     1.854     1.004  41.19   0
       222   1003.0746    602.4391 307.5005716  +6.4557078     778.2595     1305.487     1998.223     77.86312     155.6026     311.1433      2.077     4.77     834.6002     54.83862     126.6501         8     0.903     0.716  37.22   2
       223    785.2777    600.7316 307.5911025  +6.4491302     10282.33     19749.46     21517.72     78.10992     155.7262     311.1124      2.043     6.17     839.5866     54.83862     1253.083        53     1.977     1.163  37.95   0
       224    528.5196    601.7598 307.6977221  +6.4400992     847.0582     1740.585       2693.5     77.98662     155.6026     311.0505      2.929     6.35     839.6257     54.83862     100.5798        11     1.348     0.840  15.74   2
       225    608.9943    598.8018 307.6643950  +6.4440209     2104.254     4254.105     4744.158     77.36717     155.2931     310.9268      2.106     6.57     839.2731     54.83862       277.05        31     1.972     0.996  47.43   0
       226   1023.4570    598.6326 307.4922340  +6.4579610     948.5415      1269.39     1227.332     70.05621      126.619     237.3898      1.269     4.12     834.0166     54.83862     178.8411         9     1.226     0.513  72.42  24
       227     30.3192    599.7680 307.9047273  +6.4241597     563.2133     864.4843     498.6062     77.86312     155.6026     311.0815      1.554     5.16      841.429     54.83862     78.67065         6     1.108     0.680  -3.95   0
       228    926.3287    594.7712 307.5327128  +6.4563108     855.1062     1366.813     1499.338     77.86312     155.6026     311.1124      1.768     5.18     836.4548     54.83862     111.2154        10     1.194     0.688  56.12   0
       229    221.8875    592.3008 307.8254133  +6.4336994     1022.436     1984.355     2025.876     77.98661     156.0349     311.1433      1.980     6.63     839.6006     54.83862     131.8972        15     1.606     0.768  41.68   0
       230    367.7187    592.1388 307.7648444  +6.4386722     561.5134     1074.513     1012.078     78.10992     155.6026     311.0815      2.434     5.18     840.0923     54.83862     70.84741         8     1.292     0.586  26.54   0
       231    861.3789    584.0226 307.5600589  +6.4585790      2005.73     3711.408     3861.284     77.73943     155.4169     311.0815      2.003     6.39     837.0227     54.83862     315.3834        25     1.770     0.901  41.62   0
       232    156.3205    583.8840 307.8529360  +6.4349680     688.5471      942.986     741.6744     77.86312     155.9115     311.2052      1.786     4.86      840.079     54.83862     134.8163         6     1.388     0.481  53.07   0
       233    820.0275    581.4347 307.5773245  +6.4582645      1783.15     3468.223     3809.647     77.49146      155.355     310.8958      2.050     6.52     838.1826     54.83862     209.7369        25     1.841     0.898  43.16   0
       234    791.1597    577.5324 307.5894491  +6.4589103     1884.012     3955.476      4830.25     77.86312     155.5407     311.1743      2.403     6.28     838.7012     54.83862      219.498        28     1.875     1.004  41.19   0
       235    248.1076    576.2796 307.8150708  +6.4411998     5789.782     11188.37     12706.01     77.73943     155.8498     311.1743      2.116     6.10     839.0442     54.83862     693.1356        43     2.020     1.089  38.59   0
       236    800.6205    572.6196 307.5856864  +6.4612563     116440.5     226925.8     250720.7     77.73943     155.5407     311.0505      2.068     6.10     838.4279     54.83862     13699.08       146     2.181     1.352  41.53   0
       237    182.2191    570.8381 307.8426255  +6.4412291     41403.79     84211.47     94784.41     77.61554     155.4169     310.8648      2.163     5.87     839.5325     54.83862     4834.919       100     2.146     1.383  39.94   0
       238    106.3768    566.9949 307.8742600  +6.4402614     4492.352     9088.055     10396.78     77.61554      155.355     310.9577      2.162     5.59     840.1353     54.83862     522.5356        41     1.940     1.166  38.89   0
       239    971.4597    564.5353 307.5149931  +6.4703091     1001.699     2025.656     2339.766     78.10992     155.5407     311.1433      2.218     6.49     834.6893     54.83862      148.905        15     1.849     0.639  44.85   0
       240    993.0673    564.2056 307.5060282  +6.4711672      553.904     907.8926     314.6599     77.49146     155.2311     310.9268      2.062     3.89     834.2102     54.83862     83.08881         6     0.912     0.475  36.98   0
       241    837.2072    559.9327 307.5709199  +6.4677214     3199.098     6383.138     6803.899     77.49146      155.355     310.9577      2.139     5.84     837.1176     54.83862      404.257        38     1.953     1.089  44.58   0
       242    220.0552    561.7369 307.8272211  +6.4462626     570.6174     1042.371     1831.192     78.10992     155.5407     311.1124      2.171     5.01     838.9095     54.83862     108.3176         6     1.558     0.456  50.23   0
       243    355.6424    557.9689 307.7710293  +6.4523807     12401.02     24765.95     27118.64     77.49146     155.5407     310.9577      2.114     5.88     838.8716     54.83862     1470.533        59     2.066     1.209  40.09   0
       244    157.8916    557.0433 307.8532032  +6.4461078     1513.471     3015.397     3580.758     77.98661     155.6026     311.2052      2.013     7.41      839.478     54.83862     193.8917        23     1.852     0.833  40.19   0
       245    232.7143    554.8757 307.8221977  +6.4495229      773.772     1525.142     1717.435     78.10992     155.9115     311.1743      2.402     6.83     838.6684     54.83862     127.0197        11     1.706     0.767  52.28   0
       246    791.0801    553.2048 307.5903107  +6.4689568     4300.499     8368.539     9489.812     77.61554     155.1691     310.8648      2.136     5.84     837.7582     54.83862     576.0356        37     1.937     1.075  41.74   0
       247    522.1033    552.8785 307.7020564  +6.4600755     4707.071     9408.689      9975.35     77.73943     155.8498     311.1743      2.108     6.13     837.8651     54.83862     585.2411        41     1.998     1.093  39.97   0
       248    380.2692    549.7484 307.7610807  +6.4566043     1028.246     2186.303     2568.543     77.86312     155.4789     311.0505      2.184     6.93     838.5962     54.83862     137.9626        16     1.612     0.835  35.60   0
       249    168.9252    545.9483 307.8490003  +6.4510624     4790.116     9568.159     10202.12     77.98661     155.6644     311.1124      2.101     5.97     839.1143     54.83862     601.7073        41     1.997     1.093  42.60   0
       250    807.8999    545.4644 307.5835871  +6.4727172     1124.528     2091.453     2087.529     77.98661     155.7262     311.0815      1.991     6.82        837.2     54.83862     144.4886        15     1.589     0.837  46.16   0
       251    566.9358    545.9977 307.6836678  +6.4644222     1783.894     3796.088     4394.426     77.36717      155.355     310.8958      2.240     6.06     837.6489     54.83862     244.9952        29     1.658     1.243  28.58   0
       252    264.2232    542.4694 307.8095341  +6.4557080     62676.54     125212.3     139271.4     77.61554     155.4789     311.0815      2.129     5.94     838.2928     54.83862       7419.6       106     2.140     1.359  38.56   0
       253     40.5397    544.6229 307.9023740  +6.4472825      3648.48     7299.208     7785.506     77.61554     155.5407     311.0196      2.106     5.94     839.4494     54.83862     403.4515        36     1.848     1.129  40.64   0
       254    552.3901    539.0980 307.6899457  +6.4667842     615.6748     1170.441     1768.477     77.73943     155.2311     310.9268      2.320     4.74     837.4342     54.83862      94.1944         7     0.883     0.721  15.83   2
       255    963.8605    536.5444 307.5191016  +6.4816177     1172.295     2179.357      1913.63     78.10992     155.6026     311.1433      1.924     6.90     834.1653     54.83862     160.5579        17     1.651     0.809  43.75   0
       256    787.3889    535.0123 307.5924637  +6.4763482     11932.77     23158.51     25689.86     77.73943      155.355     311.0815      2.062     5.89     837.2109     54.83862     1505.478        56     2.008     1.154  39.49   0
       257    248.1313    537.6081 307.8163850  +6.4571745     996.5723     1695.552     1700.818     77.49146      155.355     311.0196      1.747     6.57     838.1639     54.83862     137.3534        15     1.488     0.815  29.91   0
       258    491.0001    533.3461 307.7156438  +6.4670996     30315.56     62045.43     71584.81     77.24268     155.2311     310.6481      2.208     5.77     837.3788     54.83862     3452.136        98     2.231     1.431  35.39   0
       259    641.7079    532.2962 307.6530744  +6.4725897     746.0338     1365.045     1654.233     77.98662     156.0966     311.0815      2.086     5.17     837.3948     54.83862     125.7621         9     1.211     0.624  40.90   0
       260    203.6488    530.2210 307.8351154  +6.4587283      1328.23     2808.294     2815.972     77.49146     155.6644     310.9886      2.221     7.11     838.2763     54.83862     210.2672        23     1.916     0.913  38.56   0
       261     39.4972    530.3871 307.9032954  +6.4531276     894.3854      1727.74     2402.361     77.86312      155.355     310.8648      2.540     6.36     839.4053     54.83862     111.8903        13     1.495     0.761  30.53   0
       262    713.3193    527.8652 307.6234770  +6.4768200     1129.352     2126.126     2789.955     78.23302     155.7262     311.0815      2.320     6.92     837.5198     54.83862     157.0342        21     1.829     0.987  45.43   0
       263    651.0047    528.4198 307.6493446  +6.4745026     2129.408     4225.949     5086.184     77.61554     155.2931     310.9268      2.164     6.88     837.2897     54.83862     243.8378        27     1.975     0.951  32.87   0
       264    661.0563    528.2476 307.6451748  +6.4749107     956.3231      1932.02     2298.482     77.98661     155.6026     311.2052      2.105     6.83     837.2897     54.83862     120.6094        15     1.868     0.701  41.65   0
       265     69.3926    525.8030 307.8910348  +6.4560293     624.4302     1280.488     1347.387     77.36717     155.2931     310.9577      2.032     4.63      839.562     54.83862     79.26001         6     1.037     0.585  21.27   0
       266    388.5976    524.0681 307.7584992  +6.4674919     1381.052     2508.489      3068.24     77.36717     155.2311     310.9268      2.025     6.53     837.2655     54.83862     178.5524        17     1.378     0.870  51.30   0
       267    500.2674    521.6974 307.7121920  +6.4722225     1593.577      3076.07      3337.27     77.98662     155.6644     311.1124      1.930     5.88     837.1824     54.83862     175.0167        25     1.740     0.936  53.53   0
       268    320.0566    522.1565 307.7870365  +6.4659770     2689.498     5419.406     6139.808     77.86312     155.6026     311.1433      2.165     5.93      837.156     54.83862     314.8262        32     1.885     1.041  42.75   0
       269    135.3288    520.8299 307.8638165  +6.4603060     18272.07     37262.22     41665.79     77.86312     155.6026     311.1124      2.142     6.06     839.0627     54.83862     2158.371        67     2.097     1.249  38.48   0
       270    863.2600    520.9878 307.5614227  +6.4846804     1125.286     2034.466     1345.544     77.36717     155.4789     310.8339      1.827     6.04     835.8076     54.83862      159.439        14     1.492     0.749  43.70   0
       271    100.4479    518.9186 307.8783711  +6.4599199     1892.526     3839.204     3918.285     77.98661     155.6026     311.1433      2.099     5.84     839.6034     54.83862     235.4789        28     1.829     0.980  48.17   0
       272    337.3092    517.3936 307.7800327  +6.4685246     758.0199     1461.985     1710.678     77.61554     155.2931     310.8958      1.951     6.24     836.8823     54.83862     109.9676        10     1.599     0.683  39.82   0
       273    960.8468    515.5035 307.5210689  +6.4902086     3801.189     7264.104     7964.271     77.98662     155.4789      311.267      2.018     6.21     833.6603     54.83862     445.7457        34     1.946     0.954  42.37   0
       274    534.0355    507.8735 307.6986364  +6.4790663      1049.46     2226.028     2619.006     77.86312     155.6026     311.0815      2.337     6.72     836.7542     54.83862     154.3448        17     1.752     0.724  42.27   0
       275      1.6696    506.0210 307.9198444  +6.4619161     9880.468     12679.05     13327.41     71.68564     128.5799     239.4483      1.286     3.38     839.2469     54.83862     2035.678        24     1.302     0.833  88.72  24
       276    432.3354    502.0078 307.7410844  +6.4780742     30408.91     60931.63     67615.47     77.49146      155.355     310.9886      2.120     5.98     836.2781     54.83862     3737.499        83     2.100     1.305  40.45   0
       277    640.3602    501.7509 307.6546761  +6.4851621     8966.702     17235.71     19306.51     77.98662     155.6026     311.0505      2.071     6.03     836.6074     54.83862     1031.738        49     1.976     1.133  40.73   0
       278    281.0481    502.6571 307.8039080  +6.4727193     723.0065     1523.887     1563.045     77.98661     155.6026     311.2361      2.283     5.75     836.2495     54.83862     90.81732         9     1.326     0.702  69.21   2
       279    197.4790    499.5092 307.8387304  +6.4712064     14260.54     28242.06     32083.95     77.73943     155.8498     311.1743      2.145     5.89     837.5673     54.83862     1645.191        69     2.192     1.252  41.51   0
       280    163.2655    500.5634 307.8529065  +6.4696186     1255.165     2323.563     3011.309     77.86312     155.6026     311.1743      2.007     6.50     838.1655     54.83862     157.6622        20     1.564     0.965  42.25   0
       281    974.5376    500.0196 307.5159078  +6.4970622     871.3024     1780.167     1894.676     77.61554     155.6026     310.9886      2.095     6.51     832.8007     54.83862     130.9736        14     1.689     0.704  37.81   0
       282    815.0008    499.9892 307.5821858  +6.4917398     647.5001     1230.978     1231.775     77.61554     155.2931     310.9268      1.767     5.26      835.855     54.83862      100.149         9     1.264     0.619  29.39   0
       283    562.2253    498.6050 307.6872423  +6.4838409     1946.918     3966.583     4203.326     77.49146      155.355     310.9577      2.096     5.87     836.4917     54.83862     253.2974        28     1.839     0.949  38.46   0
       284    936.0767    495.7397 307.5320314  +6.4975448     3603.812     7005.109      7808.33     78.10992     155.6644     311.0815      2.106     5.81     833.9188     54.83862     465.6322        34     1.847     1.043  41.05   0
       285    609.1310    494.0956 307.6679106  +6.4872771     4819.569     9347.389     9977.089     77.86312     155.7262     311.1433      2.048     5.87     836.3973     54.83862     597.2571        40     1.982     1.037  39.17   0
       286     96.8247    494.2842 307.8807208  +6.4699733     666.8489     1426.852     1024.585     77.86312      155.355     311.0505      2.145     7.61     839.4285     54.83862     98.90393        13     1.842     0.879  52.01   0
       287    958.5956    487.9252 307.5229419  +6.5015255     2483.666     4840.958     5610.842     77.61554      155.107     311.0196      2.107     6.65     832.9759     54.83862     300.4503        28     1.858     0.957  41.48   0
       288    521.4044    485.3407 307.7046531  +6.4879501     5348.012     10378.54     11595.25     77.36717     155.4789     310.8958      2.073     6.21      836.379     54.83862     692.4598        38     1.938     1.048  39.76   0
       289    396.4542    486.0405 307.7565358  +6.4834641     560.6855     1151.401     1897.656     77.86312     155.6026     311.1124      2.837     5.92     835.1855     54.83862     69.71655         9     1.727     0.571  47.53   0
       290    367.4459    485.2340 307.7686138  +6.4828221     1862.917     3773.118     4571.122     77.61554     155.5407     311.0196      2.170     7.01     835.1308     54.83862     209.0151        24     1.761     0.930  47.27   0
       291    877.6721    481.0786 307.5567937  +6.5016482      2350.49     4606.909     5132.864     78.23302     155.8498     311.0815      2.132     6.03     834.7734     54.83862     308.4355        33     1.997     1.031  39.21   0
       292    924.9102    475.2467 307.5373674  +6.5056368     937.1205     1939.534      1889.54     77.98661     155.4789     311.2361      2.135     7.19     833.7313     54.83862     136.1949        14     1.761     0.823  44.43   0
       293    885.0228    475.3954 307.5539333  +6.5042416     1556.671     2960.437     2910.423     77.61554      155.355     310.9268      2.002     7.69      834.433     54.83862     184.9023        24     1.923     0.861  42.12   0
       294    104.8237    475.4066 307.8780454  +6.4780405     663.4439     870.9662     595.5925     77.49146     155.4169     310.9577      1.415     4.72     838.9421     54.83862     85.33759         8     0.964     0.656  84.22   2
       295    709.2251    471.5278 307.6270982  +6.4999546     2144.487     4024.117     4239.429     77.61554     155.4789     311.0196      1.942     6.07     835.7183     54.83862     255.7798        26     1.786     0.932  39.92   0
       296    380.0308    469.6111 307.7639202  +6.4896985     2627.083     5585.317     6499.394     77.49146      155.355     310.9886      2.278     6.77     834.5553     54.83862     309.8005        32     1.854     1.064  42.03   0
       297     71.0413    470.3467 307.8922521  +6.4789916     1416.965     2935.893     2868.264     77.86312     155.6644     311.1743      1.997     6.28     839.0309     54.83862     180.0444        23     1.814     0.891  37.73   0
       298    420.3241    469.9284 307.7471707  +6.4909217     895.5186     1879.894     2355.127     78.23302     155.8498     311.1124      2.666     7.18      834.625     54.83862     116.5184        18     1.645     0.878  55.05   0
       299    607.8439    466.2961 307.6693938  +6.4987172     7217.239     14143.71     16067.15     77.98661     155.5407      311.267      2.080     5.99     835.3677     54.83862     843.6052        49     1.972     1.169  36.96   0
       300    770.5836    462.8871 307.6019020  +6.5055790     12042.78     23277.86     26041.38     77.73943      155.355     310.9886      2.055     5.98     835.0175     54.83862     1432.902        57     1.986     1.201  41.54   2
       301    774.3281    458.1198 307.6005088  +6.5076736     1053.399      2395.09     3416.227     78.23302     155.8498     311.1433      2.691     7.78     834.7752     54.83862     119.2058        21     1.917     0.882  31.58   2
       302    290.1298    463.0908 307.8014897  +6.4893684     1879.851     3802.891     4316.571     77.86312      155.788     311.1124      2.123     6.08     834.3501     54.83862     253.2478        27     1.911     0.898  43.24   0
       303    799.6624    460.1397 307.5899150  +6.5076874     953.1636     1656.352     1533.981     77.98661     155.6026     311.1433      1.871     5.64     834.5399     54.83862     156.5092        15     1.579     0.800  49.72   0
       304    413.6531    462.1810 307.7502068  +6.4938977      537.309     888.1978     920.3069     77.49146     155.6026     310.9268      1.888     4.19      834.296     54.83862     82.71594         5     0.938     0.533  39.61   0
       305    373.4296    459.7399 307.7670000  +6.4935541     1137.452     2417.128     2967.472     77.73943     155.6026     311.0815      2.434     8.26     834.2311     54.83862     148.5652        23     1.759     1.083  41.39   0
       306    899.7139    459.1732 307.5483820  +6.5114340     401.0443     945.5208      648.715     78.10992      155.355     310.9886      1.782     4.36     833.5899     54.83862     79.37402         6     1.706     0.318  50.22   0
       307    955.6339    457.6866 307.5252006  +6.5139175      1410.79     2668.399     2848.018     77.98662     155.4789     311.1124      1.984     6.27     832.1459     54.83862     203.6053        21     1.676     0.840  37.92   0
       308    108.0612    454.7473 307.8774089  +6.4866831     3417.315     6662.541      7771.26     77.98661     155.5407     311.0815      2.108     5.90     838.2822     54.83862     383.8273        39     1.875     1.144  42.03   0
       309   1009.6763    452.6013 307.5029215  +6.5178238     3267.338     6253.296     6712.866     77.24269      155.045     310.9268      2.045     6.26     830.2173     54.83862     389.6647        31     1.973     0.939  37.83   0
       310    746.1830    453.9281 307.6123443  +6.5084626     1683.081     3068.335      3270.28     77.49146     155.5407     311.0196      1.918     6.43     834.9632     54.83862     238.8995        21     1.732     0.799  41.07   0
       311    265.9479    451.8668 307.8119195  +6.4931909     1039.557     2017.461     2481.236     77.86312     155.5407     311.0815      2.130     7.77     834.4572     54.83862     131.6437        18     1.888     0.895  36.91   0
       312    343.8851    449.4854 307.7796243  +6.4967965     2360.487     4797.809     4924.188     77.73943     155.7262     311.1743      2.095     5.91       833.88     54.83862     260.2997        28     1.844     1.003  39.05   0
       313    699.4033    447.2093 307.6320076  +6.5096709     1118.086     2084.599     2019.472     77.36717     155.2931     310.9577      1.914     6.84     834.6218     54.83862     142.3151        17     1.704     0.769  40.36   0
       314    232.4605    445.4949 307.8260490  +6.4946957     553.0032     985.9338     1015.374     77.86312     155.6026     311.2052      2.095     5.63     834.8269     54.83862     91.58337         9     1.915     0.466  45.25   0
       315    541.5670    440.4846 307.6978087  +6.5071556     672.0686     1227.789     1674.879     77.98662     155.4169     311.0815      2.004     6.20      834.108     54.83862     119.0641        10     1.754     0.616  35.84   0
       316    442.9635    441.1595 307.7387490  +6.5035658     519.0002     716.5037     628.4765     77.73943     155.6026     310.9886      1.674     3.92     833.8888     54.83862     70.83679         6     0.945     0.466  38.09   0
       317    826.2210    437.3687 307.5796568  +6.5179825     1200.075     2319.278     2639.909     77.49146     155.4169     310.9886      2.049     6.83     833.4869     54.83862     149.7339        18     1.602     0.815  47.94   0
       318    463.5086    438.1568 307.7303165  +6.5054963     1048.817     1901.001      1784.29     77.98662     155.6026     311.2052      1.805     6.10     833.9507     54.83862     127.0701        13     1.635     0.639  29.68   0
       319    811.8395    436.4652 307.5856624  +6.5178744     1406.146     2589.455     2657.159     77.98662     155.5407     311.2052      1.971     6.64     833.4744     54.83862     179.6144        19     1.773     0.767  37.45   0
       320    708.9376    434.4650 307.6284811  +6.5152547     10790.14     20952.12     23363.36     77.98661     155.6026     311.1433      2.107     6.02     834.1247     54.83862     1323.875        61     2.196     1.187  41.60   0
       321    629.8952    430.6770 307.6614482  +6.5141700     1871.548     3894.944     4310.904     77.73943     155.7262     311.2052      2.267     6.20     833.7628     54.83862     251.2605        33     2.010     1.267  29.88   0
       322    602.4550    425.6643 307.6730192  +6.5153204     12088.23     23798.52      31161.2     78.10992     155.5407     311.1124      2.484     7.99     833.5227     54.83862     1526.256        71     2.798     1.152  36.05   0
       323    934.4408    424.5197 307.5351335  +6.5269098     2778.736      5466.61      5337.49     77.98662     155.6026     311.0505      2.045     6.20     831.7043     54.83862     318.2009        31     1.838     1.029  42.17   0
       324    373.4590    420.3777 307.7683341  +6.5098143     20391.42     41330.23     46052.11     77.61554     155.5407     310.9886      2.145     5.97     832.9344     54.83862     2333.653        74     2.124     1.290  40.00   0
       325    889.0956    419.0131 307.5541600  +6.5276683     1120.242     2587.779     3224.968     77.73943      155.355     310.9268      2.628     8.52     832.3324     54.83862     173.9454        25     2.603     0.778  43.58   0
       326    119.6169    419.8273 307.8738059  +6.5014967     1662.648     3391.119     3887.112     77.61554      155.355     311.0196      2.152     6.59     836.9245     54.83862     209.2973        27     1.879     0.998  37.45   0
       327     53.1284    415.2069 307.9015849  +6.5011634     1097.077      2292.26     2573.915     77.49146     155.1691     311.0505      2.266     7.19     837.7545     54.83862     146.7848        23     1.962     0.990  40.98   0
       328    903.1057    414.9031 307.5484792  +6.5298346     3792.544     7137.125     7413.531     77.98661     156.1582     310.9886      2.039     5.62     831.9519     54.83862     495.3214        30     1.845     0.955  40.19   0
       329    230.9389    410.8966 307.8278661  +6.5089357     9833.955     19964.54     22471.83     77.73943     155.6026     311.2052      2.153     5.81     833.4564     54.83862      1139.12        56     2.048     1.208  40.32   0
       330     66.2659    404.3677 307.8964992  +6.5060837     598.7454     1165.781     1099.961     77.86312     155.6644     311.0505      2.088     6.78     837.2605     54.83862     81.57642        11     1.927     0.670  49.64   0
       331    954.8121    403.7802 307.5273753  +6.5361578     790.4407     1218.979     1620.844     77.73943     155.2931     311.0196      1.765     5.12     830.3613     54.83862     110.4742         8     1.154     0.643  44.58   0
       332    694.0211    404.5173 307.6356993  +6.5271255     584.9957     988.8395     923.1469     77.73943     155.2931     311.0196      1.563     5.04     832.7601     54.83862     96.95966         6     1.043     0.707  18.91   0
       333    131.3424    399.5865 307.8696289  +6.5102525     3735.097     7323.784     8077.865     77.36717     155.4789     310.8339      2.014     5.89     835.8978     54.83862     450.6685        38     1.963     1.078  38.05   0
       334    343.9175    400.3118 307.7812932  +6.5171096     905.4638     1951.213      2057.16     77.73943      155.788     311.1433      2.078     7.04     831.9138     54.83862     113.9477        15     1.685     0.824  39.72   0
       335    236.3525    398.7922 307.8260317  +6.5141179     992.6331     1986.138     2148.056     77.49146     155.4789      310.772      2.012     6.44     832.9821     54.83862      116.406        14     1.472     0.790  33.00   0
       336    817.7120    396.6725 307.5845778  +6.5345085     539.5911     973.6774     720.5485     78.10992     155.8498     311.1124      2.102     5.07     832.0593     54.83862     89.76141         7     1.549     0.470  54.42   0
       337    153.2470    395.1338 307.8606817  +6.5128299     1683.417     3940.715      4173.73     77.98661     155.5407     311.1124      2.372     6.46     835.2171     54.83862     230.5068        31     1.879     1.175  42.91   0
       338    548.4639    394.2210 307.6965231  +6.5264973     743.7175     1401.277     1863.986     77.61554     155.6026     310.9886      1.880     6.85      831.421     54.83862     106.1051        12     1.581     0.833  21.37   0
       339    376.8293    390.0611 307.7679709  +6.5224504     1537.444     2838.839     2777.585     77.73943     155.6026     311.0505      1.894     5.76     831.1862     54.83862     226.5441        20     1.736     0.769  36.20   0
       340     26.8108    384.7288 307.9135636  +6.5128648     2340.809     4843.039     5569.702     77.49146     155.2311     310.9577      2.190     6.40      837.314     54.83862     286.9396        31     1.890     1.026  40.85   0
       341    430.5323    383.7240 307.7458768  +6.5268731     5326.065     10473.14     11570.64     78.10992     155.7262     311.0815      2.099     5.90     830.6435     54.83862     601.6508        40     1.899     1.135  41.90   0
       342    771.3141    381.2041 307.6043815  +6.5393449     9473.963     18252.63     20351.61     77.49146     155.2311     310.8339      2.052     6.24     831.7845     54.83862     1267.924        54     2.028     1.143  38.20   0
       343    763.3780    382.7403 307.6076264  +6.5384445     1495.746     2954.273      3430.31     77.61554     155.5407     310.9886      2.064     6.52     831.9154     54.83862     206.6614        22     1.827     0.945  37.47   0
       344    334.5828    379.6278 307.7858790  +6.5253395     771.7651     1682.165     1699.251     77.61554      155.355     311.0196      2.119     7.20     830.9358     54.83862     118.4963        15     1.735     0.837  24.29   0
       345   1015.1547    376.4649 307.5032333  +6.5494574     2734.136     5145.755     5478.979     77.98661     155.5407     311.1124      1.984     6.61     827.1528     54.83862     327.4172        30     1.893     0.959  43.92  16
       346    896.8002    371.5913 307.5525728  +6.5475149     555.4388     925.7213     687.7618     77.36717     155.2931     310.9268      1.691     3.64     830.6911     54.83862     85.80164         5     0.979     0.389 -84.16   0
       347    450.8940    368.1138 307.7379511  +6.5340052     1601.061     3121.235     3245.046     77.98661     156.0349     311.1743      2.051     7.69     829.5799     54.83862     197.9814        23     1.807     0.915  44.12   0
       348    907.3259    367.4314 307.5483411  +6.5495853      656.137     1033.973     694.4782     77.86312     155.6026     311.1124      1.879     6.02     830.3761     54.83862     93.84875        10     1.604     0.636  58.04   0
       349    836.5334    364.0816 307.5778678  +6.5486009     24471.43     48623.98     53962.53     78.10991     155.8498     311.1743      2.113     5.70     830.9943     54.83862     2845.282        78     2.104     1.303  45.41   0
       350    478.8311    367.4980 307.7263654  +6.5351980     2279.461     4445.104     4550.967     77.98662      155.355     311.2052      1.987     5.75     829.5134     54.83862     317.1619        29     1.816     0.985  38.45   0
       351    326.8762    358.3676 307.7898082  +6.5338621      610.853     959.7244     1016.548     77.86312     155.6026     311.0505      1.972     4.93     829.9584     54.83862     89.24084         6     1.197     0.575  66.71   0
       352    608.2104    356.4629 307.6729898  +6.5440987     2009.532     4058.835     4604.638     77.49146     155.4169     310.9268      2.110     6.55     828.8599     54.83862     278.9474        27     1.840     0.944  42.54   0
       353     16.6432    356.8475 307.9187445  +6.5240383     821.0108     1407.551     1607.853     77.98661     155.5407     311.0505      1.884     6.44     836.9772     54.83862     98.05109        13     1.593     0.731  50.16   0
       354    693.0230    350.0394 307.6379716  +6.5495956     57428.57     112933.9     124960.8     77.61554      155.355     310.8958      2.098     5.97     830.3264     54.83862     7413.228       106     2.134     1.294  40.88   0
       355    851.2072    351.4673 307.5722007  +6.5543026     814.9727     1842.167     2216.968     77.49146      155.355     310.9577      2.164     7.36     830.5377     54.83862      123.777        15     2.018     0.751  53.27   0
       356     72.3602    349.6763 307.8958438  +6.5288799     883.4371     1636.223     1779.959     77.86312     155.6026     311.1743      1.921     5.99     835.2751     54.83862     128.1172        13     1.614     0.624  46.43   0
       357    555.5312    346.8602 307.6952042  +6.5462979     1967.554       3784.4     4164.504     78.10992     155.5407     311.1124      2.039     6.60     828.4061     54.83862     238.6426        24     1.774     0.926  41.83   0
       358    538.7922    342.9689 307.7022916  +6.5473435     5165.827     10377.96     11486.33     77.49146     155.4169     310.8958      2.110     6.06     828.2706     54.83862     612.0101        40     1.936     1.086  39.69   0
       359    267.9424    340.6315 307.8148997  +6.5392053      1889.56     3846.443      4326.83     77.86312     155.6026     311.0505      2.211     6.30     830.4862     54.83862     236.1671        29     1.986     0.963  41.94   0
       360    401.6827    338.1039 307.7594224  +6.5447477     18593.86     37403.61     41912.31     77.86312     155.9732     311.2052      2.129     5.98     828.2941     54.83862      2067.11        73     2.097     1.295  39.93   0
       361     92.6363    345.4298 307.8875659  +6.5313177     4448.831     9037.143     10054.31     77.61554      155.355     310.9577      2.141     6.34     834.6025     54.83862     545.3029        42     2.049     1.104  39.05   0
       362    509.3992    337.1232 307.7147032  +6.5487714     828.3695     1639.731     1337.875     77.24268      155.045     310.8648      1.850     7.03     828.0832     54.83862     112.5215        16     1.588     0.871  42.04   0
       363    381.7851    336.1033 307.7677576  +6.5449052     801.1171     1897.895     3484.127     77.73943      155.355     310.8958      3.533     7.10     828.4057     54.83862     120.6096        16     1.931     0.732  47.66   0
       364    796.5066    331.0277 307.5956241  +6.5609151     667.4733     1389.893     1351.569     78.10991      155.355     310.9886      2.273     6.98     830.1764     54.83862     109.3193        12     1.717     0.794  31.41   0
       365    490.7288    328.4984 307.7227550  +6.5517072     6430.485     12745.59     14248.63     77.86312      155.788     311.0815      2.115     5.92     827.8022     54.83862     727.5391        46     1.984     1.174  41.15   0
       366    480.4225    333.1391 307.7268783  +6.5494441      715.489     1404.622      1757.25     77.61554     155.5407     311.0196      2.123     6.26     827.9594     54.83862      108.308        12     1.646     0.668  47.88   0
       367    760.1478    327.3741 307.6108552  +6.5612069     2179.175     4286.687     4984.149     77.61554     155.7262     311.0196      2.159     6.27     830.0742     54.83862     272.9797        27     1.829     0.949  41.88   0
       368    915.5781    327.1878 307.5462818  +6.5664850     610.9618     1093.618     1415.071     77.61554     155.4169     311.0196      1.959     3.50     828.6161     54.83862     94.33655         5     1.212     0.292  36.05   0
       369    707.2431    326.7807 307.6328565  +6.5596797     509.0268     1022.991     942.6789     77.49146     155.4789     310.8958      2.373     4.31     829.5712     54.83862     105.1649         6     1.522     0.347  42.69   0
       370    318.6891    325.6222 307.7943303  +6.5471127     764.5699     1400.724     1741.092     77.98662     155.4169     310.9886      2.058     5.40     828.9072     54.83862     96.07581         8     0.989     0.833  82.48   0
       371    153.4037    320.3334 307.8631808  +6.5437323     1335.122     2466.312     2948.687     77.36717     155.2931     310.8958      2.020     7.06      833.175     54.83862     741.1163        18     1.766     0.790  60.75   0
       372    380.6084    312.6516 307.7690487  +6.5545528     5349.774     10392.43     11920.51     77.49146     155.4789     310.8339      2.105     5.85     827.7705     54.83862     657.2196        42     2.010     1.089  40.49   0
       373    236.5283    313.0590 307.8288953  +6.5495369     1684.441     3489.667     3612.155     78.10991     155.6026     311.0815      2.146     6.07     830.5499     54.83862     250.3457        27     1.845     1.059  32.90   0
       374    734.3506    313.0994 307.6220601  +6.5662393     634.3799     1112.909     1263.548     77.98661     155.6026     311.2979      1.814     5.11     829.6492     54.83862     91.26263         9     1.667     0.443  43.38   0
       375    748.5319    308.6268 307.6163204  +6.5685619     40242.43     77038.56     85112.98     77.61554     155.4789     311.0196      2.050     5.95      829.614     54.83862     4772.014        90     2.092     1.264  39.76   0
       376    420.0910    308.0104 307.7528034  +6.5577971     1723.502     3275.802     3692.161     77.73943     155.2311     310.8958      2.067     7.69      827.332     54.83862     227.4633        24     1.789     0.925  41.02   0
       377    983.0697    305.7393 307.5189689  +6.5776009     1282.188      2362.24     2796.705     78.10992     155.6026     311.1433      2.120     7.73     825.5318     54.83862     181.1812        21     1.845     0.905  33.93   0
       378    924.3042    304.8607 307.5434159  +6.5759996     1645.879     3172.273     3530.714     77.73943     155.6026     311.2052      2.104     6.84     827.4338     54.83862     209.6328        20     1.860     0.706  37.60   0
       379    566.1755    305.6138 307.6921901  +6.5636928     854.4905     1447.204     977.0538     77.73943     155.4169     311.0505      1.814     6.33     827.1213     54.83862      105.666        14     1.702     0.661  38.94   0
       380    457.7522    304.5850 307.7372732  +6.5604774      853.319     1699.448     1847.002     77.36717     155.5407     310.8648      2.021     6.14     827.1461     54.83862     146.9562        13     1.810     0.585  42.16   0
       381    406.6647    303.5614 307.7585339  +6.5591835     1439.099      2867.75     3280.116     77.98662     155.5407     311.1743      2.200     6.77     827.3096     54.83862     182.3414        27     1.953     1.074  38.49   0
       382    286.0297    303.4319 307.8086588  +6.5551798     483.8576     1007.266      659.939     77.49146      155.355     310.8648      2.231     4.68     828.4937     54.83862     75.97412         5     1.034     0.600  75.03   0
       383    828.0182    298.2819 307.5836467  +6.5754964     848.9789     1641.987     1908.107     77.61554     155.2931     311.0505      2.149     6.14     828.9802     54.83862     114.1158        12     1.331     0.795  26.70   0
       384    183.0452    295.0265 307.8517335  +6.5551842     1469.253      3095.36     3822.743     77.49146     155.6644     311.0196      2.263     6.60     831.8371     54.83862     220.1086        23     1.982     0.895  37.99   0
       385    437.2957    294.9590 307.7461015  +6.5637663     893.4789     1853.525     2141.641     77.98661     155.5407      311.267      2.051     6.76     826.9153     54.83862     125.5623        15     1.679     0.763  37.90   0
       386    746.9928    293.1632 307.6174870  +6.5748979     4516.526     8791.934     9490.159     77.24268     155.4169     310.8648      2.067     6.23     829.2049     54.83862     564.3599        36     1.906     1.011  42.25   0
       387    763.6584    291.3181 307.6106253  +6.5762183      2078.99         3661     3696.877     77.98662     155.6026     311.1743      1.965     5.71     829.1537     54.83862     276.7937        25     1.870     0.896  37.22   0
       388     79.4418    292.2145 307.8948732  +6.5528537      849.606     1628.864     2048.865     77.36717     155.4169     310.8648      1.999     6.76     834.5237     54.83862     103.6603        13     1.510     0.850  31.78   0
       389    353.9411    287.0000 307.7810059  +6.5642519     1190.833      2248.39     3165.328     77.24268     155.2311      310.772      2.164     6.98     827.2957     54.83862       168.66        19     1.902     0.718  -0.79   3
       390    352.0117    285.0000 307.7818759  +6.5650131       1000.8     2198.171      3017.65     77.49146     155.2311     310.8958      2.591     7.16     827.2957     54.83862     134.4802        16     1.920     0.748   8.72   3
       391     65.9758    285.9758 307.9006818  +6.5549765     860.1752     2006.849     1705.637     77.49146     155.4169     310.9886      2.136     5.98     834.8843     54.83862     119.9954        11     1.609     0.626  43.74   2
       392   1001.5673    282.0955 307.5120870  +6.5879857     4479.442     8563.488      9454.62     78.10991     155.4789     311.1743      2.042     6.62     824.1346     54.83862      533.694        38     1.957     1.024  39.93   0
       393    479.5546    282.0356 307.7289854  +6.5705242     1611.776     2813.236     3055.678     77.73943     155.5407     311.0196      1.981     7.39       826.18     54.83862     192.9791        21     1.598     0.956  39.34   0
       394    242.1872    277.4003 307.8277657  +6.5644567     4225.628     8503.821     9855.819     77.61554     155.2931     310.9268      2.172     5.80     829.6204     54.83862     468.1663        43     1.980     1.175  43.82   0
       395    376.4651    268.1655 307.7722920  +6.5727892     1225.706     2739.216      2870.95     77.86312     155.6026     311.1124      2.204     8.31     826.7858     54.83862     156.7637        23     1.958     0.986  48.64   0
       396    963.2837    267.4538 307.5284923  +6.5927546     818.1617     1837.582     1636.197     77.98662     155.6026      311.267      2.390     7.03     824.7949     54.83862     141.4748        15     2.045     0.677  37.97   0
       397    298.5168    263.9914 307.8048211  +6.5718914     1009.955     1928.215     1604.426     77.61554     155.2931     310.9577      2.002     7.05     827.5511     54.83862     122.1575        16     1.536     0.905  60.10   0
       398    146.1297    263.8665 307.8681389  +6.5668113     1155.792     2393.019      2489.81     77.98661     155.6644     311.1124      2.207     7.18     832.0743     54.83862     159.4867        21     1.804     0.905  43.26   0
       399    899.3698    258.8506 307.5553421  +6.5941716     1361.344     2708.139     3157.009     77.61554     155.7262     311.0196      2.191     7.96     825.8148     54.83862     195.2538        25     2.135     0.830  41.16   0
       400    555.8795    259.9175 307.6980285  +6.5822231     1579.828      2908.67     2854.397     78.10992     155.8498     311.2361      1.942     7.30     825.0261     54.83862      176.021        21     1.668     0.895  37.76   0
       401    660.1880    257.2232 307.6547801  +6.5868350     1539.612     3061.571     3876.115     77.61554     155.4169     311.0196      2.253     6.44     825.9742     54.83862     197.3383        25     1.928     1.025  47.37   0
       402    719.2865    257.3093 307.6302213  +6.5887801     3708.375     7232.968     7689.419     77.73943     156.0349     311.2361      2.019     5.83     826.9307     54.83862     449.2271        36     1.900     1.035  43.20   0
       403    957.5728    257.0420 307.5312194  +6.5968646      518.489     982.5829      536.726     77.61554     155.6026     310.9577      1.849     4.82     824.5842     54.83862     96.18652         5     1.344     0.490  37.43   0
       404    915.2938    249.6297 307.5490393  +6.5985131     817.5712     1540.357     1573.743     78.10992      155.355     311.0196      1.925     5.79     825.1245     54.83862     107.6985        13     1.551     0.609  45.67   0
       405    218.9841    242.6021 307.8385983  +6.5780492     1691.465     3402.973     4033.256     77.61554     155.2311     310.8958      2.211     6.52     829.7472     54.83862      220.819        27     1.887     1.002  44.42   0
       406    861.4717    241.6016 307.5716766  +6.6000291     1348.799     2534.191     2446.553     77.49146     155.1691     310.9577      1.968     6.46     825.4764     54.83862     183.8419        17     1.749     0.717  43.99   0
       407    751.8098    241.0737 307.6172610  +6.5965762     1234.416     2238.421     2171.939     77.61554     155.2311     310.9886      1.917     6.82     826.3552     54.83862     146.7725        18     1.609     0.811  41.27   0
       408    452.8372    232.4154 307.7417824  +6.5901232     16782.88     33156.15     37315.53     77.61554     155.4169     310.8648      2.115     5.70      823.988     54.83862     1936.085        70     2.101     1.252  38.82   0
       409    778.8354    231.6278 307.6063534  +6.6013831     9803.574     19515.09     22425.43     77.61554      155.355     310.9268      2.166     6.14       825.84     54.83862     1250.956        62     2.083     1.269  36.57   0
       410    716.7822    227.0694 307.6322930  +6.6011875     592.1761     1312.302     1709.439     77.49146     155.4789     311.0505      2.070     5.63     825.4185     54.83862     93.95422         8     1.345     0.664  62.72   0
       411    459.3398    227.0980 307.7392623  +6.5925381     987.2122     1957.524     2801.364     77.73943     155.6026     311.2361      2.565     4.96     823.5784     54.83862     140.0226        11     1.042     0.917  73.63   2
       412    141.1400    225.6913 307.8715210  +6.5824116     1708.644     3344.157     3351.383     77.86312     155.6026     311.1743      2.021     6.26     831.3243     54.83862     199.1315        25     1.738     0.985  44.08   0
       413    115.8239    224.3623 307.8820851  +6.5821072     843.0256     1809.667     1986.756     77.61554      155.355     310.8648      2.124     7.72     832.0912     54.83862     102.6654        16     1.676     0.994  39.84   0
       414    915.1671    222.0932 307.5500291  +6.6098835     1038.809     1870.796     1578.694     78.10991     155.4789     311.1743      1.896     6.43     823.8553     54.83862     137.6797        17     1.571     0.753  41.64   0
       415    576.7581    218.1298 307.6907803  +6.6001850     3443.401     6876.142     7449.335     77.86312     155.6026     311.1743      2.109     5.98     823.5546     54.83862     401.0614        34     1.963     1.006  42.63   0
       416    539.5389    218.2943 307.7062398  +6.5988679     1639.218     3246.797     3394.217     77.86312     155.6644     311.1433      2.040     6.36     822.7101     54.83862     197.9762        21     1.746     0.847  37.49   0
       417    297.8346    218.9546 307.8066466  +6.5904715     825.6669     1550.317     1984.446     77.61554     155.5407     310.9886      2.159     6.81     827.3406     54.83862     104.2742        14     1.441     0.902  16.17   0
       418    883.8857    214.8481 307.5632740  +6.6118302     8215.887     15972.68     17624.97     77.98661     155.5407     311.1124      2.095     6.46     823.8869     54.83862     1065.569        51     2.085     1.069  40.46   0
       419    381.3958    217.3273 307.7719826  +6.5939544     1072.368     1842.547     1640.404     77.61554     155.1691     310.9577      1.919     6.53     825.7158     54.83862     161.5177        16     1.598     0.749  35.11   0
       420    937.9050    215.5173 307.5408046  +6.6133601     1879.055     3680.836     3546.541     77.73943     155.9115     311.2361      2.002     6.42     823.3521     54.83862     238.2136        25     1.827     0.911  36.08   0
       421    310.2721    212.9983 307.8016828  +6.5933503     485.9235     1108.517     2033.881     77.49146     155.1691     310.9577      3.706     6.34     827.1882     54.83862     85.24976         7     1.452     0.778  65.32   2
       422     10.0638    211.3047 307.9264746  +6.5839332     18423.81     37070.38     41283.05     77.86312     155.7262     311.1433      2.137     5.88     834.8314     54.83862     2218.967        72     2.133     1.262  41.89  16
       423    970.6299    212.6789 307.5273029  +6.6156264     7443.012     13866.21     14719.04     77.86312     155.6644     311.0815      1.998     6.03     822.8082     54.83862     935.9857        43     1.971     1.040  38.03   0
       424    204.3504    215.6224 307.8456030  +6.5887005     562.5338     805.3435      1012.42     77.61554     155.6644     311.0196      1.625     3.86     829.5486     54.83862      81.1969         5     0.985     0.433 -14.29   0
       425    682.1129    212.6768 307.6471896  +6.6059708     2063.973     4093.025     4880.182     77.98661     155.9115     311.2052      2.228     5.96     824.7517     54.83862     248.0687        27     1.882     0.955  43.25   0
       426    255.9112    211.7203 307.8243134  +6.5920486     832.7112     1411.838     1708.714     77.73943     155.8498     311.2052      1.794     5.76     828.3218     54.83862       117.83        12     1.474     0.633  38.68   0
       427    490.5728    207.3270 307.7269605  +6.6017540     1471.523     2654.932     2619.193     77.73943     155.5407     311.0505      1.910     5.95      822.527     54.83862     171.4771        22     1.630     0.882  43.59   0
       428    734.1296    200.7410 307.6259825  +6.6126443     29988.38     57543.84     63538.73     78.10992     155.6026     311.1433      2.065     5.94     824.5851     54.83862     3707.536        80     2.104     1.222  40.60   0
       429    874.8470    203.3233 307.5674222  +6.6162884     1606.556      2941.33     3875.702     77.86312     155.6644     311.0815      2.026     6.90     823.5573     54.83862     215.6368        21     1.807     0.826  36.74   0
       430    822.5471    204.1730 307.5891255  +6.6141873     1491.827     2766.523     2597.952     77.73943     155.7262     311.0505      1.931     5.54      824.185     54.83862     255.2412        20     1.682     0.844  45.09   0
       431    502.5981    203.3712 307.7220991  +6.6037919     1694.336     3321.028     4015.923     77.49146      155.355     310.9268      2.044     6.96     822.4604     54.83862     226.7526        22     1.818     0.855  39.66   0
       432    337.0786    200.0238 307.7909887  +6.5996114     4308.649     11107.79     13021.57     77.61554     155.4169     311.1124      2.575     7.32     826.6635     54.83862     471.3754        62     2.327     1.544  66.05   0
       433    967.8056    199.6229 307.5289206  +6.6209252     2158.153     3991.379      4454.37     77.49146      155.355     310.9577      1.939     5.60     822.2457     54.83862     298.1116        25     1.805     0.883  41.77   0
       434   1006.1348    198.3202 307.5130377  +6.6227440     1262.863     2641.956     2463.109     78.23302     155.6644     311.0815      2.156     6.48     821.6456     54.83862     172.7698        23     1.890     0.932  43.01   0
       435    901.9830    197.9230 307.5563301  +6.6194268     5694.337     10673.04      11833.9     77.49146      155.355     310.9886      1.977     5.96     823.0277     54.83862     779.8464        40     1.911     1.022  39.23   0
       436    445.6316    196.9017 307.7459906  +6.6045506      3717.46     7519.266     8106.646     77.98661     155.4169     311.2361      2.104     6.01     823.1962     54.83862     443.7668        42     2.106     1.100  35.78   0
       437    220.6839    193.9955 307.8395576  +6.5981838      486.798     1145.858     991.8925     77.49146     155.2311     310.8339      2.128     5.90     828.9959     54.83862     91.19922         7     1.521     0.645  42.84   0
       438    102.9749    188.1954 307.8886643  +6.5966129     3389.664     6729.132     7435.838     77.49146      155.355     310.9577      2.102     5.91     831.5859     54.83862     396.1011        34     1.895     1.034  40.93   0
       439    922.0410    187.2804 307.5483575  +6.6244937     649.6038     1433.303      2033.78     77.98661     155.6026     311.0505      2.609     5.40     822.2968     54.83862     99.56854        10     1.637     0.503  47.21   0
       440    273.2115    184.8922 307.8180440  +6.6037126     24413.78      49558.5     54967.74     77.73943     155.2931     310.8958      2.173     5.79     827.9299     54.83862     2807.195        74     2.114     1.275  40.39   0
       441    248.4589    185.8892 307.8282948  +6.6024675     4876.838      9860.21     10774.38     77.86312     155.6026     311.2361      2.124     5.97     828.4229     54.83862     574.5222        43     1.985     1.136  39.77   0
       442    599.9222    186.7905 307.6822252  +6.6139075     663.4808     1261.605     1326.092     77.61554     155.1691     310.9886      2.001     4.67     823.0164     54.83862     92.70081         7     1.143     0.541  58.37   0
       443    702.2168    183.7265 307.6398235  +6.6186032      686.644     1419.529     1668.853     77.49146     155.4169     311.0196      2.166     6.45     823.9242     54.83862     112.1877        10     1.475     0.791  37.64   0
       444    397.2835    180.3871 307.7666448  +6.6097472     36198.57     72822.15     81146.66     77.61554     155.4789     310.9577      2.139     5.86     824.2047     54.83862     4246.854        85     2.127     1.303  39.92   0
       445    153.2687    181.6058 307.8679934  +6.6010302     2910.459     5822.917     6014.046     77.49146     155.2311     310.9577      2.046     5.77     829.5996     54.83862     367.3212        31     1.830     1.038  36.51   0
       446    414.6595    180.6747 307.7594149  +6.6102125     990.7645     1802.477     1975.793     78.23302     155.6026     311.0815      1.970     6.26      823.493     54.83862     129.6323        13     1.599     0.688  36.49   0
       447    301.2801    178.0826 307.8066144  +6.6074701     13404.92     27006.16      30303.7     77.98661     155.8498     311.1743      2.153     5.64     827.3391     54.83862     1582.405        65     2.093     1.266  37.65   2
       448    308.8283    178.3765 307.8034680  +6.6076027     1621.291     3339.731      4298.67     77.49146     155.4789     310.9577      2.587     9.36     827.1301     54.83862     217.8639        29     2.261     1.403  84.71   3
       449    736.5535    176.6508 307.6257967  +6.6226765     24954.49     47854.75     52729.78     78.10992     155.4789     311.1743      2.060     5.98     823.7532     54.83862     2956.154        70     2.096     1.182  39.95   0
       450    684.9337    178.9337 307.6471686  +6.6200037     662.7825     1068.391     661.0886     77.98661     155.6026     311.1433      1.804     5.94     823.7364     54.83862     103.1462        11     1.643     0.604  36.47   0
       451    784.6017    177.0864 307.6058160  +6.6241058     975.8109     1833.052     2464.486     77.24268     155.2311     310.8339      2.033     7.39     823.2905     54.83862     131.1805        18     1.975     0.775  41.04   0
       452     25.2947    177.5706 307.9213046  +6.5983812     531.5479     815.5949     588.0211     78.10992      155.355     311.0196      1.424     3.49     835.3154     54.83862     79.97852         5     0.768     0.458 -17.81   0
       453     53.3295    173.7108 307.9097888  +6.6009214     6767.717      13410.2     14330.33     77.98662     155.8498     311.1124      2.099     6.07     833.8785     54.83862     733.2949        50     2.070     1.146  40.01   0
       454    994.8264    170.9666 307.5186670  +6.6336654     643.0237     1318.054     1845.592     77.49146      155.355     310.8958      2.054     5.62     820.5026     54.83862     117.5107        10     1.931     0.460  45.09   0
       455     87.0563    171.7707 307.8958420  +6.6028604     1144.242      2092.56     1841.226     77.73943     155.6644     311.0196      2.017     6.78     831.9643     54.83862     150.8157        15     1.615     0.798  32.81   0
       456    570.6397    161.3544 307.6952615  +6.6234318     695.2719     1209.566     1147.255     77.73943     155.6026     310.9886      2.053     5.28     821.9005     54.83862     86.59387        10     1.433     0.550  57.12   0
       457    995.9074    157.4100 307.5186789  +6.6393015     1726.278      3174.76     3856.483     77.61554     155.2311     310.9268      2.017     5.48     819.7894     54.83862     233.7079        20     1.789     0.712  46.01   0
       458    578.9095    155.3750 307.6920293  +6.6261792     761.7633     1453.472     1778.347     78.10991     155.4169     310.9577      2.056     5.06      821.835     54.83862     110.9059         9     1.292     0.559  47.49   0
       459    587.4388    152.9873 307.6885667  +6.6274517     1479.897      2733.33     3317.747     77.49146     155.4169     310.8648      1.922     6.62     821.8531     54.83862     182.6072        21     1.804     0.822  40.04   0
       460    272.0936    151.1373 307.8196647  +6.6176178     22027.76     44835.94     50755.68     77.98661     155.6026     311.1743      2.177     5.71      827.961     54.83862     2574.442        81     2.145     1.330  40.56   0
       461    331.8995    153.2543 307.7947416  +6.6187559     746.2806     1375.692     1802.981     77.86312     155.6026     311.3907      2.002     7.16      826.355     54.83862     102.9605        12     1.538     0.934  28.42   0
       462     17.4213    149.5532 307.9255380  +6.6096881     3253.522     6218.113     6717.538     77.61554     155.6026     310.9577      2.020     5.80     835.8639     54.83862     356.0723        35     1.978     0.992  34.62   0
       463    703.7422    147.8140 307.6404145  +6.6334887     6074.764     11803.97     13035.41     77.36717     155.4789     310.8339      2.079     5.81     822.6892     54.83862     788.2913        46     1.992     1.109  43.34   0
       464    181.2276    148.4963 307.8575115  +6.6156485     717.2527     1392.687     968.1873     78.10992      155.355     311.0505      1.981     5.62     828.4932     54.83862     105.5818         9     1.507     0.591  35.01   0
       465    114.5435    144.8843 307.8853434  +6.6148928     3635.916     7188.488     8080.876     77.98661     155.6026     311.2052      2.124     5.98     829.9175     54.83862     385.6191        36     1.907     1.098  37.76   0
       466    257.5103    145.7065 307.8259104  +6.6193701     506.3149     868.3304      1023.05     77.98662     156.0966     311.1433      1.828     3.72     828.1253     54.83862      85.9115         5     1.551     0.256  49.30   0
       467    641.6432    143.3852 307.6663704  +6.6332363     577.6187     1209.785     1141.933     77.24269     155.4169     310.8648      1.860     3.48     822.1954     54.83862     80.12701         5     1.031     0.339  21.03   0
       468    453.7245    142.0999 307.7445016  +6.6274593     1104.972     2028.157      2178.02     77.49146     155.7262     311.0196      2.040     6.16     821.8514     54.83862     146.5883        16     1.404     0.853  44.36   0
       469    385.2888    141.0425 307.7729749  +6.6255958     2815.479     5958.871     6815.886     77.98661     155.5407     311.1433      2.270     6.23     824.1302     54.83862     334.0886        37     2.030     1.091  43.64   0
       470    349.6411    139.9597 307.7878246  +6.6248442     2348.827     4806.088     5300.546     77.73943     155.6026     310.9886      2.126     5.99     825.7757     54.83862     257.6825        32     1.765     1.139  44.14   0
       471    104.1546    139.8703 307.8898321  +6.6166136     1371.813     2511.716     3084.592     77.98661     155.6026     311.1124      2.024     5.79     830.0952     54.83862      169.226        19     1.346     1.036  71.61   0
       472    996.9560    134.2151 307.5190320  +6.6489177     1114.159     2133.789     2316.641     77.49146     155.4169     310.8648      2.043     7.19     818.5022     54.83862     142.0434        18     1.794     0.807  46.85   0
       473    201.5792    128.6632 307.8497349  +6.6245263     4114.985     8522.279     9364.082     77.61554     155.6026     310.9886      2.163     5.96     828.3303     54.83862     466.7571        41     1.930     1.173  41.86   0
       474    663.3447    127.6029 307.6578910  +6.6404831     4713.734     9062.535     9456.333     77.36717     155.4169     310.8029      2.037     6.18     821.8806     54.83862     555.0555        39     1.927     1.036  41.24   0
       475     84.1072    128.4657 307.8985533  +6.6206482     1562.729     3018.591     3384.608     77.86312      155.788     311.1124      2.002     6.07     830.6827     54.83862     201.1149        23     1.731     0.939  39.22   0
       476    812.2852    128.2598 307.5959761  +6.6452016     811.2658     1538.582     1542.171     78.10992     155.6644     311.2052      2.074     2.91     821.0304     54.83862     154.3161         7     0.846     0.704  64.17   2
       477    615.5795    124.7260 307.6778380  +6.6400696     6977.366     13816.33     16087.46     77.61554     155.4789     311.0505      2.119     5.99     821.6633     54.83862     842.0202        47     2.017     1.124  39.76   0
       478    250.7528    126.1992 307.8293865  +6.6272002     553.3345        848.7     1253.725     77.36717     155.2311      310.679      1.751     4.59     828.1212     54.83862     101.4743         5     0.873     0.685   6.06   0
       479    553.5469    124.5685 307.7036207  +6.6380532     498.0389     885.3079     1338.915     77.86312     155.6644     311.0196      2.168     4.42     820.9985     54.83862     104.1505         5     1.307     0.424  45.76   0
       480     13.6272    123.8548 307.9279969  +6.6201747     777.0699     1854.306     1860.453     77.61554     155.6644     310.9577      2.142     5.44     835.0251     54.83862     137.0417         8     1.405     0.595  37.89   0
       481    342.6982    120.5969 307.7913724  +6.6326087     2872.436     6234.646     7730.473     77.73943      155.355     310.8029      2.410     5.55      826.001     54.83862      318.843        42     1.885     1.431  32.50   0
       482    524.4419    119.7908 307.7158784  +6.6390496     1243.281     2419.183     2605.191     77.36717     155.4169     310.8648      2.140     6.60     820.7772     54.83862     162.9698        17     1.768     0.692  44.28   0
       483    619.0363    116.2911 307.6766894  +6.6436698     39427.19     77266.29     85940.68     78.10991     155.5407     311.1433      2.094     5.89     821.5197     54.83862     4543.503        89     2.130     1.274  40.14   0
       484    298.1412    110.0928 307.8102469  +6.6354483     2586.495     5298.739     5611.599     77.86312     155.5407     311.2361      2.170     5.83     827.4492     54.83862      337.423        33     1.994     0.998  40.19   0
       485    699.4479    105.7648 307.6436333  +6.6507141     512.9525     1021.491     1186.435     77.61554     155.6026     311.0505      2.298     4.28     821.0674     54.83862     96.90131         5     0.943     0.555  48.31   2
       486      2.6404     93.2480 307.9336132  +6.6324460     11742.44     27875.79     40544.88     77.86312     141.3433     254.2999      3.320     8.42     834.4205     54.83862     2919.035       171     4.325     2.049 -86.08  24
       487    669.3677    103.3913 307.6562143  +6.6506862     901.9924     1736.881     1922.234     77.49146     155.4169     310.9577      2.060     6.23     820.9775     54.83862       132.15        12     1.730     0.630  39.57   0
       488    683.3804    100.2337 307.6504990  +6.6524602     2294.359     4462.837     4710.337     77.49146     155.4169     310.9268      2.024     6.44     820.8358     54.83862     275.9376        29     1.982     0.907  40.85   0
       489    425.2602     91.3051 307.7580668  +6.6474842     3090.106     5971.668     6198.989     77.86312     155.6026     311.2052      2.030     5.70     821.8521     54.83862     336.9626        33     1.939     1.024  42.27   0
       490    879.6054     87.5757 307.5693861  +6.6642599     1593.155     3113.832     3194.741     77.49146      155.355     310.9577      2.037     6.41     818.9421     54.83862     226.0444        21     1.898     0.761  35.71   0
       491    897.5569     86.6888 307.5619562  +6.6652268     2875.747     5388.868      5440.99     77.98662     155.4789     311.1433      1.955     6.46     818.6215     54.83862     370.6806        28     1.857     0.876  43.48   0
       492    589.9449     85.4155 307.6898327  +6.6554475     1306.069     2504.399     2818.801     77.36717     155.5407     310.8029      1.935     6.82     820.3314     54.83862     174.6639        18     1.652     0.789  43.57   0
       493    389.0124     83.1998 307.7734068  +6.6496136     1431.545     2859.907     2879.304     77.61554     155.2931     310.9268      2.102     7.56     823.7911     54.83862     170.3644        20     1.646     0.972  26.51   0
       494    136.3510     79.9017 307.8785110  +6.6424693     2461.589     4743.212     5086.969     77.98661     155.5407     311.2979      2.035     6.15     827.8271     54.83862     270.4668        31     1.849     1.043  40.94   0
       495     18.3997     77.8031 307.9275953  +6.6393575      9136.48     18587.25     21834.14     77.36717     155.1691     310.8648      2.184     6.20     832.7059     54.83862     1013.085        51     2.050     1.182  41.61   0
       496    284.6835     78.4784 307.8169219  +6.6480540     1022.038     1965.848     2694.062     78.10992     155.9115     311.2361      2.376     7.33     827.4824     54.83862     124.9329        18     1.845     0.815  38.91   0
       497    545.1047     77.3879 307.7087407  +6.6572585     539.6395     1060.867     1319.371     77.73943      155.355     310.8958      1.932     4.33     819.4514     54.83862     77.53949         7     1.790     0.299  48.60   0
       498    820.1033     72.4871 307.5946275  +6.6685015      4977.55       9150.7     10208.35     77.98661     155.9732     311.1433      1.998     5.69     818.7247     54.83862     609.2053        38     1.902     1.077  39.83   0
       499    765.2145     72.8254 307.6174263  +6.6665238     2451.557     4858.466     5660.451     77.73943     155.4169     311.0505      2.098     6.18     819.2026     54.83862     310.5948        32     1.860     1.070  36.11   0
       500    410.3132     73.1819 307.7648980  +6.6544677     809.2417     1499.425     916.6089     77.73943      155.355     310.9886      1.960     6.86     822.6648     54.83862      113.994        12     1.318     1.000  52.22   0
       501    527.5682     70.8929 307.7162501  +6.6593526     892.3538     1724.182     2359.739     78.10991     155.4169     311.1433      1.959     6.75      819.226     54.83862     122.4258        15     1.549     0.824  43.58   0
       502     58.7377     69.6189 307.9111147  +6.6440992     2329.507     4885.986     5288.838     77.61554     155.5407     310.9886      2.241     6.86     830.1511     54.83862      282.827        31     1.885     1.094  45.49   0
       503     43.6066     71.0727 307.9173522  +6.6429881     809.5032     1493.078     1684.645     77.61554     155.1691     311.0196      2.019     6.51     830.9739     54.83862     131.0251        11     1.580     0.752  28.98   0
       504    420.1343     69.4479 307.7609445  +6.6563403     741.3989     1349.811     1212.937     77.86312     155.5407     311.1433      2.161     4.63     822.1399     54.83862     94.78833         6     1.132     0.537  45.02   0
       505    583.4761     67.3115 307.6931392  +6.6627086     833.5839     1510.899      1710.36     77.98662     155.9115     311.2052      2.103     4.90      819.324     54.83862     119.1052         9     1.209     0.561  12.64   2
       506      1.9970     65.5193 307.9348329  +6.6438775     1814.099     2682.736     3494.018     74.70945     132.9223     244.4597      1.764     3.93      832.886     54.83862     241.2529        16     1.248     0.792  59.14  24
       507    759.8083     60.3263 307.6200991  +6.6715057     1483.918     2740.468     2946.582     77.61554     155.1691     310.9577      1.992     6.34     818.6246     54.83862     221.8488        17     1.616     0.698  45.07   0
       508    401.2133     60.9822 307.7690969  +6.6592010     784.2467     1435.455     1511.607     77.61554     155.2311     310.9886      2.199     4.96     823.3014     54.83862       121.03         8     1.341     0.519  41.02   0
       509     73.0431     60.0601 307.9054984  +6.6485300     746.9351     1356.272     1126.503     77.98661     155.6026     311.2361      1.957     6.09     829.1384     54.83862     111.2465        12     1.641     0.635  33.23   0
       510     98.5036     59.2166 307.8949476  +6.6497372     628.1859     1115.759     1369.105     77.86312     155.4169     310.9268      1.838     4.86     827.9492     54.83862     83.53949         6     1.161     0.576  60.52   0
       511    415.4691     53.7080 307.7634216  +6.6626849     1879.981     3625.983     3960.701     77.98662     155.7262     311.1124      2.031     6.47     822.5235     54.83862     210.2318        26     1.892     0.916  44.95   0
       512     86.3817     53.8875 307.9001676  +6.6515295     6759.929     13684.65     15225.99     77.73943      155.355     310.9577      2.129     5.98     828.3814     54.83862     756.7158        49     2.035     1.180  45.40   0
       513    629.2237     46.0535 307.6748538  +6.6730244      13460.6     26449.05     29711.87     77.49146     155.6026     310.9268      2.104     5.97     818.2082     54.83862     1798.867        60     2.102     1.151  41.94   0
       514    253.2691     48.0273 307.8310193  +6.6595744     998.5671     2107.792     3460.248     77.61554     155.4789     311.0196      2.804     7.60     827.0853     54.83862     125.6067        19     1.810     0.892  35.16   0
       515    529.0051     42.1107 307.7166365  +6.6712898     3821.255     7295.294      7893.17     77.49146     155.2931     310.8339      1.984     5.62      818.113     54.83862     482.0986        36     1.900     1.028  40.45   0
       516    247.3560     42.3261 307.8336719  +6.6617302     1475.588     2870.537     4607.988     77.86312     155.6644     311.1433      3.115     5.82     826.9818     54.83862     214.2868        20     1.724     0.839  43.72   3
       517    243.0601     34.6250 307.8357209  +6.6647665     2314.187     4551.325      5538.57     77.61554     155.6026     310.9886      2.207     5.75     826.8511     54.83862     278.3151        29     1.876     0.967  40.23   3
       518    434.5194     37.6665 307.7560537  +6.6699514     16536.85     32711.78     36263.46     78.10992      155.788     311.1124      2.118     6.02     821.2434     54.83862      1932.55        66     2.109     1.234  41.39   0
       519    615.6694     36.5393 307.6808114  +6.6764997     2617.534     5348.906     7033.743     78.10992     155.6026     311.1433      2.540     7.04      817.703     54.83862     306.8445        41     2.263     1.200  58.40   0
       520    255.0803     38.0800 307.8306075  +6.6637442      6657.84     13462.01     15926.82     78.23302     155.8498      311.267      2.189     5.96     826.9025     54.83862     765.0701        49     2.078     1.178  37.47   0
       521    912.4313     37.7286 307.5574415  +6.6859484     1496.924     2908.437     3429.331     77.86312     155.6026     311.0815      2.085     6.67     815.7083     54.83862     184.9232        21     1.927     0.835  50.45   0
       522    315.2797     38.7867 307.8055670  +6.6654786     782.4887     1462.425     2297.433     77.61554      155.355     310.9268      2.391     5.06     826.7181     54.83862     97.84344         9     1.223     0.593  49.31   0
       523     20.7004     37.6605 307.9280178  +6.6560159     1679.179     3440.977     3437.116     77.73943     155.5407     311.2361      2.115     6.46     830.5039     54.83862     201.4087        26     1.882     0.924  36.02   0
       524    296.1084     32.5866 307.8137461  +6.6673944     739.9856     1569.684     2272.542     77.73943      155.355     310.8958      2.728     5.29     826.7821     54.83862     101.1249         8     1.197     0.660  50.26   0
       525    934.2868     29.4772 307.5486395  +6.6900876     678.7014     922.5074     1168.883     77.98662     155.9115     311.2361      1.447     3.68     814.5049     54.83862     109.9815         7     0.969     0.483   8.65   0
       526    684.4319     27.3126 307.6525500  +6.6826169     1303.428     2637.989     3021.299     78.10992     155.4169     311.0815      2.220     7.35     817.1462     54.83862     161.6824        20     1.682     0.899  43.61   0
       527    250.6286     22.8980 307.8329777  +6.6698653     588.5667     1116.949     1629.193     78.10991      155.355     311.1124      2.259     4.84     826.6289     54.83862     85.54474         6     1.260     0.526  64.31   0
       528    950.4482   1016.4664 307.5083603  +6.2829219     4861.289     9885.666     10402.58     77.86312     155.5407     311.1124      2.138     5.88     846.8436     54.83862     499.5577        46     2.120     1.176  41.75  16
       529    705.0872   1017.1470 307.6102253  +6.2744326     713.8464     1501.494     2258.821     77.98661     155.4789     309.0953      2.932     6.68     850.7347     54.83862     106.7152        13     1.988     0.630  44.47  16
       530    235.1544   1016.5936 307.8053797  +6.2588854     1057.057     1997.044     1748.406     77.49146      155.355      310.772      1.956     6.40     851.4192     54.83862     119.8276        15     1.703     0.674  38.37  16
       531    710.0295   1014.4743 307.6082639  +6.2757022     2050.053      4110.49       4638.5     77.86312     155.6026     311.1124      2.019     6.11     850.6374     54.83862     221.9622        29     1.838     0.991  40.33  16
       532    433.3298   1015.5310 307.7231268  +6.2659859     695.3629     1291.504     1316.796     77.98662     155.7262     311.0815      2.102     7.42     851.8469     54.83862     125.5263        13     1.669     0.924  26.92  16
       533    726.3196   1013.7338 307.6015247  +6.2765536     766.0758     1307.934     594.2402     78.10992      155.788     311.0815      1.953     6.26     850.6261     54.83862     94.89935        11     1.495     0.736  34.94   0
       534    357.0257   1012.2660 307.7549227  +6.2647711     1259.025     2596.775     2613.189     77.61554     155.5407     310.9886      2.016     7.24     852.0344     54.83862     152.8907        19     1.577     1.016  45.42   0
       535    539.1811   1002.0889 307.6796313  +6.2750914     3013.703     6500.709     8077.848     77.73943      155.355     311.0196      2.422     5.91     851.9368     54.83862     358.6531        41     2.139     1.195  48.76   3
       536    536.4118    994.3121 307.6810466  +6.2782109     5942.015     11979.03     13426.83     77.61554      155.355     310.9886      2.185     5.98     851.7697     54.83862     755.3557        43     2.006     1.105  42.39   3
       537    743.6160   1001.5286 307.5947578  +6.2821744     5699.142     11570.54      13155.8     77.49146     155.5407     311.0196      2.179     5.88      849.816     54.83862     634.3339        45     2.027     1.140  40.67   0
       538    509.1768   1003.2446 307.6920512  +6.2736073     774.5508      1504.83     1219.065     77.49146     155.6026     310.9577      2.052     7.03     852.2225     54.83862     104.2905        14     1.844     0.752  41.79   0
       539    289.4148   1000.7641 307.7833905  +6.2672492     10917.21     22288.75     25703.17     77.61554     155.4169     310.9268      2.213     6.01     851.4452     54.83862     1259.535        72     2.049     1.559  29.15   0
       540    804.8140   1000.9047 307.5693659  +6.2844805     895.1786     1712.902      1952.87     77.73943      155.355     310.9268      1.928     6.76     847.0722     54.83862     143.4548        15     1.584     0.808  45.05   0
       541    413.5126   1001.1793 307.7318459  +6.2712486     656.8122     1465.522     1826.051     77.86312      155.355     310.9886      2.566     6.94     851.3784     54.83862     91.18799        11     1.495     0.903  46.36   0
       542    905.0302    995.0437 307.5279489  +6.2902533     6162.501     12772.99     14664.31     77.61554     155.6026     310.9886      2.252     5.79     847.1304     54.83862     684.5653        50     2.102     1.198  43.42   0
       543   1000.2465    990.6285 307.4885584  +6.2952586     3316.194     7349.352     8546.684     77.61554     155.6644     311.0196      2.321     6.10     843.6375     54.83862     385.1844        45     2.102     1.271  45.48   0
       544    878.6522    991.2081 307.5390332  +6.2909558     9024.285     18785.47     21437.53     77.49146     155.4789     310.8339      2.205     5.69     847.0319     54.83862     1050.842        58     2.046     1.328  38.59   0
