#   1 NUMBER                 Running object number                                     
#   2 X_IMAGE                Object position along x                                    [pixel]
#   3 Y_IMAGE                Object position along y                                    [pixel]
#   4 ALPHA_J2000            Right ascension of barycenter (J2000)                      [deg]
#   5 DELTA_J2000            Declination of barycenter (J2000)                          [deg]
#   6 FLUX_APER              Flux vector within fixed circular aperture(s)              [count]
#   9 FLUXERR_APER           RMS error vector for aperture flux(es)                     [count]
#  12 FLUX_RADIUS            Fraction-of-light radii                                    [pixel]
#  13 FWHM_IMAGE             FWHM assuming a gaussian core                              [pixel]
#  14 BACKGROUND             Background at centroid position                            [count]
#  15 THRESHOLD              Detection threshold above background                       [count]
#  16 FLUX_MAX               Peak flux above background                                 [count]
#  17 ISOAREA_IMAGE          Isophotal area above Analysis threshold                    [pixel**2]
#  18 A_IMAGE                Profile RMS along major axis                               [pixel]
#  19 B_IMAGE                Profile RMS along minor axis                               [pixel]
#  20 THETA_IMAGE            Position angle (CCW/x)                                     [deg]
#  21 FLAGS                  Extraction flags                                          
         1     35.0117     23.1262 307.9276768  +6.6690618     4244.527     11094.04     13590.59     89.80791     179.9034     360.3453      2.678     6.26     1159.241     63.55464     457.9883        64     2.222     1.681  56.73   0
         2    434.0463     23.4221 307.7617474  +6.6822738     2999.734     7957.876     9775.812     89.95171      180.334     360.3812      2.681     6.34     1135.449     63.55464      326.804        50     1.999     1.616  57.22   0
         3    330.5133     18.2731 307.8049722  +6.6809463     6027.577     16386.46     20887.02     90.52466      180.692     360.5604      2.829     6.54     1148.347     63.55464     595.0378        76     2.298     1.861  60.61   0
         4    104.4688     18.5125 307.8989540  +6.6732924     1182.729     3027.149     4023.048     90.52466     180.6205     360.5963      2.821     8.85     1157.808     63.55464      128.803        25     1.697     1.290  50.08   0
         5     95.5860     17.1889 307.9026923  +6.6735419     891.7994     2092.706     2740.356     90.09529     180.0471     360.4887      2.596     7.23     1158.029     63.55464      101.092        14     1.369     1.069  54.29   0
         6    396.8409     15.6057 307.7774827  +6.6842615     1037.645     2357.833     2683.828     89.51959     179.9753     360.2377      2.357     7.97     1139.961     63.55464     126.8657        16     1.362     1.304 -43.22   0
         7    657.3607     11.7305 307.6692833  +6.6945413     5508.592     13821.04     18687.99     90.23864      180.334     360.6321      3.116    12.53     1126.879     63.55464      573.162       100     4.078     1.922 -87.34  18
         8    649.0222      7.0266 307.6729097  +6.6962068     4662.065     11558.04      14008.1     89.80791     180.1188     352.1455      2.552     5.93      1126.84     63.55464      474.188        64     2.147     1.748  45.04  19
         9    821.5123     10.9650 307.6010489  +6.7003140     867.3271     2191.288      2690.66     90.38176     180.1906     360.5604      2.627     8.04     1120.039     63.55464     116.2892        14     2.031     0.891  42.24  16
        10    257.8682      8.6395 307.8355054  +6.6824993     2957.872     8250.085     10774.73     90.23864      180.334      360.668      2.914     7.09     1153.584     63.55464     318.6559        61     2.157     1.871  70.00  16
        11    534.8095     11.1014 307.7202649  +6.6907213     723.5214     1354.696     1107.133     90.09529     179.9034     360.3453      1.904     5.61     1129.838     63.55464     112.4932         7     1.277     0.694 -15.39   0
        12    418.8534      7.2137 307.7686137  +6.6884620     3955.783     10171.89     11942.21     89.66386     180.2623     353.5009      2.617     6.34     1137.233     63.55464     436.2239        58     2.150     1.652  59.20  16
        13    892.0128      8.5538 307.5718130  +6.7036505     831.2915     1948.795     2183.245     89.66386     180.1188     360.3094      2.552     7.57     1118.143     63.55464      118.115        14     1.417     1.131  33.43  16
        14    681.0546      4.8746 307.6596622  +6.6981613      7549.72     21405.98     30244.01     90.23864      180.334     328.5621      3.095     7.39     1125.497     63.55464     776.4906        94     2.623     2.021 -36.44  24
        15    734.0229      6.0063 307.6375978  +6.6994552     1051.126     2348.407     2491.085     89.80791     180.1188     342.0539      2.304     6.39     1120.406     63.55464     146.2744        16     1.571     1.084  58.86  16
        16     66.0360      4.0152 307.9154267  +6.6779941     767.2561     946.0663     131.3014     89.95171     178.0256     316.2953      1.423     4.52     1157.567     63.55464      122.436         5     0.791     0.735  57.55  19
        17     65.7312      1.3472 307.9156441  +6.6790859     946.6741     1885.157     1319.263     78.76675     143.4478     271.4312      1.883     5.60      1157.39     63.55464     131.8268        12     1.744     0.507  -2.57  26
        18    157.1626      1.3629 307.8776263  +6.6821387     661.2628      1275.24     1974.869     78.76674     143.6279     271.7167      2.519     6.16     1155.518     63.55464     148.5891         9     1.682     0.633   6.32  24
        19    555.7088    986.2518 307.6786195  +6.2886156      510.377     1014.274     875.5554     90.23864     180.1188     360.7396      2.104     4.87     1187.442     63.55464     90.77563         6     1.516     0.444  58.05   0
        20    300.9081   1017.8284 307.7834190  +6.2670827     9995.369     20893.96     24656.66     90.52466     180.0471     353.1717      2.272     4.97     1192.022     63.55464      1091.14        70     1.993     1.663  69.51  24
        21    237.6418    986.5679 307.8107635  +6.2778839     1094.719     2056.338     1966.916     89.80791     180.2623     360.3812      1.878     5.74     1191.558     63.55464     143.9244        11     1.137     0.816  43.98   0
        22     62.6525    984.4065 307.8835408  +6.2729302     1918.614     3537.758     3923.242     89.80791     180.1188     360.2018      1.969     5.63     1190.411     63.55464     218.3768        22     1.572     0.997  53.19   0
        23    956.1353    982.2332 307.5123725  +6.3035746     5397.801     10204.28      10203.5     90.23864      180.334     360.5246      1.981     4.83     1178.462     63.55464     607.8114        38     1.774     1.122  57.85   0
        24    263.1805    970.5636 307.8006946  +6.2853471     2883.226     6032.839      6890.97     89.80791     180.1188     360.3094      2.247     5.33     1191.124     63.55464     397.9778        38     1.949     1.225  51.42   0
        25    650.5354    969.9656 307.6397680  +6.2984971     3006.249      6373.27     6885.083     90.23864      180.334     360.5604      2.221     5.71     1184.898     63.55464     309.8977        39     1.894     1.316  70.12   0
        26    789.5546    970.4902 307.5819856  +6.3028992     935.0733     1851.755     1657.167     90.38177     180.1906     360.7038      2.005     6.40     1182.969     63.55464     157.9496        14     1.654     0.737  56.81   0
        27     31.9374    967.7578 307.8968671  +6.2787798     1437.372     2705.356     3281.981     90.38176     180.2623     360.6321      2.119     6.39     1190.415     63.55464     189.7244        18     1.620     0.762  45.80   0
        28    472.7783    967.8358 307.7136995  +6.2934618      690.443     1337.657     1008.159     89.80791     180.0471     360.2735      1.764     3.82     1187.426     63.55464     114.7562         6     0.784     0.533  49.70   0
        29    882.1505    966.5428 307.5436429  +6.3076027     711.6915      1403.81     1221.945     90.38176      180.334     360.6321      1.959     6.22     1179.914     63.55464     94.91321         9     1.254     0.868  38.33   0
        30    299.3608    964.6620 307.7858618  +6.2889921     561.0434     932.5667     896.1929     90.38177      180.334     360.6321      1.982     4.39     1190.908     63.55464     95.03235         5     1.057     0.520  45.30   0
        31    930.0797    974.6392 307.5234547  +6.3058477     1649.228     3139.504     3815.615     90.23864     180.4056     360.5246      2.165     5.72     1179.096     63.55464      207.048        24     1.658     1.102  66.82   0
        32    575.3198    962.2197 307.6712825  +6.2991951     1078.197     2036.344     1484.535     89.95171     179.9753     360.4887      1.939     6.58     1186.465     63.55464     140.7617        14     1.470     0.825  63.58   0
        33    614.3506    958.1483 307.6552021  +6.3021753     915.8752     1452.703     908.9794     90.52466     180.1906     360.5246      1.730     4.34     1185.592     63.55464     150.7228        10     1.230     0.749  61.83   0
        34    294.2624    956.5786 307.7882538  +6.2921609      920.868      1768.68     2845.946     89.95171      180.334      360.417      2.829     5.87     1190.783     63.55464     131.4015        12     1.293     1.035  73.94   0
        35    898.7856    949.0905 307.5373180  +6.3153637     5067.561     10156.98     10346.65     90.09529     180.1188     360.3812      2.109     5.36     1178.557     63.55464       573.83        42     1.858     1.269  64.29   0
        36    435.0197    946.1314 307.7301222  +6.3011693     1365.816     3044.455     3838.942     89.95171     180.1906     360.4529      2.362     7.58     1187.646     63.55464     167.8813        21     1.888     0.852  46.33   0
        37    336.4594    944.8284 307.7711187  +6.2984221      5929.65     12832.29      14913.4     89.95171     180.4056     360.4887      2.322     5.27     1190.218     63.55464      629.772        57     1.998     1.443  59.69   0
        38    256.6649    944.0140 307.8043009  +6.2960962     4433.397     9926.109     11304.38      89.8079     180.1188     360.4887      2.339     5.42     1190.328     63.55464     513.9292        55     2.074     1.499  51.02   0
        39    584.4647    937.9841 307.6683009  +6.3095104     899.6412      1643.68     1810.607     89.80791     180.1906      360.417      1.639     5.73     1185.318     63.55464     128.0116        10     1.745     0.531  37.82   0
        40    915.2827    934.9382 307.5309392  +6.3217568     770.2758     1729.652     3253.552     90.52466      180.334     360.5246      3.547     6.26     1177.585     63.55464     110.1237         7     1.241     0.887 -85.14   0
        41    751.0549    927.8714 307.5994194  +6.3192255      1090.17     2263.146     2813.727     90.23864     180.2623     360.5246      2.177     6.61     1182.024     63.55464     129.3888        14     1.429     0.858  64.06   0
        42    983.2844    924.3285 307.5030387  +6.3283936     602.5203     1201.557     1844.948     90.52466     180.6205     360.5963      2.165     2.73      1176.63     63.55464     119.2103         5     0.712     0.463  15.25   3
        43    981.6923    921.4472 307.5037972  +6.3295310     819.1553     1223.407     1043.752     90.38177     180.2623     360.7038      1.777     4.97     1176.346     63.55464     116.7083         7     0.975     0.719  50.64   2
        44    669.7303    920.6262 307.6334566  +6.3195160     1734.014     3463.759     4217.267     89.95171     180.1906     360.4887      2.346     5.35     1182.536     63.55464     186.5518        26     1.598     1.151  48.53   0
        45    535.9741    922.5754 307.6889701  +6.3142616     738.7435     1576.024     1911.794      89.8079     180.1188     360.4887      1.927     4.36      1186.05     63.55464     107.4312         8     1.174     0.462   9.39   0
        46    209.7305    915.9354 307.8247535  +6.3061274     1405.149     3031.964     3406.906     90.38176     180.4056     360.5963      2.256     7.03     1189.536     63.55464     178.2361        24     1.726     1.109  50.72   0
        47     66.2328    916.9290 307.8843430  +6.3009218     2027.974     4213.439     4415.347     90.23864      180.334     360.5604      2.184     6.01     1189.941     63.55464     245.7462        22     1.634     0.998  48.93   0
        48     83.6311    915.9689 307.8771467  +6.3019001     1380.687     2563.114     2410.558      89.8079     180.0471     360.2735      2.033     6.97     1189.895     63.55464     163.9539        18     1.643     0.829  51.51   0
        49    664.0957    909.8740 307.6361607  +6.3237702     4265.645     9255.695     10373.38     90.09529     180.4773     360.5604      2.277     5.13     1182.271     63.55464     492.1946        48     2.002     1.354  58.59   0
        50    901.8546    906.1243 307.5374888  +6.3332138     2099.018     4557.091     5571.723     90.23864      180.334     360.5963      2.401     6.33     1176.237     63.55464     248.4493        31     1.770     1.240  61.89   0
        51     24.9117    908.9978 307.9017808  +6.3028157     812.6707     1591.728     1932.164     89.66386     179.9034     360.2735      2.196     4.49      1189.66     63.55464     116.3552         6     0.997     0.575  45.83   0
        52    453.4489    907.7985 307.7237605  +6.3176174     483.1961     961.0798     204.9378     89.66386     179.9034     360.0941      1.539     5.25     1186.746     63.55464     84.57141         5     1.259     0.619 -65.42   0
        53    347.2431    903.1664 307.7680479  +6.3159908     9957.547     22001.72     25808.79     90.09529      180.334     360.3453      2.361     5.26     1189.409     63.55464     1042.801        69     2.087     1.527  57.71   0
        54     82.3344    903.5167 307.8781080  +6.3070002     772.8107     1450.156      1504.83     90.52466     180.6205     360.6321      2.016     4.00     1189.455     63.55464      119.712         6     1.041     0.439  55.48   0
        55    217.5997    902.1487 307.8219510  +6.3120849     881.4494     1721.245     2204.188     89.51959     179.7597     360.0582      2.400     4.75     1189.402     63.55464      137.662         8     1.065     0.602  25.38   0
        56    425.1628    893.5184 307.7359970  +6.3225736     708.0868     1278.857     1339.672     90.38176     180.4056     360.5246      1.945     5.46     1186.781     63.55464      116.916         7     1.543     0.545  54.94   0
        57    110.8062    893.6253 307.8666134  +6.3120377     1083.441     2000.842     2414.569     89.80791     180.1188     360.3453      2.078     6.12      1189.14     63.55464     153.8885        13     1.340     0.890  65.85   0
        58    863.7788    886.2409 307.5539804  +6.3401642     2889.991      5021.42     5260.093     89.95171     180.1188     360.3453      1.934     8.45      1175.63     63.55464     2422.372        24     1.982     1.008 -50.84   0
        59    892.0753    887.6171 307.5421755  +6.3405344     1517.413     2869.542     2808.134      89.8079     180.0471      360.417      1.985     5.55     1175.391     63.55464     174.4551        19     1.342     1.103  72.98   0
        60    826.4445    886.6663 307.5694804  +6.3387495     2053.603     4299.724     4311.057     90.38177     180.2623     360.5963      2.176     5.46     1176.943     63.55464     231.5421        31     1.706     1.223  60.64   0
        61     94.0429    886.9948 307.8738036  +6.3142161     1367.735     3167.647      3514.07     89.66386     179.9753     360.2018      2.361     7.18     1188.833     63.55464     173.1127        24     1.802     1.125  42.38   0
        62    562.2492    878.3231 307.6795466  +6.3334154     206303.4     455551.8     525479.6     90.23864     180.4056     360.5604      2.354     5.20     1183.846     63.55464     21052.54       179     2.210     1.756  60.15   0
        63    406.5792    881.0047 307.7441421  +6.3271232     4757.831     10766.65     12505.12     89.95171     180.0471     360.3453      2.330     5.37     1186.895     63.55464     501.5885        53     2.015     1.469  50.80   0
        64    349.7991    879.3596 307.7677915  +6.3259097     7476.092     16943.17     19585.73      89.5196     180.0471     360.2735      2.369     5.27     1188.774     63.55464     851.2335        61     2.010     1.562  59.54   0
        65    649.7262    880.6562 307.6431176  +6.3353615     822.1725     1472.135     1895.958     90.23864     180.1906     360.5246      1.968     4.38     1181.425     63.55464      100.285         7     0.976     0.560  58.37   0
        66    461.9986    881.2125 307.7211067  +6.3288840     772.6045     1389.257     2229.416     89.95171     179.9753     360.3094      1.534     2.44     1185.853     63.55464     400.9722         5     1.183     0.394   5.65   0
        67    667.9347    875.6968 307.6357185  +6.3380154     2102.525     4729.783     4754.923     90.38176     180.4056     360.5963      2.252     6.41     1181.011     63.55464     219.6345        30     1.701     1.319  70.14   0
        68    900.4159    874.3257 307.5391569  +6.3463014     3712.093     7626.778     8880.323     89.80791     180.0471      360.417      2.246     4.94     1174.547     63.55464     408.2234        39     1.742     1.318  56.21   0
        69    642.8542    869.5662 307.6463474  +6.3397140     2140.499     4604.106     5975.013     90.23864      180.334     360.5246      2.575     5.79     1181.084     63.55464     223.8629        30     1.639     1.280  64.76   0
        70    831.0195    867.8398 307.5682134  +6.3466782     1019.219     1942.794     2462.274     89.95171     180.1188     360.2377      2.126     6.34     1175.349     63.55464     133.3364        13     1.285     0.911  74.18   0
        71    958.3211    866.8167 307.5153466  +6.3513232      654.408     1171.703     1228.476     89.95171     180.0471     360.4529      1.712     4.64     1172.378     63.55464     114.2036         5     0.866     0.705   5.48   0
        72    635.8428    864.0403 307.6494474  +6.3417634     1340.927     3387.316     5488.308     90.09529      180.334      360.417      3.274     9.11     1180.906     63.55464      173.569        26     1.766     1.312  65.34   0
        73    919.4122    862.1367 307.5316731  +6.3519664     2333.647     4591.458     5215.801     89.80791     180.1188     360.3094      2.096     5.67     1173.699     63.55464     312.5502        30     1.879     1.012  58.62   0
        74    377.8306    858.3301 307.7568551  +6.3355310     1531.692     3715.056     4137.892     90.23864      180.334     360.5246      2.366     8.02     1187.122     63.55464     175.1843        29     1.784     1.297  46.54   0
        75    513.9120    848.0905 307.7006540  +6.3442946     1729.241     3978.815     4267.767     90.09529      180.835      360.668      2.408     6.69     1183.427     63.55464     235.6526        28     1.769     1.234  53.57   0
        76    857.2920    846.4484 307.5580160  +6.3563863     656.9432      1336.93     1344.235     90.23864     180.1906     360.7038      2.841     4.91     1173.625     63.55464     107.4421         5     1.407     0.486  84.63   2
        77    560.6394    844.1024 307.6813713  +6.3474974       3442.1     8093.037     10060.46     90.38176     180.1906     360.8113      2.540     5.99     1182.079     63.55464      370.869        49     1.988     1.507  54.73   2
        78    566.8452    843.0187 307.6788291  +6.3481515     891.2983     2138.272     2869.199     89.95171     180.1906     360.2735      2.469     6.01     1181.775     63.55464     124.4559        10     1.464     0.694 -65.38   3
        79    478.5324    842.6375 307.7155402  +6.3453689     1084.044     2281.071     2065.338     90.23864      180.334     360.7038      2.308     5.59     1183.576     63.55464     139.9856        13     1.384     0.855  69.58   0
        80    896.3037    842.5319 307.5419360  +6.3592984     879.8242     1621.795     1530.102     90.23864     180.4773     360.5963      1.962     5.35     1172.957     63.55464     124.5199         9     1.037     0.778  23.31   0
        81    531.3407    838.0403 307.6937511  +6.3490262     11824.05      26494.9     30255.76     90.38176      180.334     360.6321      2.365     5.28     1182.493     63.55464     1244.923        68     2.075     1.565  56.52   0
        82    119.9167    840.8041 307.8646196  +6.3341604     671.1976     1508.883     1432.254      89.8079     179.9034     360.2377      2.351     6.35     1188.004     63.55464     85.20264         8     1.419     0.799  48.38   0
        83    944.8290    836.0055 307.5219900  +6.3636034     2608.791     5220.209     5843.075     89.80791     180.1188     360.3453      2.086     5.95       1171.3     63.55464     261.6458        29     1.749     1.125  56.97   0
        84     41.9926    828.7288 307.8974086  +6.3365425     907.3849     1882.194     1804.286      89.8079     179.8316     360.4887      2.094     7.10     1187.489     63.55464     114.9333        11     1.307     1.081  40.10   0
        85    324.1006    826.8296 307.7802481  +6.3467509     1931.494     4609.066     5129.305     90.38176     180.0471     360.6321      2.475     7.33      1186.97     63.55464     208.6506        32     1.821     1.325  58.78   0
        86    789.4316    822.4836 307.5870238  +6.3640331     35641.09     75503.95      85282.6     90.38177     180.1188      360.417      2.269     5.14     1174.049     63.55464     3490.182        90     2.059     1.586  58.65   0
        87     24.0238    825.2385 307.9049935  +6.3373830     1300.316     3032.731     2938.397     89.95171     180.0471     360.3453      2.256     8.16     1187.377     63.55464      182.787        22     1.709     1.171  63.87   0
        88    246.5626    820.2782 307.8126902  +6.3468694     3269.287     7884.856     11718.74     90.23864     180.4056     360.5604      3.109     7.41     1188.059     63.55464     340.4597        60     2.503     1.592  64.63   1
        89    712.6299    814.2905 307.6192164  +6.3648664      45460.8     114936.4     163744.6     90.52466     180.0471     360.5246      3.042     8.71     1176.279     63.55464     5400.243       173     3.469     1.808  34.27   0
        90    914.6201    817.6052 307.5351632  +6.3702025     6015.169     12569.03     13877.17     89.95171     179.9753     360.3453      2.188     5.19     1171.436     63.55464     649.4553        50     1.882     1.420  67.91   3
        91    911.5535    809.1263 307.5367231  +6.3736033     4529.057     9237.553     10175.45     90.23864     180.4056     360.5604      2.185     5.01     1170.997     63.55464     514.6617        43     1.850     1.381  51.56   3
        92    356.3932    814.7068 307.7672394  +6.3528354     11552.27     27522.58     33261.07     89.95171     179.9753     360.3453      2.522     5.69     1185.325     63.55464     1253.942        79     2.198     1.680  57.71   0
        93    418.2752    812.4156 307.7416019  +6.3558449      12519.2     29182.58     34107.36     89.80791     180.0471      360.417      2.452     5.52     1184.154     63.55464     1255.211        76     2.180     1.608  58.94   0
        94    405.7039    813.8204 307.7467784  +6.3548456     930.2463     1856.129     2401.424     90.23864     180.1188     360.3453      2.271     6.81     1184.451     63.55464      121.854        11     1.444     0.904  35.90   0
        95    955.3352    810.9660 307.5184664  +6.3742950     1541.396     2905.503     2965.462     90.23864      180.334     360.5604      1.973     7.32     1169.291     63.55464     194.5541        19     1.530     0.997  75.88   0
        96    246.3272    799.1166 307.8135050  +6.3556026     790601.8      2439843      3062454     90.66733      180.692     360.5963      2.856     7.89     1187.388     63.55464     63795.27       540     2.745     2.146  62.69   4
        97    652.2578    808.1053 307.6445138  +6.3654144     3935.417     8617.305     9272.139     90.23864      180.334     360.7396      2.267     5.30     1177.814     63.55464     397.6125        46     1.919     1.411  57.65   0
        98    441.1243    805.8052 307.7323304  +6.3593368     1005.584     1891.843     1771.139     89.95171     179.7597      360.417      2.056     6.11      1182.81     63.55464     131.0773        14     1.406     0.952  75.19   0
        99    687.4503    798.6786 307.6302068  +6.3704784     1512.542     3243.476     3490.153     90.38177     180.4056     360.5604      2.147     8.08     1176.492     63.55464     163.7452        23     1.808     1.049  54.50   0
       100    421.1128    795.1306 307.7410074  +6.3630793     30056.44     70485.63     84481.05     90.52466     180.6205     360.5963      2.491     5.56     1183.249     63.55464     3046.811       113     2.281     1.783  57.80   0
       101    130.8210    798.2784 307.8615310  +6.3520903     741.0286     1318.201     1229.877     89.95171     179.9753     360.5604      1.740     3.56     1187.164     63.55464     121.6791         5     0.965     0.379  86.36   0
       102    538.9102    793.9689 307.6920945  +6.3674828     4192.986     9494.404     10669.73     90.52466     180.1188     360.4887      2.378     5.63     1179.284     63.55464     428.1361        49     2.057     1.435  58.73   0
       103    455.4602    792.3629 307.7268275  +6.3653671     2592.374     6088.559     7616.171     90.38177     180.4056     360.5246      2.611     6.45     1181.398     63.55464     257.3925        43     2.001     1.401  58.93   3
       104    452.3232    785.9230 307.7283489  +6.3679227     1343.388     3125.331     3877.056     90.66733     180.6205      360.668      2.544     6.86     1181.247     63.55464     157.8033        22     1.517     1.206   5.84   3
       105    783.9158    790.6268 307.5903896  +6.3770093     7425.316     16082.36     17670.85     90.52466     180.0471      360.417      2.253     5.15     1172.415     63.55464     777.3267        58     1.983     1.507  54.56   0
       106     14.0151    786.4326 307.9104701  +6.3530770      741.478     1652.735      1506.59     89.95171     180.0471     360.4529      2.237     7.19     1186.851     63.55464     98.61609        11     1.400     1.033  31.95   0
       107    149.8421    782.4417 307.8541641  +6.3592675     1743.971     3935.043     5204.158     90.09529      180.334      360.417      2.712     7.33     1186.182     63.55464     190.9958        29     1.966     1.141  51.43   3
       108    133.9182    773.3116 307.8610909  +6.3625066     1207.997     2695.003     2816.942     90.09529     180.5489      360.668      2.331     8.28      1185.63     63.55464     148.5828        23     1.910     1.002  48.00   3
       109    141.8974    782.7642 307.8574545  +6.3588688     6887.816     15691.31     20876.05     90.38176     180.1906     360.7396      2.703     5.36     1186.244     63.55464      702.147        75     2.258     1.721  37.63   3
       110    134.2181    779.5453 307.8607548  +6.3599417     1805.614     4295.438       5573.2     89.80791      180.334     360.3094      2.707     7.76      1186.06     63.55464     191.4438        36     2.039     1.319  73.38   3
       111    929.4089    779.1235 307.5303124  +6.3865889     4355.843     9220.837     10570.67     89.95171     179.7597     360.3453      2.250     5.13     1168.975     63.55464      535.962        42     1.883     1.315  59.03   0
       112    978.5949    779.1860 307.5098691  +6.3881937     926.4893     2183.428     3432.469     89.95171     180.0471      360.417      2.655     6.93     1166.339     63.55464     127.9208        12     1.587     0.848  58.40   0
       113    571.9781    775.9415 307.6789614  +6.3760300     1213.812     2810.372     3103.689     89.95171     180.2623     360.3812      2.260     7.80     1177.141     63.55464     143.0322        18     1.641     1.037 -87.73   0
       114    684.6320    776.1811 307.6321370  +6.3796778     1022.669     2231.333     3152.722     89.80791     180.1188      360.417      2.422     7.16     1174.719     63.55464       128.26        17     1.424     1.148 -48.39   0
       115    923.6558    771.0783 307.5329742  +6.3897215     2081.108      3904.48     3970.391     90.52466      180.334     360.5604      2.023     5.99     1168.561     63.55464     226.2467        24     1.696     1.055  81.91   0
       116    953.2357    770.7180 307.5206931  +6.3908510     2183.754     4268.382     4741.923     90.38177      180.334     360.5246      2.088     5.40     1167.296     63.55464     250.1748        27     1.683     1.072  52.02   0
       117    984.1172    770.0125 307.5078827  +6.3921661     1304.646     2633.612     2830.677     89.95171     180.0471     360.3812      2.091     5.13     1165.755     63.55464     238.1426        22     1.580     1.114  70.31   0
       118    675.6316    770.1935 307.6360794  +6.3818519      876.416     2006.094     2405.892     89.66386     180.1188     360.3094      2.487     8.10     1174.687     63.55464     113.7537        14     1.926     0.953  49.96   0
       119    823.6935    769.1747 307.5745815  +6.3871913     632.5117      1245.09     1270.466     90.52466     180.0471     360.3812      1.515     3.63     1170.142     63.55464     105.4204         5     1.010     0.375   3.50   0
       120    248.2521    765.0545 307.8138592  +6.3697366     1014.288     2449.507     4821.954     90.52466     180.2623     360.5604      4.250     6.07     1185.093     63.55464     146.6353        14     1.394     1.062  88.85   2
       121    940.9823    759.3348 307.5261686  +6.3951470     687.7471      1397.74     1521.389     89.95171      180.334      360.417      2.482     5.09     1167.183     63.55464     100.1715         5     0.975     0.752 -41.49   2
       122    967.8846    758.6497 307.5150111  +6.3963218     1578.448     3341.772     3814.515     90.38176      180.334      360.668      2.220     6.45     1166.042     63.55464      173.676        22     1.593     1.099  59.01   0
       123    419.5961    773.7803 307.7423598  +6.3718479     608.8014       1192.6     2177.003     89.95171     179.9034     360.3453      2.375     3.49     1182.081     63.55464     87.38708         5     0.772     0.455  72.89   0
       124    687.6732    757.9749 307.6314874  +6.3872994     728.0357     1795.409     2858.739     89.95171     180.1906     360.4887      2.613     6.10     1173.106     63.55464     97.50427         8     1.487     0.703  -7.34   0
       125   1009.8861    751.6849 307.4977896  +6.4005907     1363.343     2407.475     2480.411     90.09529     180.5489     360.6321      1.856     5.45     1164.112     63.55464     148.4985        16     1.298     0.960  39.48   0
       126    810.8322    750.3751 307.5805600  +6.3945300     604.6445      1261.61     1492.978     89.80791     180.1188     360.3453      1.983     3.48     1169.042     63.55464     89.02039         5     0.797     0.438 -18.04   0
       127    897.1395    747.3865 307.5447917  +6.3986286     1130.669     2275.614     2659.923     89.80791     180.1906     360.2377      2.192     5.28     1167.779     63.55464     151.8672        15     1.214     1.085  19.66   0
       128    872.1218    742.8234 307.5553427  +6.3996836     658.7047     1144.189      837.607     89.95171     180.1188     360.5246      1.374     3.94      1168.26     63.55464     93.76965         6     1.663     0.267  51.38   0
       129    854.5009    738.8557 307.5627995  +6.4007379      1042.18     1961.501     1953.909     90.09529      180.334     360.8113      1.938     6.68     1168.281     63.55464     114.1464        15     1.346     0.931  53.55   0
       130     53.5322    737.6347 307.8957059  +6.3745552      1402.56     3264.039     3391.903     90.23864     180.4056      360.668      2.396     7.32     1185.036     63.55464     200.7269        24     1.595     1.256  67.13   0
       131    666.0550    726.5247 307.6415329  +6.3995720     3520.266     8267.886     8975.328     90.23864      180.334     360.5246      2.397     5.77     1171.497     63.55464     336.1805        47     1.985     1.435  59.51   0
       132    614.1704    727.6730 307.6630570  +6.3973721     744.3806     1507.643     1682.907     90.23864      180.334     360.5246      2.598     4.62     1172.853     63.55464     105.7959         7     1.126     0.538  26.31   0
       133    129.3199    722.6370 307.8647207  +6.3832844     2025.174     4884.808     5427.979     90.23864     180.4056     360.5246      2.446     7.11     1183.252     63.55464     234.2797        36     1.822     1.420  65.39   0
       134   1002.8484    721.4221 307.5017323  +6.4128585     1635.799     3508.568      3875.06     89.95171      180.334     360.4529      2.271     6.02     1163.333     63.55464     211.1622        21     1.512     1.091  63.74   0
       135    783.0424    718.6314 307.5931792  +6.4067198      11836.5     27043.99     31862.99      89.8079     180.1906     360.3812      2.398     5.25      1167.09     63.55464     1202.166        71     2.070     1.597  60.33   0
       136    639.7272    721.7001 307.6526374  +6.4006894     1198.242     2303.968     2570.185     90.09529     180.4773     360.5246      2.016     5.62     1171.687     63.55464     131.1873        17     1.242     1.050 -14.51   0
       137    912.9290    718.0863 307.5392160  +6.4112556     2493.661     5485.314     5752.903     90.52466     180.6205     360.5963      2.302     5.74     1165.298     63.55464     281.7041        35     1.895     1.205  76.43   0
       138    482.5175    719.2243 307.7180560  +6.3964796     708.9836     1478.895     1723.389     90.23864     180.0471     360.4887      2.023     6.66     1176.555     63.55464     100.6072         8     1.295     0.961 -75.65   0
       139    256.7629    712.4752 307.8121038  +6.3917392     3173.326     7958.415     9037.066     90.23864     180.4056     360.5963      2.580     6.29     1182.061     63.55464     377.1366        50     2.032     1.566  58.68   0
       140    663.4921    711.4367 307.6431072  +6.4057192     3914.393       9308.9     11022.36     90.52466     180.1906     360.5963      2.542     5.97     1170.045     63.55464     416.8175        56     2.205     1.522  56.31   0
       141    922.7345    703.7155 307.5356244  +6.4175171     859.2676     1349.556     1459.005     90.52466     180.6205     360.6321      1.787     5.34     1163.917     63.55464     109.7133         8     1.387     0.580  80.07   0
       142    735.0300    699.8328 307.6137672  +6.4128902     2218.526     5075.358     6178.501     89.80791     180.0471     360.2377      2.422     5.96      1166.84     63.55464     253.4847        34     1.726     1.367  63.70   0
       143   1001.6071    696.3214 307.5030925  +6.4231860     5958.004     12294.04        12727     89.95171     179.7597     360.3094      2.101     5.19     1162.306     63.55464     690.3057        44     1.899     1.298  55.77   0
       144    939.8728    696.7779 307.5287350  +6.4209511     1639.964     3409.631     3386.813     89.95171     180.1188     360.4887      2.060     5.51     1163.064     63.55464      208.166        19     1.564     0.910  49.71   0
       145     79.1283    691.5435 307.8866337  +6.3944495     14423.16     33530.43     40499.93     90.52466     180.2623     360.5246      2.508     5.59     1183.141     63.55464     1486.107        88     2.249     1.701  59.82   0
       146     21.5153    696.2525 307.9104159  +6.3905770     1159.068     2327.263      3269.66     90.38177     180.2623     360.7038      2.669     5.33     1184.177     63.55464     147.1891        14     1.214     0.977 -51.33   0
       147    540.1328    692.1116 307.6950279  +6.4095977      1149.31     2405.804     2613.215     90.52466     180.5489     360.5246      2.079     5.61     1173.167     63.55464     138.3789        13     1.286     0.793 -55.04   0
       148    509.2564    689.2191 307.7079578  +6.4097644     800.0741     1603.386     1892.581     89.80791     180.2623     360.3453      2.280     6.11     1173.929     63.55464     119.9846        10     1.306     0.805  34.61   0
       149    747.0685    681.9371 307.6093674  +6.4206824     2387.987      5592.17     6656.727     90.38176      180.334     360.6321      2.529     6.45     1165.708     63.55464     278.1428        40     2.001     1.345  58.58   0
       150    725.0053    683.5647 307.6184823  +6.4192771     2047.423     4780.283     5403.042     89.51959     180.0471     360.3094      2.407     6.08     1166.269     63.55464     212.6638        31     1.702     1.316  42.86   0
       151    578.5145    679.7659 307.6794934  +6.4159748     1814.203     4448.446     5253.551     90.38177     180.1906     360.5604      2.452     7.53      1170.71     63.55464     207.4125        35     1.994     1.315  47.29   0
       152    238.9023    679.7282 307.8206360  +6.4046693     895.3354      2216.71     2647.733     90.23864     180.4773     360.5604      2.561     7.16     1180.667     63.55464     105.1001        13     1.527     0.939  72.93   0
       153   1019.6848    677.8115 307.4962015  +6.4314310     3459.341      7093.35     7571.742     89.95171     180.0471     333.9468      2.081     5.56     1161.506     63.55464     369.7299        37     1.841     1.218  58.67  16
       154    985.1417    676.6986 307.5105959  +6.4307461     5440.465     11168.38     12445.25     90.09529      180.334     360.7396      2.187     5.19      1161.54     63.55464     569.8966        47     1.905     1.313  61.38   0
       155    414.1723    679.7857 307.7477935  +6.4104930     751.3937     1496.111     2574.927     89.95171     180.1188     360.4529      3.176     6.19      1176.98     63.55464      115.687         9     1.414     0.894  27.74   0
       156    323.3833    678.6356 307.7855638  +6.4079404     788.7695     1910.782     2279.943     89.95171     180.1188     360.3094      2.549     5.40     1179.245     63.55464     95.02014         9     1.418     0.581  13.18   0
       157    430.5388    671.2054 307.7412819  +6.4145828     1352.659         3629     4442.536     89.66386     180.1188     360.3094      2.626    10.45     1175.798     63.55464      158.563        32     1.940     1.569  71.43   0
       158    143.8590    670.5245 307.8604464  +6.4052958     12963.61     31180.96     37670.48     90.52466      180.334     360.5246      2.555     5.90     1182.523     63.55464     1358.154        81     2.290     1.679  60.23   0
       159     95.7147    672.7933 307.8803773  +6.4027490     477.4048     888.9131     896.5251     89.95171     179.9753     360.3094      2.239     4.90     1182.651     63.55464     93.02527         5     1.332     0.510  27.96   0
       160    811.3691    672.0277 307.5829770  +6.4269113     663.2992     1712.175      1726.84      89.8079     180.0471     360.3453      2.409     7.02     1163.501     63.55464     150.8959         9     1.770     0.854  13.65   2
       161    980.1152    659.7163 307.5132564  +6.4375946     4635.404     9905.813      11289.2     90.09529     180.4773     360.6321      2.286     5.18     1160.354     63.55464     461.6177        50     2.068     1.351  47.71   0
       162    573.7141    655.1149 307.6823212  +6.4259977     25176.29     61881.71      74534.7     90.09529     180.5489     360.6321      2.557     5.73     1169.377     63.55464     2492.637       103     2.254     1.811  60.69   0
       163    181.3204    651.7006 307.8455165  +6.4143230     1324.491      3310.48     2916.925     90.09529      180.692     360.5963      2.364     8.77     1180.734     63.55464     153.4723        25     1.896     1.132  38.15   0
       164    471.0175    638.9620 307.7255492  +6.4292503     31667.27     79653.57     98500.41     89.95171     180.1906     360.2735      2.625     5.92     1172.183     63.55464     3130.422       118     2.330     1.883  60.60   0
       165     14.6768    640.5083 307.9151510  +6.4133734     1024.432     2135.714     2298.311     90.09529     180.6205     360.5604      2.234     7.43     1182.322     63.55464      117.261        14     1.317     1.174 -73.04   0
       166    145.7484    634.7166 307.8608759  +6.4201496     724.2924     1494.013     656.2839     90.38177     180.2623      360.668      1.892     4.76     1180.306     63.55464     100.4203         6     0.953     0.673 -31.37   0
       167    316.5184    628.3386 307.7901201  +6.4284871     1095.207      2797.28     3989.832     90.52466      180.334     360.5604      2.971     9.21     1175.219     63.55464     124.6775        24     1.836     1.288  79.12   0
       168    742.9553    622.4235 307.6130839  +6.4451293     2755.462     6680.292     7483.023      89.8079      180.334     360.3812      2.397     6.08     1163.251     63.55464     294.1296        50     2.081     1.531  58.37   0
       169    796.5522    617.7064 307.5909662  +6.4488581     7978.789     18599.61     21827.25     90.23864     180.1906     360.7038      2.484     5.48     1162.001     63.55464     780.4045        69     2.108     1.657  60.86   0
       170   1013.3612    617.6965 307.5008516  +6.4560538     680.5838     1302.721     1050.401     90.38177     180.1906     360.7396      2.031     4.59     1156.816     63.55464     102.0271         7     1.088     0.551  27.11   0
       171    620.3658    615.6359 307.6642650  +6.4438575     1460.861     3515.175     3924.986     90.09529     180.0471     360.2735      2.608     7.10     1165.769     63.55464     179.5637        28     1.768     1.279  60.82   0
       172    537.8375    616.2135 307.6985465  +6.4408724     696.4543     1552.997      2577.14     89.80791     180.1188     360.2377      2.966     6.80     1167.569     63.55464     114.5176         9     1.327     0.977  78.95   0
       173    937.6050    611.6915 307.5325414  +6.4560233     548.4993     1290.216     1723.101     89.95171     179.9753     360.2735      2.960     4.44      1157.22     63.55464     110.3643         6     1.366     0.410  39.72   0
       174    872.4305    600.6077 307.5600042  +6.4584399     1632.458     3827.445     4226.877     89.80791     180.1188     360.3094      2.354     7.61     1159.141     63.55464       178.55        32     1.965     1.307  62.51   0
       175    831.1546    598.4219 307.5772340  +6.4579729      1490.19     3623.682     4155.567     89.95171      180.334     360.3812      2.431     7.31     1160.228     63.55464     186.1029        30     1.694     1.445  31.95   0
       176    811.8156    589.5561 307.5855710  +6.4609932     88701.08     208621.5     245684.7     89.80791     180.1188     360.3453      2.470     5.49     1160.315     63.55464     8891.161       170     2.242     2.088  61.93   0
       177    259.3979    593.5472 307.8150386  +6.4409516     3995.245     9811.856     12428.26     89.66386     180.0471     360.0941      2.679     6.20     1174.551     63.55464     445.9609        60     2.196     1.640  59.76   0
       178    193.6189    588.0352 307.8425642  +6.4410314     29140.46     74650.39     94000.23      89.8079     180.1188     360.3094      2.684     6.02     1176.776     63.55464     3026.939       120     2.403     1.913  61.76   0
       179    117.6720    584.2086 307.8742582  +6.4400736     3199.669         7944     9408.619     89.80791     179.8316      360.417      2.586     6.05     1177.879     63.55464     347.5261        53     2.079     1.566  64.77   0
       180    982.4297    581.1857 307.5149367  +6.4701106     842.4041     1647.696     1679.158     89.95171     180.0471     360.4887      1.899     7.16     1153.947     63.55464     109.7705        15     1.623     0.884  74.96   0
       181   1003.2724    580.6959 307.5062897  +6.4710037     551.4281     1128.867       1215.1     90.09529     180.4773     360.5246      1.899     4.42      1153.38     63.55464     95.57483         5     0.993     0.560  51.75   0
       182    848.5054    576.9932 307.5707442  +6.4674005     2356.889     5710.935     6361.425     90.09529     179.9753     360.3453      2.387     6.36     1158.649     63.55464     234.4701        42     1.951     1.422  53.98   0
       183    367.0012    575.1358 307.7709400  +6.4521474     8184.394     21453.27     26443.66     89.66386     180.0471     360.3094      2.682     6.15     1171.113     63.55464     836.4849        81     2.260     1.841  60.68   0
       184    168.8083    574.5459 307.8533332  +6.4457742       929.15     2504.015     4240.036     89.80791     180.2623     360.2377      3.592     8.09      1176.87     63.55464     111.7095        15     1.614     1.133  20.20   0
       185    533.3036    569.9778 307.7019935  +6.4598200     3145.117     8110.713     9955.983     90.38176     180.1188     360.3453      2.639     6.55     1165.895     63.55464      341.101        55     2.076     1.691  50.84   0
       186    802.2890    570.1440 307.5901850  +6.4686955     3200.582     7494.174     9140.039     90.38176     180.1906     360.7038      2.496     5.90     1159.488     63.55464     375.7488        46     1.941     1.498  62.06   0
       187    180.4057    563.3602 307.8488926  +6.4507821     3406.634     8582.498     11430.38      89.5196     179.9753     360.2377      2.923     6.25     1175.844     63.55464     409.3953        59     2.191     1.677  64.45   0
       188     52.0672    562.2224 307.9022705  +6.4469608     2544.719     6734.784     8516.571     89.95171     180.2623     360.5246      2.692     7.14      1178.75     63.55464     268.6012        47     2.147     1.471  62.44   0
       189    275.6471    559.7111 307.8094317  +6.4554704     41935.36       107987     135023.3     90.38177     180.1906     360.7396      2.712     6.13     1171.877     63.55464     4155.288       123     2.395     1.917  60.80   0
       190    578.4345    562.8391 307.6834765  +6.4642711      1200.99     2966.748     3783.206     90.09529     180.1906     360.3453      2.762     7.40     1163.834     63.55464     159.3066        21     1.702     1.359  21.63   0
       191    502.3614    550.4616 307.7155142  +6.4668510     20765.35     53680.21      69416.5     90.38177      180.334     360.5963      2.782     6.04      1165.39     63.55464     1980.856       113     2.414     1.991  50.92   0
       192    975.0179    553.0054 307.5189657  +6.4815057     1054.862     2201.859     2471.055     89.95171     179.9034     360.3812      2.288     7.90     1151.717     63.55464     119.8347        17     1.556     1.122  45.77   0
       193    798.6854    551.9205 307.5922972  +6.4761035     8805.203      20804.3      24616.7     90.23864      180.692      360.668      2.470     5.54     1158.578     63.55464     905.5342        67     2.086     1.649  53.46   0
       194    215.0281    547.0608 307.8350554  +6.4586714     901.7916     2427.012     3611.523     89.95171     180.4056     360.4887      3.177     8.19     1173.362     63.55464     114.3806        16     1.538     1.219  73.43   0
       195    662.3434    545.2035 307.6491953  +6.4743473     1446.848     3869.071       5292.5     89.66386     180.1188     360.2018      3.188     9.01     1160.696     63.55464     166.1588        30     1.664     1.480  24.57   0
       196    724.6895    544.9793 307.6232883  +6.4765125     862.3041     2052.342     2139.438     90.23864     180.0471      360.417      2.443     5.92     1160.005     63.55464     145.9088         8     1.269     0.779  78.01   0
       197    331.6144    538.7933 307.7868785  +6.4659786     1885.788      4451.27     5669.202     89.95171     180.0471     360.3812      2.694     6.35     1169.511     63.55464     226.5947        35     1.789     1.483 -86.00   2
       198    146.6857    538.0989 307.8637643  +6.4600894     13073.37      32699.2     40038.96     90.38176      180.835     360.6321      2.617     5.85     1175.571     63.55464     1412.045        91     2.270     1.845  62.28   0
       199    399.8259    539.9407 307.7584882  +6.4677798     747.5765     2029.714     2805.974     89.95171      180.334     360.3812      2.947     6.60     1167.946     63.55464      105.761         9     1.347     0.906 -62.50   0
       200    511.8970    538.6072 307.7119515  +6.4720653      1042.63     2507.421     3132.621     90.09529     179.9034     360.2735      2.558     7.96     1164.573     63.55464     128.5419        16     1.709     1.036  27.62   0
       201    873.8777    537.3992 307.5615318  +6.4845979      970.808     2006.829     2192.521     89.51959     179.6878     360.2735      2.169     6.71     1155.635     63.55464     114.1473        11     1.254     1.008  73.30   0
       202    112.2794    536.1744 307.8781297  +6.4597340     1331.261     3031.666      3834.52     90.09529     180.1906     360.5246      2.512     7.12     1176.268     63.55464     154.9551        21     1.444     1.260  50.00   0
       203    972.1171    532.3337 307.5208672  +6.4899485     3211.992     6712.208     7431.048     90.66733     180.6205     360.6321      2.214     5.25     1150.341     63.55464      331.125        40     1.894     1.283  55.38   0
       204     11.0461    522.5215 307.9206680  +6.4619864     13415.63      32770.5     40201.96     90.38176     180.4056     360.5246      2.596     5.84     1177.662     63.55464     1377.085        88     2.284     1.771  57.09  16
       205    544.9436    524.3628 307.6986971  +6.4790496     783.2422     1971.616     2591.714     90.38176     180.4056     360.5963      2.670     5.80     1163.165     63.55464     107.0936         8     1.467     0.646  78.84   0
       206    443.6885    519.1450 307.7409606  +6.4778320     20540.52     52628.95     66163.45     90.38176     180.1906     360.7396      2.695     6.03     1164.662     63.55464     1956.842       103     2.335     1.885  58.87   0
       207    651.6203    518.6804 307.6545479  +6.4849467     6139.878     15128.97     18362.23     90.09529     179.9753     360.5246      2.610     5.93     1159.589     63.55464     611.7943        67     2.146     1.726  57.64   0
       208    208.9134    516.8086 307.8386226  +6.4709630     9522.955     24888.22     31737.09     89.95171     179.9753     360.3812      2.736     6.31     1171.064     63.55464     976.5594        84     2.330     1.824  57.34   0
       209    573.4908    515.3967 307.6871342  +6.4837036     1327.944     3512.807     4091.595     89.80791     179.9753     360.2377      2.674     6.96     1161.386     63.55464     167.8412        28     1.591     1.501  77.35   0
       210    947.3397    512.3619 307.5318388  +6.4973770     2869.305     6188.196     7000.566     90.38177     180.4056     360.5963      2.308     5.60     1150.256     63.55464      304.498        39     1.796     1.425  56.76   0
       211    620.4924    511.0930 307.6677428  +6.4870453     3239.504     8033.172      9969.13     90.38176     180.9065     360.5604      2.580     6.03     1159.815     63.55464     324.9003        50     1.983     1.598  63.21   0
       212    969.7056    504.4040 307.5228096  +6.5014057     2066.151     4560.618      5266.93     90.09529     179.9753     360.3094      2.371     5.75     1148.668     63.55464     232.7268        30     1.684     1.195  65.33   0
       213    532.7817    502.4242 307.7044938  +6.4877068     3493.161     9110.582     11102.46     89.95171     180.1906     360.4887      2.694     6.72      1161.33     63.55464     342.1388        57     2.248     1.589  60.25   0
       214    378.8920    502.0821 307.7684708  +6.4827198     1352.281     3176.966     3559.636     90.09529      180.692     360.6321      2.434     6.58      1165.12     63.55464     165.7687        27     1.612     1.308  62.98   0
       215    889.0870    498.0247 307.5565360  +6.5013672     1764.879       3856.4     4684.934     90.52466     180.1188      360.417      2.403     7.40     1152.441     63.55464     189.4937        30     1.835     1.252  63.20   0
       216    896.5873    492.7569 307.5535957  +6.5037920      1238.55     2823.181     3240.311     89.80791     180.1188     360.2735      2.262     7.38     1151.698     63.55464     144.5834        20     1.548     0.996  73.49   0
       217    935.1205    490.6615 307.5376486  +6.5059357     593.6915     1307.134     1378.969     90.52466     180.4056     360.5604      2.479     5.20     1149.533     63.55464     95.11523         5     1.051     0.727 -75.81   0
       218    720.1877    488.0675 307.6270796  +6.4998716     1555.993     3645.472     4455.796      89.8079     180.1906     360.4529      2.550     6.66     1156.363     63.55464     179.8474        26     1.697     1.123  58.23   0
       219    391.4814    486.6449 307.7637605  +6.4895161     1721.979     4090.986     4990.699     90.38177      180.334     360.5246      2.523     6.32     1163.619     63.55464     190.6095        32     1.719     1.399 -85.15   0
       220     82.7130    487.1024 307.8920841  +6.4790145     943.8399      2288.82     2938.891     90.38176      180.835     360.5963      2.720     8.09      1174.77     63.55464     144.0605        15     1.561     1.171  47.47   0
       221    619.1616    483.3296 307.6692337  +6.4984693     4775.409     12167.92     15568.01     90.23864      180.334     360.6321      2.675     6.15     1158.992     63.55464     441.3296        63     2.098     1.743  66.61   0
       222    781.9697    479.6195 307.6016831  +6.5054140     8461.933      20512.4     26078.86      89.8079     180.1188      360.417      2.637     5.77     1154.306     63.55464     878.8705        83     2.155     1.974 -83.56   0
       223    301.8393    480.3342 307.8012346  +6.4891322     1293.779     3351.399     3648.885     90.23864     180.2623      360.668      2.732     9.55     1164.995     63.55464     180.8944        28     1.877     1.543  87.68   0
       224    384.7273    476.6733 307.7669055  +6.4934098     799.4744      2188.58      2687.02     90.66733     180.4773     360.6321      2.863     9.37     1162.803     63.55464     99.26184        14     1.721     1.423  86.18   0
       225    810.2678    475.7259 307.5900513  +6.5079621      822.301      1789.09     1986.224     90.52466     180.4773     360.5246      2.137     6.39     1153.422     63.55464     102.2715         9     1.450     0.790 -43.75   2
       226    966.9771    474.4944 307.5249505  +6.5136703     1302.479     2942.475     3316.239     90.38176     180.1188      360.417      2.374     8.03     1146.834     63.55464     132.7223        23     1.607     1.121  67.20   0
       227    119.5750    471.9112 307.8772785  +6.4865222     2294.273     5398.861     6731.063     90.52466     180.1188     360.3812      2.487     6.84     1172.614     63.55464     274.5363        46     2.138     1.475  49.95   0
       228   1021.0378    469.4295 307.5026482  +6.5175542     2820.929     6345.585     7224.162     89.95171     177.4438     315.5998      2.323     5.87     1143.761     63.55464     274.9635        38     1.940     1.252  57.04  24
       229    757.7557    473.0000 307.6119717  +6.5073440     683.2021     1262.098     2107.671     89.51959     179.9034     360.0941      1.771     3.85     1154.424     63.55464     120.9976         5     1.471     0.289   0.00   0
       230    757.3538    470.0259 307.6122390  +6.5085592     1133.125     2314.443     3191.856     89.95171     180.4056      360.417      2.269     5.71     1154.259     63.55464     139.9351        12     1.202     0.830 -11.32   0
       231    355.4574    466.4633 307.7794176  +6.4966509     1400.243     4036.621      4684.45     90.52466     180.2623     360.5963      2.816     9.94     1162.083     63.55464     159.3688        36     1.929     1.691  57.54   0
       232    277.3482    469.0693 307.8117962  +6.4929677     765.4622     1869.769     2281.146     90.23864     180.1906     360.4887      2.632     8.00      1164.79     63.55464      106.415         9     1.571     1.139 -40.05   0
       233    709.8748    462.7075 307.6322223  +6.5100044     722.1885     1378.194     2044.728     90.38176     180.4773     360.5246      2.415     6.04     1154.863     63.55464     92.63269         8     1.146     0.895 -29.93   0
       234    822.7347    453.5522 307.5856164  +6.5175355     1010.253     2409.746     3281.691     90.23864     180.2623     360.6321      2.945     7.63      1151.55     63.55464     141.1133        16     1.653     1.134  68.82   0
       235    837.8691    453.8955 307.5793136  +6.5178961      898.488     1616.553      2339.49     90.23864     180.4056     360.5963      2.493     5.40     1151.096     63.55464     115.0037        10     1.131     0.728 -82.15   0
       236    720.3129    451.4254 307.6282640  +6.5150116     7810.381      18952.5     23147.46     90.52466     180.1188      360.417      2.598     5.68     1153.811     63.55464     730.9077        72     2.168     1.752  62.03   0
       237    641.3126    447.5699 307.6612336  +6.5139775     1282.261     3426.047     4290.412     90.52466     180.1188     360.4529      2.773     7.28     1155.227     63.55464     149.3213        27     1.677     1.321  49.97   0
       238    613.7441    442.7215 307.6728572  +6.5150630      7155.19     20638.66     29627.45     90.52466      180.334     360.5604      3.093     7.64      1155.54     63.55464     720.2756        96     2.863     1.810  40.36   0
       239    945.4637    441.3950 307.5350077  +6.5266296     2252.881     5085.023     5397.362     89.66386     180.1188     360.3453      2.315     7.10     1145.507     63.55464     230.5841        35     1.941     1.237  64.94   0
       240    384.7992    437.5550 307.7681999  +6.5095705     13351.95      35112.1     43303.09     89.66386     179.9034     360.0941      2.708     6.11     1159.284     63.55464      1303.91        89     2.278     1.873  58.42   0
       241    131.0982    436.9698 307.8736748  +6.5013401      1190.83     3140.838     3515.217     90.38176     180.0471     360.5963      2.672     8.66     1169.543     63.55464     169.2998        23     1.790     1.254  38.51   0
       242    901.9839    437.3315 307.5532192  +6.5268660     702.5072     1252.031     1950.392      89.8079     180.2623     360.4529      3.049     9.86     1147.195     63.55464      91.2323         9     2.557     1.060  39.97   2
       243    900.0903    435.3095 307.5540745  +6.5276384     806.8797     1870.654     2156.454     90.38176     180.9065      360.668      2.953     4.62     1147.119     63.55464      132.193         7     0.807     0.752  17.67   3
       244    914.2956    431.7259 307.5482900  +6.5295899     3084.823     6695.547     7445.007     90.09529     180.5489     360.5604      2.273     5.20     1146.315     63.55464     340.7306        40     1.814     1.386  51.53   0
       245     64.7826    433.1353 307.9013694  +6.5007058      666.513      1935.61     2213.082     89.80791     180.2623     360.3812      2.813     7.41     1172.014     63.55464     103.2898        10     2.114     0.726 -38.35   0
       246    242.3342    428.1721 307.8277365  +6.5086914     6495.646      16847.4     20805.26     89.95171     180.2623     360.4887      2.688     6.15     1163.584     63.55464     674.1586        70     2.235     1.742  51.61   0
       247    142.6570    416.9740 307.8695488  +6.5099860     2556.524     6800.107     7781.387     89.95171      180.334      360.417      2.650     7.04      1167.45     63.55464     268.4694        50     2.098     1.615  62.57   0
       248    355.3895    417.7139 307.7810967  +6.5167851     612.6996     1589.741      2096.75     89.95171     180.0471     360.3812      2.554     6.85     1157.605     63.55464     120.7749         7     1.731     0.760  73.91   0
       249    388.3966    407.3791 307.7677262  +6.5221550     980.7468     2480.946     3101.035     89.95171     179.9753     360.3094      2.557     8.30     1156.462     63.55464      111.233        15     1.638     1.174  55.96   0
       250     38.2486    402.1325 307.9134515  +6.5126236     1494.148     3857.247     5111.396     90.23864     180.2623     360.5963      2.843     9.41     1171.576     63.55464     161.7749        33     2.071     1.448  60.34   0
       251    441.9684    401.0000 307.7456729  +6.5265761     3319.322     8869.835     11165.83     89.51959     180.0471     360.2377      2.760     6.54     1154.702     63.55464     349.9679        61     2.200     1.722  65.95   0
       252    782.3149    398.0680 307.6042897  +6.5391122     6843.355     15864.67     19601.88     90.66733     180.6205     360.5963      2.498     5.50     1148.488     63.55464      656.401        63     2.083     1.626  61.05   0
       253    774.2169    399.3091 307.6076143  +6.5383305     1142.908     2697.239     2987.601     90.09529     180.0471     360.4529      2.560     8.60     1148.807     63.55464     147.9902        21     1.864     1.109 -65.81   1
       254    164.9790    412.6718 307.8604163  +6.5125092     1223.658     3120.781     3730.912     89.95171     180.1906     360.5246      2.569     9.12     1166.128     63.55464      132.162        24     1.588     1.463  47.76   0
       255   1023.8345    392.3613 307.5040783  +6.5494820     627.1472     950.2281     1270.635     75.58462     140.0742     267.8841      1.356     3.58     1138.665     63.55464      135.877         5     1.009     0.366  86.11  24
       256    847.7810    380.9882 307.5776503  +6.5483412     18193.77     43370.11     52586.11     89.95171     180.0471     360.4529      2.519     5.57      1145.18     63.55464     1779.009        85     2.240     1.706  67.68   0
       257    489.8825    384.4135 307.7263164  +6.5350241     1497.295     3834.498     4543.731     89.95171     180.0471     360.3453      2.580     7.64     1151.287     63.55464     149.1915        30     1.596     1.494  50.83   0
       258    462.7948    384.7369 307.7375658  +6.5339880     1002.311     2590.773     2836.542     89.66386     180.1188     360.3094      2.396     7.46     1152.259     63.55464     131.5803        14     1.457     1.070  66.41   0
       259    619.4781    373.3654 307.6728164  +6.5439026     1277.202     3484.368     4313.312     90.23864     180.4056     360.5963      2.688     9.69     1148.059     63.55464     154.5879        30     2.026     1.469  39.77   0
       260    704.2781    367.0274 307.6377779  +6.5493410     39715.41      98707.7     120517.1     90.23864     180.2623     360.5604      2.611     5.76     1147.056     63.55464     4032.344       122     2.297     1.900  62.63   0
       261    862.4958    367.9207 307.5719735  +6.5542275      731.373     1871.322     2353.661     90.09529     180.6205     360.5963      2.637     6.76     1144.066     63.55464     109.9399        11     1.771     0.724  13.47   0
       262     84.1052    366.9706 307.8955846  +6.5286817      746.003     1777.846     2146.832     90.52466     180.0471     360.4529      2.445     8.05       1167.9     63.55464     115.3815        10     1.825     0.992 -31.15   0
       263    104.2126    362.8440 307.8873665  +6.5310588     3105.825     7902.603     9854.873     89.80791     180.1906     360.2735      2.666     6.63     1166.719     63.55464     324.6692        55     2.203     1.585  55.79   0
       264    566.3322    363.6219 307.6952389  +6.5461585     1328.686     3305.614     4108.641     89.95171     180.2623     360.4887      2.697     9.37     1148.005     63.55464     134.6589        28     1.815     1.349  78.45   0
       265    550.0698    360.0955 307.7021186  +6.5470737     3170.009     8504.647     10577.77     90.23864     180.4056     360.5963      2.716     6.52     1147.941     63.55464      350.079        62     2.180     1.758  64.40   0
       266    412.9376    355.2169 307.7592904  +6.5445196     11725.01     31473.57     40384.55     89.80791     180.2623     360.3812      2.789     6.38     1151.249     63.55464     1170.503        94     2.353     1.934  60.54   0
       267    278.6241    357.0581 307.8150621  +6.5392774     1280.745     3239.624     3905.947     89.95171      180.334      360.417      2.596     8.26     1157.976     63.55464     146.9559        24     1.718     1.231  57.59   0
       268    502.0254    345.6199 307.7225806  +6.5514529     4020.455     10732.49     13377.89     89.95171     180.1188     360.4529      2.750     6.62     1147.227     63.55464     430.0692        62     2.257     1.678  52.39   0
       269    771.2927    344.4473 307.6106804  +6.5608952      1530.71     3843.873     4647.743     90.23864     180.2623     360.7038      2.667     7.60     1143.901     63.55464     202.9915        30     1.632     1.445  65.49   0
       270    392.0236    329.9491 307.7688400  +6.5542592     3403.086     9205.354     11494.98     89.95171      180.334     360.4529      2.748     6.41     1150.059     63.55464     336.0203        60     2.089     1.769  62.74   0
       271    759.7176    325.5752 307.6161291  +6.5683062     27836.24     67821.48     83166.52     90.09529     180.0471     360.5246      2.605     5.67     1142.846     63.55464     2742.046       114     2.297     1.861  64.88   0
       272    247.9407    329.9549 307.8287360  +6.5494479     943.1921     2375.812     3383.913     90.23864     180.2623      360.668      2.860     7.56     1157.734     63.55464     102.7301        14     1.387     1.152  -1.97   0
       273    431.6407    325.0466 307.7525366  +6.5576054     1113.958     2758.787     3698.513     90.23864      180.334     360.3812      2.806     9.52     1147.821     63.55464        132.7        23     1.961     1.290  60.20   0
       274    994.3666    322.8438 307.5186684  +6.5772214     1002.614     2112.619     2136.586     89.95171      180.334      360.417      2.155     7.52       1135.8     63.55464     121.9014        15     1.505     1.053  59.92   0
       275    935.3287    321.6154 307.5432544  +6.5757714     1258.264     2922.004     3205.184     89.80791     180.2623      360.417      2.424     7.55     1137.629     63.55464     162.4196        22     1.676     1.348  57.39   0
       276    577.2670    322.3619 307.6920876  +6.5635656     711.2459     1659.118     1647.355     90.23864     180.2623      360.668      2.278     8.02     1143.433     63.55464     94.22083         8     1.587     1.133 -33.74   0
       277    418.1732    320.2962 307.7582960  +6.5591185     929.6455     2127.801     2694.628     90.52466     180.0471     360.4887      2.598     6.43     1148.099     63.55464     110.8043        10     1.287     0.903  64.39   0
       278    838.7623    315.5280 307.5836062  +6.5750817     868.8523     1649.192     1777.545     90.23864     180.2623     360.6321      2.052     4.49     1141.042     63.55464     133.4309         8     0.889     0.844  -4.65   0
       279    758.0968    310.0454 307.6173268  +6.5746672      3252.79      7697.75     9574.156     90.38176     180.1906     360.7396      2.572     6.30     1141.618     63.55464      337.803        55     2.169     1.569  62.19   0
       280    193.6118    311.5454 307.8519450  +6.5552368     1023.802      2502.88     3380.512     89.66386     180.2623     360.2018      2.711     6.54     1160.247     63.55464     118.6036        15     1.356     0.885 -67.11   2
       281    774.5148    307.9667 307.6105714  +6.5760713     1395.551     3161.368     3762.712     90.38176     180.1906     360.5246      2.384     7.37      1141.27     63.55464     149.2279        24     1.534     1.343  69.54   0
       282    362.2838    303.2793 307.7821064  +6.5642834     708.1251     1582.046      2263.04     90.52466      180.692      360.668      2.269     3.55     1150.522     63.55464     107.6766         5     1.022     0.356 -69.71   3
       283    365.1974    302.2954 307.7809285  +6.5647870     777.3388     2214.207     3129.892     89.95171     179.9753     360.2018      2.941     8.50     1150.281     63.55464     111.1173        12     1.898     1.063  80.73   2
       284    115.9833    303.8710 307.8844757  +6.5558114     6306.951      6356.63     6269.459     89.80791     180.2623     360.4529      0.449     1.96     1164.885     63.55464     4808.274         7     0.387     0.310 -89.79   0
       285   1012.8251    299.0163 307.5117963  +6.5876757     3492.589     7927.448     9041.847     90.09529     180.1906     360.4887      2.306     5.60     1133.107     63.55464     386.4949        43     1.981     1.324  55.26  16
       286    491.4456    299.0367 307.7285545  +6.5703423      942.494     2283.034     2977.393     90.09529      180.334     360.4887      2.838     7.27     1142.434     63.55464     122.7778        14     1.760     0.841  20.23   0
       287    253.6236    294.8988 307.8275621  +6.5641178     2734.484     7254.098     9498.278     90.52466     180.0471     360.3453      2.799     6.57     1155.394     63.55464     277.9219        56     2.122     1.691  68.68   0
       288    974.1400    284.3077 307.5283749  +6.5924692     703.5789     1655.307     2140.392     90.23864     180.2623      360.668      3.073     5.62     1133.717     63.55464     80.11609         8     1.692     0.526  68.60   0
       289    388.3981    283.4039 307.7719232  +6.5733643     756.2631     1628.589     2700.751     89.66386     179.8316     360.2735      2.641     4.50     1147.498     63.55464     101.1633         7     1.084     0.532  45.31   0
       290    157.3623    281.3513 307.8680387  +6.5664969     834.1076     1976.913     1668.213     90.23864      180.334      360.417      2.360     6.09     1161.524     63.55464     107.4174         8     1.262     0.827 -79.50   0
       291    730.5209    274.2501 307.6299992  +6.5885367     2444.571     6425.409     8187.253     90.38177     180.4056     360.5604      2.760     6.79     1139.181     63.55464     266.0504        46     1.944     1.623  69.30   0
       292    566.6682    276.4618 307.6980453  +6.5821725     998.0551     2233.884     2769.416     90.38177     180.2623     360.5604      2.644     6.79     1139.134     63.55464     123.6603        14     1.227     1.055 -38.65   0
       293    910.1160    275.1822 307.5553006  +6.5941154     800.8056     1828.989     2070.828     89.95171     179.9753     360.4887      2.428     6.20     1136.122     63.55464     117.3318         9     1.181     0.945  74.86   0
       294    671.2158    273.9862 307.6546641  +6.5866740     999.7651     2891.491     3140.914     90.09529     179.9753     360.4887      2.704     9.74      1138.97     63.55464     129.3165        20     1.729     1.532 -80.39   0
       295    872.3581    259.5900 307.5715242  +6.5993032     872.8107     1990.832      1672.65     89.66386     180.1188     360.2735      2.235     5.10     1136.692     63.55464     137.1426         9     1.309     0.562  45.04   2
       296    763.2677    257.9644 307.6169342  +6.5963521     942.8089      2154.17     2381.481     90.23864     180.4773      360.668      2.501     8.23     1138.407     63.55464     117.1708        15     1.518     1.246 -85.69   0
       297    230.0216    259.0268 307.8385904  +6.5781465     871.1313     2134.303     2467.515     89.80791     180.1188     360.4887      2.475     7.29     1156.651     63.55464     140.3356        12     1.743     0.914  51.37   0
       298    464.2733    249.4818 307.7415275  +6.5899060     10470.93     27824.09     36485.68     90.66733      180.692     360.5963      2.872     6.45     1139.045     63.55464     1000.669       102     2.392     2.217 -75.92   0
       299    790.0645    248.5589 307.6061105  +6.6011274     6918.303     16966.39     21603.83     90.38176     180.2623      360.668      2.681     5.68     1137.959     63.55464     690.7273        75     2.182     1.847  58.50   0
       300    153.0592    242.7927 307.8711363  +6.5822797     1139.969      2767.73     3448.742     89.66386     180.1906     360.2735      2.464     8.39     1161.409     63.55464     130.1019        23     1.781     1.104  66.71   0
       301    927.0801    239.0900 307.5494634  +6.6095869     878.5379     1952.192     2070.269     90.09529     180.5489      360.668      2.332     4.85     1133.732     63.55464     121.0724         9     1.096     0.679  11.55   0
       302    587.9305    235.4038 307.6905933  +6.5998399     2124.451     5884.211     7470.798     89.66386     179.9034     360.3094      2.746     7.34     1135.828     63.55464     236.9103        46     2.058     1.550  56.82   0
       303    550.5523    235.6823 307.7061241  +6.5984804     1046.018     2465.979     2629.513     90.38177      180.334     360.5963      2.432     7.13     1136.067     63.55464     124.7463        15     1.436     0.991 -53.46   0
       304    895.0714    231.7656 307.5630184  +6.6115504     6411.548     14790.35     16885.71     90.23864     180.2623     360.5604      2.413     5.52     1134.173     63.55464     709.4308        61     2.077     1.533  53.72   0
       305    392.3440    234.4985 307.7719388  +6.5936967     716.4787     1788.273     1875.091     90.09529      180.334     360.8113      2.197     6.67     1143.736     63.55464     92.64807         9     1.718     0.726 -45.83   0
       306    948.8890    232.7469 307.5406095  +6.6129303     1594.245     3309.633     3468.451     90.38176     180.1188     360.7038      2.185     6.81      1132.45     63.55464     183.6327        23     1.713     0.992  66.42   0
       307    322.4172    232.9657 307.8010622  +6.5919966     528.9545     1531.575     1454.376     89.95171     180.1188     360.3812      2.470     4.85     1148.633     63.55464     89.85315         5     1.354     0.493 -89.25   0
       308    981.5600    229.6395 307.5271304  +6.6152972     5869.406     12888.54     14642.87     90.09529     180.4773      360.417      2.343     5.39     1130.726     63.55464      657.311        50     1.946     1.418  58.75   0
       309     21.4215    228.7142 307.9263390  +6.5836902     12519.99     31897.43     40061.28     90.38177     180.0471     360.4529      2.713     6.32     1168.018     63.55464     1243.579        89     2.371     1.794  57.62   0
       310    693.2067    229.4596 307.6470247  +6.6057978     1398.331     3763.342     4312.116     89.66386     180.1906     360.3094      2.599     8.12     1136.629     63.55464     145.1293        31     1.739     1.406  52.69   0
       311    268.2382    229.5727 307.8237014  +6.5915892     568.8047     1352.114     1161.007     89.95171     180.1188     360.3812      2.423     4.41      1153.02     63.55464     80.50012         5     1.170     0.473 -57.11   0
       312    501.8796    224.6859 307.7267317  +6.6014014     827.7031     2106.354     3408.483     90.09529      180.692      360.668      3.412     6.48     1135.214     63.55464     103.7662        11     1.561     0.754  51.38   0
       313    833.2625    220.7162 307.5890892  +6.6140630     1154.399     2502.028     3409.274     90.52466     180.4056     360.5246      2.728     7.70     1135.192     63.55464     145.9568        19     1.789     0.927  47.26   0
       314    886.0251    220.1585 307.5671708  +6.6160448     1041.604     2655.037      3072.36     89.95171     180.1906     360.3094      2.616     9.28     1133.443     63.55464       111.71        25     1.824     1.318  19.69   0
       315    745.2805    217.7951 307.6257680  +6.6123470     20470.84     50495.52     61725.83     89.95171     179.8316     360.3094      2.594     5.69     1136.402     63.55464     2186.021        97     2.278     1.800  62.83   0
       316    513.5416    219.9277 307.7220442  +6.6037553     1295.004     3309.695     3939.711     90.52466      180.334     360.5246      2.723     8.28     1135.003     63.55464     139.4326        25     1.692     1.419 -41.42   0
       317    348.4183    217.2805 307.7907839  +6.5993433     3284.331     9092.875     12774.63     89.95171     179.9753     360.4529      3.012     7.48     1145.693     63.55464      308.344        76     2.530     1.875  84.83   0
       318    979.1458    216.9000 307.5285631  +6.6204795      1705.37     3724.825     4206.488     90.09529      180.334     360.8829      2.346     6.45     1130.033     63.55464     202.6837        31     1.868     1.197  65.50   0
       319    913.1737    214.8717 307.5560612  +6.6191294      4292.92     9577.295     11623.55     89.95171     180.1906     360.4887      2.437     5.37     1132.435     63.55464     462.7362        54     2.105     1.467  54.63   0
       320    457.0378    214.2415 307.7457282  +6.6042212     2271.772     6131.989     7444.489     90.09529     180.4056      360.417      2.707     7.62     1137.011     63.55464     273.0273        51     2.163     1.679  43.74   0
       321   1016.2852    214.9181 307.5131880  +6.6225292     918.1442     1945.168     2222.954     90.09529      180.692     360.6321      2.294     5.47     1128.222     63.55464     125.7722         9     1.014     0.834  49.00   0
       322    114.2202    205.5136 307.8885484  +6.5963789     2153.233     5859.603     7949.679     90.09529     180.0471     360.4529      2.892     7.38     1163.322     63.55464     249.4004        51     2.170     1.667  60.23   0
       323    259.8105    203.3463 307.8280944  +6.6021406     3086.382     8419.532     10281.38     89.66386     180.2623     360.2377      2.698     6.69     1153.872     63.55464     351.8884        58     2.114     1.766  68.88   0
       324    284.4741    202.1784 307.8178802  +6.6034467     15698.26     41746.31     53984.03     89.95171     180.1906     360.4887      2.815     6.28     1151.977     63.55464      1563.76       105     2.403     1.981  59.95   0
       325    408.5590    197.5966 307.7664470  +6.6094801     22763.84     61631.17     78981.05      89.5196     180.0471     360.2735      2.815     6.33     1139.727     63.55464     2214.743       113     2.416     1.976  61.48   0
       326    425.3875    200.5742 307.7593497  +6.6088114     595.6448     1339.844     1575.168     89.95171     180.1188     360.4887      1.787     3.46     1138.717     63.55464     73.69275         5     1.072     0.322  69.05   0
       327    164.5912    198.6249 307.8678412  +6.6009088     1999.901     5051.397      5975.19     89.95171     180.1188      360.417      2.620     7.58     1159.561     63.55464     208.4298        41     1.960     1.600  24.14   0
       328    313.1340    195.3560 307.8061962  +6.6072216     8041.197     22277.25     29987.54     90.38176     180.2623     360.5963      2.985     6.85     1148.996     63.55464     815.2394       102     2.705     2.120   8.85   0
       329    747.7365    193.6943 307.6255602  +6.6223839     16725.46     41630.58     50923.21     90.23864     180.4056     360.6321      2.607     5.82     1135.099     63.55464     1695.855        87     2.257     1.765  58.10   0
       330    796.5765    196.5376 307.6051577  +6.6228321     553.3096     956.8387     888.5142     89.95171      180.334     360.4529      2.001     3.90     1134.423     63.55464     89.75012         5     1.061     0.410  73.67   0
       331     64.7269    191.3210 307.9096064  +6.6005850     4496.698      11356.4     14161.44     90.66733     180.6205     360.5246      2.713     6.37     1165.386     63.55464     491.8184        68     2.355     1.660  60.71   0
       332   1006.1721    187.7148 307.5183085  +6.6334309     667.9995     1383.069     908.5248     90.52466     179.9753      360.417      2.055     6.89     1126.915     63.55464     100.8944         8     1.503     0.886  51.31   0
       333     98.7252    188.1741 307.8955790  +6.6030225     776.2401     1526.036     2090.481     89.95171     180.1188     360.5246      2.438     4.40     1163.042     63.55464     95.63989         7     0.884     0.624  54.04   0
       334   1006.7696    174.5168 307.5185044  +6.6389025     1502.751     2997.758     3922.915     90.38177     180.1188      360.417      2.635     5.06     1126.037     63.55464     192.9424        18     1.470     0.993  66.76   0
       335    283.3558    168.4294 307.8194893  +6.6173495     14049.15     38015.54     49057.03     89.95171     180.4056      360.417      2.828     6.45     1152.658     63.55464     1361.547       101     2.426     1.956  58.02   0
       336    598.8768    169.7245 307.6882621  +6.6273340     986.9124     2246.758     3081.805     90.66733     180.6205     360.6321      2.734     6.78     1133.727     63.55464     124.2316        12     1.291     0.998 -12.41   0
       337     28.8848    167.0389 307.9253324  +6.6094148     2132.585     5520.846     7426.475     90.38176     180.2623     360.5246      2.779     7.26     1167.566     63.55464     251.5581        44     2.073     1.525  70.42   0
       338    714.9234    164.8351 307.6401774  +6.6332140     4103.638     10233.49     12092.33     90.23864     180.4056     360.5963      2.565     6.07     1134.078     63.55464     436.7751        56     2.074     1.617  61.53   0
       339    125.8129    162.1220 307.8852022  +6.6146894     2397.242     5997.567     7947.444     89.95171     179.9034     360.3453      2.874     6.79     1160.028     63.55464     267.4369        51     2.057     1.717  60.10   0
       340    396.7607    158.1489 307.7726881  +6.6253807     1878.287     5037.823     6415.984     90.09529      180.334     360.5604      2.782     8.28     1137.975     63.55464     182.8765        47     2.099     1.696  72.54   0
       341    115.4606    156.8978 307.8896836  +6.6165010     955.5574     2503.883     3131.333     90.09529      180.334      360.668      2.606     8.63     1160.313     63.55464     109.9187        20     1.816     1.146  73.08   0
       342    360.9782    156.5455 307.7876196  +6.6248493     1392.694     3740.922     4824.693      89.8079      180.334     360.3453      2.758     9.63     1142.326     63.55464     147.2347        31     1.723     1.501  60.02   0
       343   1007.4607    150.7946 307.5190156  +6.6487243     895.6573     1706.493     1714.035     89.66386     180.1906     360.3094      1.926     7.16     1124.279     63.55464     116.0831        11     1.455     0.988  38.94   0
       344    212.7442    145.9538 307.8496090  +6.6242741     2524.989     6615.939     8209.699     90.38176      180.334     360.6321      2.688     6.54     1156.859     63.55464      291.322        54     2.021     1.774  59.66   0
       345    674.4924    144.6104 307.6576710  +6.6402236     3118.511     7830.405     10248.39     90.09529     179.9034     360.3453      2.722     6.27     1133.195     63.55464     356.5284        53     2.051     1.661  60.81   0
       346     95.3074    145.5887 307.8984464  +6.6204979     1122.469     2724.971     3398.313     90.09529     179.9753     360.3453      2.717     7.59     1160.962     63.55464     148.1835        15     1.300     1.241  -4.31   0
       347    626.6420    142.1453 307.6776499  +6.6396499     4517.204     11533.31     14590.57     90.23864      180.334     360.5963      2.683     6.81     1132.862     63.55464     500.5973        56     2.184     1.585  63.48   3
       348    630.1777    133.4761 307.6764727  +6.6433485     25717.09     65812.55     83773.04     89.95171     180.1188     360.4887      2.731     6.07     1132.354     63.55464      2559.23       116     2.431     1.971  68.81   3
       349    353.8257    138.1910 307.7912153  +6.6321920     1819.222     4775.735     6020.093     89.95171     180.1188      360.417      2.799     7.66     1143.172     63.55464     219.3427        41     2.017     1.542  73.74   0
       350    535.8027    137.6952 307.7155700  +6.6384639     888.7469       2286.5     2785.299     89.95171     179.9753     360.2018      2.632     8.44     1131.572     63.55464     139.1305        14     1.579     1.260  46.64   0
       351    309.6727    127.4338 307.8099374  +6.6351615     1684.037     4609.967      6054.82     90.23864     180.2623     360.5246      2.884     8.39     1149.654     63.55464     174.2032        46     2.140     1.706 -68.93   0
       352      6.9892    110.5534 307.9363556  +6.6320124     725385.4      2114722      2697268      89.8079     180.1188     351.5209      2.832     6.99     1169.536     63.55464     61324.53       342     2.601     2.093  66.94  28
       353    694.4841    117.4913 307.6502744  +6.6520904     1686.963     3857.428     4336.721     90.09529      180.692      360.668      2.491     5.74     1131.004     63.55464      213.844        32     1.700     1.445  61.36   0
       354    436.3188    108.3422 307.7579272  +6.6472729     1932.159     4892.594     5809.823     90.52466      180.334     360.5963      2.645     7.06     1134.309     63.55464     196.1749        40     1.958     1.467  47.77   0
       355    890.4421    104.5578 307.5692302  +6.6639424     1299.189     2834.749     3661.542     90.09529      180.334      360.417      2.505     6.68     1123.841     63.55464     159.1925        19     1.553     1.073  60.82   0
       356    908.8671    103.6187 307.5616005  +6.6649417     2359.647     5122.611     6031.693     89.95171     180.2623     360.4529      2.305     6.08     1123.435     63.55464     269.6788        35     1.776     1.400  47.38   0
       357    600.4426    102.1850 307.6898939  +6.6552840     820.8675     1774.428     2220.132     89.80791     180.0471     360.2735      2.693     7.61     1130.646     63.55464     107.2501        13     1.796     0.903  86.28   0
       358    400.0847    100.7536 307.7732499  +6.6491991     900.9133     2372.097     2156.214     90.38176     180.2623     360.5604      2.648     9.63     1137.612     63.55464      133.983        19     1.861     1.391  56.72   0
       359    147.8971     97.0593 307.8782297  +6.6423020      1629.35     4070.935      5254.39     90.09529      180.334     360.7038      2.821     7.39     1157.868     63.55464     212.3025        35     1.862     1.650  53.68   0
       360     29.6120     95.2415 307.9274704  +6.6390945     5993.216     15993.67     20218.96     89.66386     180.1188     360.2377      2.769     6.35     1166.793     63.55464     607.4879        79     2.321     1.851  61.99   0
       361    296.2263     95.6699 307.8166049  +6.6478327     715.0275     1585.855     2158.834     89.95171     180.1906     360.4887      2.550     6.15     1152.028     63.55464     95.37891         7     1.050     1.012 -87.61   0
       362    831.1705     89.4281 307.5943863  +6.6682244     3472.828      8185.56     9639.006     89.80791     180.0471     360.3094      2.419     5.92     1125.295     63.55464     377.0809        46     2.007     1.404  64.78   0
       363    776.3139     89.8312 307.6171828  +6.6662358     1835.026     4100.848     4610.463     90.38176     180.1188     360.4887      2.310     5.92      1127.38     63.55464     217.5562        30     1.684     1.292  58.96   0
       364     69.5120     86.7264 307.9111708  +6.6439473     1609.806     4115.021     5221.493     90.38177     180.6205     360.5963      2.807     6.89     1162.097     63.55464     204.3523        31     1.683     1.451 -66.36   2
       365     12.4444     82.6431 307.9350364  +6.6437232     1276.687     3611.808     5010.888     90.38177      180.334      360.417      3.230    10.12     1167.201     63.55464     131.4039        32     1.927     1.488  46.80  16
       366    770.9737     77.4859 307.6198199  +6.6711577     1234.361     2597.266     3155.663     90.52466     180.0471      360.417      2.202     6.37     1126.312     63.55464      139.062        18     1.391     1.032 -88.75   0
       367     97.7045     71.4698 307.8999674  +6.6511925     4492.218     12016.28     14878.17     90.23864     180.4056     360.5963      2.783     6.67     1159.115     63.55464     433.9998        62     2.211     1.686  58.09   0
       368    427.0095     71.1471 307.7630573  +6.6623262      1141.69     3070.948     4026.574     89.66386     180.1906     360.2377      2.824     8.00     1135.291     63.55464     148.2788        20     1.712     1.167  66.04   2
       369    640.3152     63.2386 307.6746308  +6.6726982     9107.421     22718.62     28344.61     90.38177     180.2623     360.5246      2.667     5.93     1129.039     63.55464     960.8792        79     2.197     1.783  59.22   0
       370    266.2222     55.5706 307.8304400  +6.6633936     4272.932     11872.01     16800.67     89.66386     180.0471     360.3812      3.735     6.75     1153.832     63.55464     439.7296        74     2.516     2.014 -85.56   2
       371    254.6137     52.6225 307.8353667  +6.6642235     1408.091     3956.166     7175.768     90.09529     180.1188     360.4529      7.287    12.77     1154.148     63.55464     191.5671        45     3.344     1.356  54.47   2
       372    540.2562     59.1595 307.7163745  +6.6710520     2303.185     5972.027     7625.601     90.38176     180.4056     360.5963      2.736     7.18      1130.37     63.55464     241.5592        47     2.129     1.553  50.61   0
       373    445.7658     54.9851 307.7558056  +6.6696274     10364.13     27825.97     34890.72     89.95171     180.0471      360.417      2.761     6.39     1133.927     63.55464     1007.816        89     2.328     1.891  54.49   0
       374    626.7954     53.8240 307.6805707  +6.6761371     1616.191     4285.154     6227.599      89.8079     180.0471     360.3812      3.274     8.06      1128.85     63.55464     218.7998        43     2.224     1.448  69.49   0
       375     31.5554     54.9093 307.9280334  +6.6558184     1197.043     2884.718     3756.873     90.38176     180.2623     360.7038      2.839     7.52     1162.532     63.55464     137.1049        18     1.509     1.370 -69.02   0
       376    923.5059     54.3653 307.5571731  +6.6857724     1315.485     2665.557     3405.667     90.52466     180.1906      360.668      2.254     7.24     1120.199     63.55464      143.304        19     1.383     1.061  89.72   0
       377    325.8556     56.5221 307.8056124  +6.6649920     532.9677     1114.034     967.1267     90.38176      180.334     360.5604      1.737     4.06      1148.18     63.55464     106.0627         5     1.133     0.415 -15.28   0
       378    694.8104     43.9180 307.6526234  +6.6824916     815.6548     2075.785     2805.813     89.95171     179.9753     360.3812      2.733     8.11     1126.443     63.55464     93.16174        15     1.616     1.137 -21.47   0
       379    183.9510     37.5649 307.8652588  +6.6680814     5130.233     13422.58      17153.4     90.23864     180.4056     360.4887      2.796     6.28     1155.648     63.55464     592.1385        67     2.270     1.741  66.09   0
       380    528.3718     35.2973 307.7221234  +6.6805126      1451.62     3734.415     4136.205     90.52466     180.0471     360.5246      2.586     9.40     1130.225     63.55464     153.4419        31     1.928     1.278  57.41   0
       381    929.3257     34.8982 307.5554089  +6.6940066     2557.022     5427.966     5906.889     89.80791     180.4056     360.5246      2.195     5.38     1119.023     63.55464     302.6326        36     1.829     1.289  53.70   0
       382    729.6009     33.0991 307.6385219  +6.6881172     1124.791      2794.97     3777.285     89.80791     179.9034     360.2018      2.706     8.61     1123.112     63.55464     120.1622        21     1.676     1.236 -61.19   2
       383    465.8223     33.8064 307.7481829  +6.6790440     800.2831     1998.841     2808.819      89.8079     180.1188     360.3812      2.835     6.74     1132.287     63.55464     126.4646        14     1.285     1.118  86.24   0
       384    994.2946     31.0595 307.5285216  +6.6977467     1241.963      2742.89      3088.92     90.23864      180.334      360.668      2.183     7.76     1113.993     63.55464     154.1918        21     1.672     1.007  78.79   0
       385    713.4746     27.7277 307.6454090  +6.6897998     4010.887     9624.795     11700.79     90.66733     180.6205     360.5963      2.562     5.82     1124.048     63.55464      428.998        60     2.113     1.653  51.98   0
       386    633.8432     27.0233 307.6785458  +6.6874419     1864.304     4758.315     5072.093     89.80791     180.1906     360.3453      2.493     6.90     1127.835     63.55464     209.3287        38     1.803     1.525  51.55   0
       387    755.1768   1018.3689 307.5946566  +6.2819802     5735.288     11497.73     12479.34     89.66386     180.0471     348.4557      2.056     5.13     1184.411     63.55464     622.6642        43     1.817     1.253  59.60  16
       388    550.6307   1018.6401 307.6796358  +6.2750680     2809.412     6225.387     7693.361     89.80791     180.1188     345.7372      2.444     5.65      1188.34     63.55464     314.9471        38     1.873     1.369  66.39  19
       389    547.9310   1011.1976 307.6810088  +6.2780524     5539.932      11707.6     13280.88     89.66386     179.9034     360.3453      2.227     5.33     1188.101     63.55464      601.265        51     1.985     1.371  55.54  19
       390    520.1707   1019.9365 307.6922478  +6.2735187      705.113     1371.807     1518.902     90.09529      180.334      330.875      1.926     5.03     1188.157     63.55464     123.8369         7     1.396     0.513 -15.51  16
       391    815.8276   1017.0272 307.5695012  +6.2845481     848.5184     1694.938     1689.555     89.80791     180.1188     358.5113      1.888     6.16     1184.115     63.55464     137.1766         9     1.575     0.690  61.43  16
       392    425.4540   1018.7650 307.7316410  +6.2708481     767.6784     1543.775     1690.998     90.23864      180.334     344.6889      2.163     4.90     1187.862     63.55464     127.7723         7     1.279     0.564  54.60  16
       393    916.5061   1011.8127 307.5278440  +6.2900421     6714.115     13185.92     14672.21     90.09529     180.0471     360.3453      2.059     5.25     1181.194     63.55464     760.1555        45     1.865     1.213  55.30   0
       394    890.0062   1007.9540 307.5389849  +6.2907573     9293.247     18946.76     21235.52     89.80791     180.0471     360.1659      2.144     5.07     1181.984     63.55464     1063.977        53     1.817     1.391  56.91   0
       395    534.3716   1007.2137 307.6867772  +6.2792468      2657.54     6357.752      7621.26     89.95171     180.0471     360.4529      2.555     6.05     1187.949     63.55464     306.3153        44     2.040     1.339  55.44   0
       396   1011.7935   1007.5760 307.4883933  +6.2949503     3912.354     7414.817     8108.508     89.80791     180.1188     360.3812      2.001     5.21     1176.119     63.55464     440.3694        34     1.769     1.114  45.15   0
       397    602.7452   1008.2034 307.6583348  +6.2811130     962.3824     2011.527     2203.979     89.66386     180.1188     360.1659      2.185     6.30     1188.415     63.55464     161.7114        12     1.276     0.919 -83.53   0
       398    643.8271   1006.3472 307.6413279  +6.2832459      1035.68     2021.705     2694.429     90.09529     180.4773     360.4887      2.207     6.34     1186.687     63.55464     149.5403        13     1.707     0.662  57.50   0
       399    487.5983   1003.1591 307.7063482  +6.2793644     1549.636     3257.085     3880.947     89.66386     180.0471     360.2377      2.268     5.93     1187.771     63.55464     177.6886        23     1.548     1.085  82.42   0
       400    921.8317    995.5297 307.5261790  +6.2969449     33344.38     65307.26     71834.57     90.23864      180.334     360.5604      2.068     5.08     1180.275     63.55464     3646.305        81     1.911     1.443  59.07   0
       401    228.8782    993.7444 307.8141615  +6.2746270     1221.895     2349.233     2228.897     90.52466      180.334     360.5963      2.058     7.79     1191.777     63.55464     152.9359        19     1.757     1.031  50.88   0
       402    819.7633    989.2294 307.5688021  +6.2961613     1713.285     3279.543     3183.163     89.95171     180.0471     360.3812      1.965     6.14     1182.953     63.55464     211.5472        23     1.643     1.041  39.39   0
       403    768.0157    987.2271 307.5903714  +6.2952705     4589.413      9712.95     10903.89     89.95171     180.1188     360.4529      2.223     5.10     1183.545     63.55464     484.3308        47     1.848     1.402  61.16   0
