#   1 NUMBER                 Running object number                                     
#   2 X_IMAGE                Object position along x                                    [pixel]
#   3 Y_IMAGE                Object position along y                                    [pixel]
#   4 ALPHA_J2000            Right ascension of barycenter (J2000)                      [deg]
#   5 DELTA_J2000            Declination of barycenter (J2000)                          [deg]
#   6 FLUX_APER              Flux vector within fixed circular aperture(s)              [count]
#   9 FLUXERR_APER           RMS error vector for aperture flux(es)                     [count]
#  12 FLUX_RADIUS            Fraction-of-light radii                                    [pixel]
#  13 FWHM_IMAGE             FWHM assuming a gaussian core                              [pixel]
#  14 BACKGROUND             Background at centroid position                            [count]
#  15 THRESHOLD              Detection threshold above background                       [count]
#  16 FLUX_MAX               Peak flux above background                                 [count]
#  17 ISOAREA_IMAGE          Isophotal area above Analysis threshold                    [pixel**2]
#  18 A_IMAGE                Profile RMS along major axis                               [pixel]
#  19 B_IMAGE                Profile RMS along minor axis                               [pixel]
#  20 THETA_IMAGE            Position angle (CCW/x)                                     [deg]
#  21 FLAGS                  Extraction flags                                          
         1      2.1129     75.2567 307.9357189  +6.6320914     586416.2     909400.5     959603.9     76.48873     135.6822     248.1271      1.696     8.40     839.1944     55.20099     63444.25       249     2.060     1.391 -88.97  28
         2    621.0654     18.4099 307.6804462  +6.6761985     3330.749     5781.587     6357.111     78.00351     156.4439     313.0436      1.932     5.76     822.3757     55.20099     579.0854        32     2.165     0.859  74.72   0
         3    439.9748     19.5268 307.7556554  +6.6697129     26791.76     35791.57     36630.57     78.12841     156.5062     313.1059      1.441     3.15     826.8676     55.20099     4157.021        46     1.374     0.990  80.70   0
         4    260.5581     20.0452 307.8301871  +6.6635188     10722.05     14400.47     15065.27     78.37762     156.6308     313.0125      1.409     3.06     835.8999     55.20099     1599.547        30     1.280     0.928  75.41   0
         5    248.4670     16.6401 307.8353248  +6.6645212     3546.179      4513.61     4979.137     78.37763     156.5685     313.2616      1.414     3.42     835.8715     55.20099     492.3372        19     1.195     0.825  81.21   0
         6    301.4969     14.7487 307.8133539  +6.6670710     1065.894     1258.396     644.9345     78.37763     156.5685     313.3861      1.217     3.35     835.6118     55.20099     196.0083         7     0.945     0.485  81.49   0
         7     64.3872     12.0956 307.9119615  +6.6602495     527.2716     753.2106     303.4367     78.25312     156.3816     312.9813      1.496     3.76     835.5192     55.20099     83.18506         5     0.872     0.484  85.58   0
         8     94.8627     10.0817 307.8993666  +6.6620995      815.735     1007.794      1078.71     78.62605     156.6308     313.1682      1.400     5.06     833.7234     55.20099     111.4371        11     1.076     0.761  78.54   0
         9    938.8010      9.6244 307.5487090  +6.6903685     1056.855     1487.304     1882.422     78.12842     156.3192     312.9502      1.541     3.17     819.6735     55.20099     178.3521        10     1.035     0.667  80.98   0
        10    689.9937      8.9390 307.6521200  +6.6823988     2075.469      2746.58     2607.773      77.8784     156.4439     312.9502      1.379     3.22     821.8511     55.20099     330.3916        16     1.237     0.719  86.22   0
        11    200.6527      5.0411 307.8555797  +6.6677140     779.6653     1004.592     858.8434     78.50194      156.693     287.2489      1.496     4.24     835.1226     55.20099     124.1343         9     1.120     0.620  81.23  16
        12    255.4734      4.3237 307.8328254  +6.6698398     701.3912      805.209     1074.367     78.74997     156.3816     278.7032      1.285     3.70     835.9221     55.20099      118.888         7     0.951     0.489 -82.91  16
        13    178.0622      2.3664 307.8650556  +6.6680640     12298.64     15145.76     15092.35      77.8784     138.8083     251.8327      1.368     3.28      834.457     55.20099     1864.049        23     1.122     0.929  80.77  24
        14    522.3098      1.3960 307.7220484  +6.6799388     1632.889     1860.971     1993.302     68.69807     125.2953     236.4149      0.957     1.97     823.2473     55.20099     457.0968         8     0.806     0.548  -9.05  24
        15    923.6168      1.2248 307.5552976  +6.6933334     1401.927     1519.416     1620.403      66.8274     122.7797     233.7604      0.906     2.21     819.7885     55.20099     418.8477         6     0.834     0.416  -2.66  24
        16    439.6994    997.4091 307.7231642  +6.2659721     821.8224     1222.879     909.5137     78.25312     156.2568     312.9813      1.646     4.23      857.092     55.20099     124.0861         7     1.106     0.617  86.79   0
        17    758.1191   1021.4422 307.5901598  +6.2666276     793.9359     1529.314     1673.073     78.50194     151.3111     268.7648      1.951     6.75     853.0983     55.20099     101.4674        13     1.297     0.986 -85.64  24
        18    582.3732   1019.4069 307.6631955  +6.2616337     153443.1     243284.2     255278.7     78.00351     156.5062     292.9628      1.741     3.60     855.9224     55.20099     18168.93        95     1.611     1.323  70.61  19
        19    584.1831   1012.1816 307.6626844  +6.2646770     71357.41     114138.2     120867.2     78.25312     156.3816     313.1059      1.723     3.57     855.7274     55.20099     8398.596        80     1.611     1.308  69.47   3
        20    399.8735   1022.2833 307.7388703  +6.2543771     616.5508     815.6964     1004.788     78.62605     143.3016     257.1205      1.625     5.15     858.0086     55.20099      87.8869         5     0.993     0.755  76.94  24
        21    216.3055   1022.2343 307.8150840  +6.2482818     3715.418     5494.148     5589.062     78.62605     143.5056     257.7265      1.646     3.82      853.563     55.20099     422.3495        24     1.244     1.114  63.90  24
        22    732.2043    995.7639 307.6017724  +6.2763698      887.181     1477.915     1613.889     77.62759     156.3816     312.9813      1.713     5.99     853.4114     55.20099     132.8154        12     1.178     0.956  23.68   0
        23    362.9125    993.9042 307.7551618  +6.2648633     1849.216     2744.121     2985.552     78.50194     157.0039     313.1993      1.554     3.79     856.1334     55.20099     239.2765        19     1.322     0.917 -84.99   0
        24    749.9153    983.2305 307.5948350  +6.2821321     7651.582     12659.22      13158.2     78.50194     156.4439     313.0436      1.754     3.72     852.8361     55.20099     919.7674        37     1.524     1.169  77.42   0
        25    545.4456    983.9883 307.6797061  +6.2750298      4264.34     6556.354     7160.944     78.00351     156.4439     312.8878      1.670     3.58     856.6021     55.20099     531.6312        31     1.478     1.177  67.63   3
        26    542.6083    976.1871 307.6811437  +6.2781563     8459.753     12877.68     13658.57     78.12842     156.4439     313.0748      1.646     3.45     856.3287     55.20099      1046.88        33     1.384     1.110  75.85   2
        27    515.8251    985.4980 307.6919541  +6.2734218     1051.534     1557.464     1251.073     78.62605     156.3816     313.0436      1.718     4.01     856.6406     55.20099     166.0439        10     1.086     0.668  81.02   0
        28    295.6393    982.7750 307.7834637  +6.2672173     14981.04     23472.22     25962.13     78.12842     156.4439     312.9502      1.733     3.46     854.9622     55.20099     1944.927        61     1.678     1.389 -54.35   0
        29    811.1136    982.3622 307.5694539  +6.2845200     922.7633     1534.852     1184.395     78.50194     156.5685     313.1682      1.671     5.66     851.5109     55.20099     129.5632        11     1.326     0.682 -76.71   0
        30    420.0745    983.1052 307.7317888  +6.2712246     976.5368     1310.775      1056.42     78.25312     156.8174     313.1682      1.460     3.67     856.4158     55.20099     148.5983        10     0.936     0.750  56.67   0
        31    267.0749    980.5679 307.7953968  +6.2671766     969.8814     1572.528     1771.471     78.37762      156.693     313.1371      1.973     5.11     854.1266     55.20099       128.77        12     1.190     0.727  84.83   0
        32    911.2904    976.6956 307.5280473  +6.2901789     7500.554     13929.99     14237.07     78.50194      157.066     313.1682      1.981     4.16     850.1629     55.20099     819.8979        49     1.711     1.360  72.49   0
        33   1006.6051    972.3631 307.4886146  +6.2951229     3799.074     7545.058     7795.675     77.62759     156.3816     312.9813      2.031     4.61     847.0192     55.20099     424.4672        38     1.630     1.348  77.28   0
        34    884.8180    972.8528 307.5391664  +6.2908887     10825.57     19506.16     20945.67     78.00351      156.693     312.9502      1.910     4.08     850.5876     55.20099     1197.423        51     1.633     1.358  76.67   0
        35    597.7997    973.5445 307.6583161  +6.2810814     1361.442     2026.362     1703.872      77.7531     156.2568     312.8255      1.676     4.63     854.8461     55.20099     161.2397        16     1.326     0.830  79.26   0
        36    528.8933    972.0396 307.6869763  +6.2794127     4315.875     6430.365     6653.559     78.62605     156.5685     313.2616      1.575     3.50     856.1934     55.20099     587.6429        27     1.372     1.067  77.07   0
        37    638.5706    971.2778 307.6414633  +6.2833714     1529.261     2177.653     2490.265     78.37763      156.693     313.1993      1.580     3.93     854.0674     55.20099     180.2313        17     1.160     1.017  62.20   0
        38     63.3829    970.5901 307.8802986  +6.2645003     797.5033      1186.54     1331.027     78.25312     156.3816     313.0436      1.549     5.66     850.6107     55.20099     140.0047        10     1.387     0.650  19.03   0
        39    482.1921    968.5701 307.7064821  +6.2792923     2277.999     3444.479     3282.042     78.00351     156.4439     312.9502      1.630     3.55     856.0957     55.20099     295.7294        20     1.273     0.947  88.89   0
        40    793.6785    969.3455 307.5771252  +6.2893162     620.6326     869.0576     959.4197     78.62605     156.6308     313.1993      1.611     5.37     851.6893     55.20099     80.19177         7     1.246     0.653  11.67   0
        41    916.6210    960.3771 307.5263750  +6.2970930     38626.21     67999.72     72328.89     78.25312     156.4439     313.1371      1.892     4.07     849.8975     55.20099     4209.441        72     1.704     1.377  73.92   0
        42    223.8678    959.2025 307.8140490  +6.2745571     1675.668     2542.309      2912.31      77.8784     156.2568     312.9813      1.678     3.81     852.4147     55.20099     233.2487        21     1.345     0.976  80.33   0
        43    111.5716    958.3231 307.8607019  +6.2711737     595.4481     788.6274     781.8319     78.37763     156.6308     313.1682      1.443     3.86     850.7974     55.20099     84.22791         6     0.913     0.468  -0.18   0
        44    762.7240    952.2819 307.5905446  +6.2953347     6530.592     10724.82     11565.96     78.74997     156.8796     313.2927      1.802     3.84     852.1738     55.20099      767.309        41     1.661     1.211 -87.76   0
        45    622.7276    956.7582 307.6485243  +6.2888400     929.9521     1251.807      781.063     78.37763     156.6308     313.1993      1.475     5.14     854.2819     55.20099     128.6612        10     1.109     0.682  50.40   0
        46    814.6991    954.2354 307.5688988  +6.2962517      2294.39     3526.103     3666.453     78.50194     156.5062     313.3239      1.684     3.88     851.2756     55.20099     256.7564        21     1.247     1.065  86.70   0
        47    549.5508    951.6475 307.6790780  +6.2885187     947.5686     1158.247     835.5917     78.50194     156.5062     313.1993      1.621     4.70     855.4328     55.20099     135.8842         9     1.094     0.657  44.08   0
        48    232.2396    951.5189 307.8108297  +6.2780085     1423.159     2093.539     2045.586     78.50194      156.693     313.1059      1.632     3.95     852.4271     55.20099     188.2042        13     1.059     0.845 -87.20   0
        49    196.7228    951.1292 307.8255889  +6.2769850     886.9003     1385.975     1137.733     78.74997     156.8796     313.1682      1.571     3.98     851.9073     55.20099     139.6461         7     0.874     0.587  58.73   0
        50     57.1426    949.6992 307.8835881  +6.2729167     2870.811     4407.095     4119.509     78.25312     156.6308     313.3549      1.602     3.53     850.0358     55.20099     360.7037        22     1.235     1.002  73.93   0
        51    950.9363    947.0597 307.5125680  +6.3037277     5747.501      10602.4     10712.74     78.50194     156.5685     313.1993      1.929     4.21     848.9202     55.20099     626.8525        43     1.630     1.310  89.16   0
        52    632.6833    941.7964 307.6448881  +6.2953479     678.6528     993.6248     722.3412     78.00351     156.2568     312.8567      1.642     5.10     854.0071     55.20099     107.4311         8     1.101     0.669 -83.50   0
        53    207.6758    943.3351 307.8213016  +6.2805681     706.2411     928.4514     947.2291     78.62605     156.6308     313.1371      1.512     4.84     851.8875     55.20099     93.95209         6     0.977     0.680  17.27   0
        54    924.6552    938.6866 307.5237582  +6.3063145     1930.412     3166.191     2785.195     78.50194     156.5685     313.3239      1.778     4.47     849.6448     55.20099     209.3138        23     1.388     1.095 -75.43   0
        55    257.5288    935.3488 307.8008696  +6.2855275      4625.76     6563.727     6564.381     78.37763     156.6308     313.1993      1.587     3.47     852.3737     55.20099     596.5663        28     1.363     1.032  83.48   0
        56    645.3687    934.9094 307.6398499  +6.2986126     4702.693     7104.593     7386.483     78.62605     156.4439     313.1682      1.612     3.61     853.6772     55.20099     554.6871        27     1.372     1.042  82.78   0
        57    784.1375    935.1174 307.5822233  +6.3031317     1181.131     1767.953     2065.816     78.62605     156.6308     313.1371      1.608     4.19      851.683     55.20099     156.3402        10     0.938     0.778  71.92   0
        58    467.7469    933.4379 307.7136500  +6.2933167     1160.949     1528.754     1117.248     78.37763      156.693     313.1682      1.446     4.38      854.663     55.20099     172.3011        11     1.114     0.722  73.90   0
        59     26.3956    932.9249 307.8969148  +6.2788149     2126.689     3331.168     3446.775     78.12841      156.132     313.0748      1.691     4.18     849.5926     55.20099     256.3655        20     1.274     1.056 -83.05   0
        60    876.9230    930.8813 307.5438369  +6.3079561     1007.101     1468.538     1221.151     78.74997     156.8796     313.2927      1.559     4.36     849.8814     55.20099     123.1938        12     1.129     0.723  10.70   0
        61    293.5684    928.8688 307.7861223  +6.2894040     1045.847     1623.551      1215.11     78.37763     156.6308     313.1682      1.626     4.16     852.5684     55.20099      141.455        12     1.121     0.803  75.36   0
        62    570.0889    927.5172 307.6713533  +6.2991639     1744.945     2289.812     2222.279     78.25312     156.8174     313.1993      1.486     3.64     854.6174     55.20099     225.1848        17     1.102     1.013  66.45   0
        63   1001.6642    926.8535 307.4921739  +6.3137493     734.6031     1738.463     1787.917     78.50194     156.5685     313.1371      2.245     6.71     847.1899     55.20099     98.04688        11     1.170     1.081 -85.92   0
        64    949.4919    928.1178 307.5137957  +6.3115005     521.1424     886.2489     815.9089     78.25312     156.9418     313.2305      1.726     4.22     848.8965     55.20099      72.3396         6     1.059     0.480  32.49   0
        65     59.4307    924.8127 307.8834705  +6.2832676     748.6301     1180.514     1617.244     78.00351     156.4439     313.1059      2.111     4.95     849.4092     55.20099     109.6728         8     1.019     0.680 -48.26   0
        66    609.5089    923.7809 307.6551097  +6.3020162     1380.607     1933.189     1965.144     78.37763     156.3816     313.0436      1.598     4.12       854.35     55.20099     151.2705        14     0.998     0.968 -69.29   0
        67    289.2755    921.8126 307.7881402  +6.2921742     1579.774     2283.387     2571.399     78.12842     156.3192     312.9813      1.556     3.68     852.4155     55.20099     197.2147        15     1.135     0.875  71.35   0
        68    556.7540    919.8694 307.6771448  +6.3018782      624.477     915.6979     1047.349     78.50194     156.5685     313.1682      1.556     4.88     854.3453     55.20099     107.5063         8     1.161     0.580  47.70   0
        69    755.9594    917.5817 307.5945059  +6.3094371     989.5869     1308.171     1126.397     78.12841     156.4439      312.919      1.504     4.47      851.782     55.20099     125.0046        10     0.998     0.751  45.76   0
        70    131.9735    916.0248 307.8536452  +6.2893177     571.8585     931.1683     886.5574     78.00351     156.4439     313.0436      1.610     5.00      849.894     55.20099     73.92804         8     1.292     0.547  66.46   0
        71    893.6351    914.0341 307.5374563  +6.3154655     6469.392     10751.74     11311.19     78.25312     156.3816      312.919      1.776     3.80     849.5648     55.20099     745.9742        36     1.474     1.208  83.74   0
        72    429.4394    911.5318 307.7302856  +6.3010864     2286.872     3284.548     3549.483     78.37763     156.6308     313.2927      1.561     3.33      853.394     55.20099     326.2628        19     1.262     0.905  54.18   0
        73    331.1278    909.8830 307.7711608  +6.2984939     10215.18     14696.21     15742.76     78.74997     156.9418     313.1993      1.534     3.25     852.8297     55.20099     1349.849        32     1.387     1.003  86.13   0
        74    251.2135    908.9218 307.8043740  +6.2962276     7501.097      11214.4     11476.53     78.12841     156.3816     312.9813      1.573     3.38     851.8525     55.20099     990.0614        31     1.336     1.077  80.36   0
        75    169.7061    907.4000 307.8382669  +6.2941376     445.3595     416.8327     91.44127     78.00351     156.2568     312.8255      1.523     5.49     850.3051     55.20099     80.68695         6     1.124     0.756  78.49   0
        76    763.7933    902.9809 307.5917380  +6.3157252     766.4134     1266.791     977.9525     78.12842     156.3192     312.9813      1.541     5.05     851.3842     55.20099     107.5341         9     1.094     0.658  87.99   0
        77    579.3392    903.1880 307.6683220  +6.3095160     1374.299     1798.089     1953.846      77.8784     156.4439     312.8878      1.363     2.81     853.6648     55.20099     212.6383        10     0.841     0.783 -80.92   0
        78    141.7170    899.7904 307.8501423  +6.2963454     681.5255     809.3824     1095.769     78.12842     156.3192     313.0125      1.347     4.14     849.5771     55.20099     93.31091         8     0.918     0.644 -88.77   0
        79    909.7203    898.9001 307.5312791  +6.3222468     995.4506     1570.875     1518.222     78.25312     156.8796     313.1993      1.547     5.08     849.1334     55.20099     148.2776        10     1.092     0.819  30.53   0
        80    865.4519    897.9570 307.5496924  +6.3211696     805.3627     1492.481     2111.985     78.50194     156.5685     313.1993      2.122     5.71     849.8289     55.20099     110.7587        11     1.208     0.892  60.49   0
        81    407.9371    897.4327 307.7396836  +6.3061918     589.7688     814.0576     646.9858     78.25312      156.693     313.1371      1.356     5.04     852.8522     55.20099     93.49835         7     1.139     0.630  39.82   0
        82    745.7717    892.1339 307.5995815  +6.3196059     1675.503     2529.463     3105.907     78.25312     156.5685     313.1059      1.588     4.17     851.3314     55.20099      193.621        18     1.329     0.921 -72.16   0
        83    569.9957    892.8298 307.6725464  +6.3134821      728.951     991.2314     1436.923     78.00351     156.4439     312.9813      1.471     4.93     853.3016     55.20099     93.80615         8     0.972     0.733 -21.11   0
        84    977.2753    887.6461 307.5036004  +6.3291300     1074.687     2009.414     2737.106     78.37763      156.693     313.1993      2.036     5.55     847.1511     55.20099     129.2791        16     1.332     0.994  50.18   0
        85    622.0730    888.5132 307.6510659  +6.3169945     656.1406     773.1952     909.7104     78.62605     156.9418     313.1682      1.460     5.45     852.9933     55.20099     100.2685         8     1.106     0.759  78.42   0
        86    609.7914    888.3903 307.6561697  +6.3166373     795.6138     1041.807     928.2886     78.00351     156.4439     313.0748      1.397     4.24      853.076     55.20099     122.0406         9     1.080     0.782  70.94   0
        87    530.8519    887.9305 307.6889631  +6.3142038     1224.667     1778.495     1922.178     78.37763     156.5062     313.1371      1.532     3.72     853.1017     55.20099     195.6506        13     1.084     0.841  77.93   0
        88    664.1855    885.7201 307.6336722  +6.3195462     2707.478     3933.431     4179.385     78.12842     156.3816     312.9813      1.555     3.60     852.5378     55.20099     341.0651        20     1.264     0.923  74.57   0
        89   1015.2281    884.9528 307.4879299  +6.3314979      582.399     937.7567     584.0604     78.12841      156.693     313.1059      1.666     4.33     845.9656     55.20099     78.70343         5     1.049     0.510 -53.11   0
        90    954.3790    883.4041 307.5132487  +6.3301235     702.5275     1063.875     1128.769     78.12842     156.3816     312.9502      1.681     4.51     847.7206     55.20099     100.4613         7     1.063     0.543  44.56   0
        91     60.7371    882.1383 307.8843555  +6.3009295     3190.983     4886.779     5135.937     78.50194     156.6308     313.1993      1.659     3.46     848.1265     55.20099      411.166        22     1.287     0.986  75.20   0
        92    824.9088    881.8605 307.5670618  +6.3264718     974.8115     1353.938     1542.819     78.37763      156.693     313.2305      1.655     5.16     850.3297     55.20099     142.0266        12     1.176     0.727  80.99   0
        93    204.4724    881.0015 307.8247136  +6.3061962     2358.988     3346.879     2956.689     78.00351     156.1944     313.0125      1.495     3.12     850.4905     55.20099     325.8936        19     1.169     0.929  86.00   0
        94     78.3837    881.2623 307.8770578  +6.3018805       2110.2     3150.658     3739.229     78.00351     156.5685     312.9813      1.620     3.99      848.291     55.20099     273.5328        19     1.276     0.990  75.95   0
        95    942.8660    880.4979 307.5181257  +6.3309422     665.5939     1058.206     664.4843     78.50194      156.693     313.1993      1.619     5.32     847.9745     55.20099     95.94843         8     1.449     0.551  46.46   0
        96    238.3789    877.5986 307.8107488  +6.3087318      856.415     1283.525      720.616     78.12842     156.3192     312.8878      1.609     4.65     851.2661     55.20099     118.0018         9     0.985     0.796  40.79   0
        97    658.8633    874.7492 307.6362470  +6.3238991     7378.764      10840.8     11121.19     78.50194     156.5685     313.1993      1.574     3.37     852.4052     55.20099     946.5879        34     1.416     1.100  73.79   0
        98    343.3651    876.6355 307.7671887  +6.3126281     1030.568     1357.925     1503.812     78.25312     156.3816      312.919      1.610     4.38     852.2617     55.20099     135.6707        10     1.099     0.649  58.15   0
        99    796.5107    875.0296 307.5790807  +6.3283506     780.8691     1080.851     1220.332     78.62605     156.3816     313.1059      1.593     6.26     850.5706     55.20099     107.9186        10     1.127     0.976 -42.96   0
       100     19.0972    873.3384 307.9019388  +6.3031715     1289.948     2039.272     1936.041     78.25312      156.693     313.2305      1.673     4.10     847.2972     55.20099     172.9156        14     1.150     0.862  68.27   0
       101    896.6812    871.0197 307.5376183  +6.3333260     2577.026     4088.254     3890.705     78.12841     156.3192     313.1059      1.712     3.91     848.9648     55.20099     298.4589        24     1.342     1.061  82.64   0
       102     31.9131    871.6818 307.8966731  +6.3042836     1235.015      1528.65     1278.127     78.25312     156.8174     313.2616      1.499     4.96     847.4339     55.20099      162.253        13     1.068     0.873  79.49   0
       103    771.6558    871.1965 307.5895289  +6.3291089     498.5379     450.2313      480.354      77.8784     156.4439     312.8567      0.970     1.84     850.6834     55.20099      137.065         5     0.689     0.436 -69.30   0
       104    341.8522    868.1514 307.7680999  +6.3160805     17765.86     25321.86     26832.25     78.62605     156.5062     313.1682      1.509     3.26     852.0621     55.20099     2466.296        42     1.425     1.048  72.89   0
       105     76.4740    869.6341 307.8782396  +6.3066175     1443.042     2099.356     2060.298     78.37763     156.6308     313.1371      1.523     3.40     847.9788     55.20099     209.9697        15     1.160     0.867  83.23   0
       106    212.8495    867.6648 307.8216807  +6.3119818      1352.64     1840.702     1824.948     78.37763     156.5062     313.1682      1.405     3.29     850.5169     55.20099     219.0219        12     1.143     0.685  84.97   0
       107    392.6099    867.2714 307.7470533  +6.3181340     593.9683     968.6443     747.7255     78.00351     156.2568     312.9813      1.537     2.80     852.0768     55.20099     99.97723         5     0.720     0.451 -70.57   0
       108    555.8002    861.3712 307.6794878  +6.3259986     394.3173     890.0283     2249.469      77.8784     156.4439     312.9813      4.743     4.49     852.1925     55.20099     77.71191         5     1.195     0.480 -56.86   0
       109    419.6584    858.9677 307.7360988  +6.3224627     1142.338     1523.555     1608.457     78.37762      156.693     313.1059      1.480     3.35     851.8852     55.20099     214.4212        11     1.077     0.755  81.50   0
       110    105.1070    858.9147 307.8667094  +6.3119991     1757.723      2646.89     2757.447     78.37763      157.066     313.2616      1.612     3.86     848.1384     55.20099     217.0876        17     1.273     0.852  56.30   0
       111    673.0793    855.1286 307.6309962  +6.3324719     895.2853     1374.117     1618.358     78.74997     156.8796     313.1371      1.816     5.75      852.015     55.20099     108.4949        11     1.357     0.687  79.45   0
       112    500.3258    855.9453 307.7027036  +6.3263944     699.6794     897.5392     830.8863     78.37763     156.5685     313.1371      1.297     4.25     851.9427     55.20099     100.8176         8     0.983     0.638 -87.11   0
       113    887.0217    852.5417 307.5422424  +6.3406351      1813.44     2830.433     2791.019     78.12841     156.5062     312.9813      1.711     4.87     848.9376     55.20099     200.5865        19     1.428     0.932  76.37   0
       114    857.7949    852.2090 307.5543900  +6.3398041      1888.85     2923.726     2486.236      77.8784     156.3816     313.0125      1.608     3.96     849.5241     55.20099      221.274        23     1.333     1.058  64.84   0
       115    820.9233    851.6606 307.5697193  +6.3388084     3054.495     4768.523     4858.819     78.74997      156.693     313.1371      1.676     3.80     849.9698     55.20099     365.5366        26     1.382     1.079  73.78   0
       116     88.5761    852.4485 307.8737895  +6.3141168     2606.531     3808.683     4204.017     78.12842     156.6308     313.0748      1.577     3.23      847.846     55.20099     370.2152        23     1.266     1.040  78.83   0
       117    556.9615    843.1923 307.6796107  +6.3335427     358008.2     516022.2     538214.6      77.7531     156.3816     312.8878      1.528     3.36     851.9603     55.20099     51307.57       202     1.621     1.366  80.20   4
       118    451.4503    850.2067 307.7231896  +6.3271378     666.4853     774.7617     1668.346     78.00351     156.3816     312.8255      1.270     4.12     851.7171     55.20099     120.0126         7     0.993     0.488 -83.56   0
       119    401.1354    845.9315 307.7442247  +6.3272284     8398.886     12131.83     12239.38     78.50194      156.693     313.1993      1.519     3.20     851.5746     55.20099     1165.146        33     1.336     1.067  86.25   0
       120    644.9984    846.2533 307.6429519  +6.3352038     1222.446     1599.099     1211.962      77.8784     156.3816     312.7632      1.402     3.18     851.8994     55.20099     186.8363        10     0.913     0.757  58.23   0
       121    344.3812    844.2529 307.7678470  +6.3260315     13670.97     19474.55     20251.13     78.00351      156.693     312.9813      1.527     3.19     851.5112     55.20099     1742.178        39     1.364     1.069  82.05   0
       122    895.3007    839.1855 307.5392475  +6.3464238     5022.301     8185.377     8833.553     78.50194     156.3816     312.8878      1.775     3.78     848.5214     55.20099     607.7872        30     1.473     1.087  83.12   0
       123    662.7825    840.4448 307.6357602  +6.3381925      3791.96     5460.101     5822.692     78.12842     156.5062      312.919      1.565     3.23     851.7167     55.20099     545.5447        25     1.311     0.980  77.00   0
       124    890.5552    839.3318 307.5412133  +6.3462062     599.1834     931.0671     1370.271     78.50194     156.5685     313.1993      1.327     3.43      848.603     55.20099     78.87555         5     1.077     0.315  68.09   0
       125    734.6072    836.6093 307.6060623  +6.3421600     798.8267     1133.268     1268.695     78.00351     156.4439     313.0125      1.587     5.35     850.6448     55.20099     120.6609         9     1.044     0.773  84.43   0
       126    637.5577    834.4656 307.6464336  +6.3398235     3595.198     5071.227     4734.264     78.50194     156.5685     313.2305      1.549     3.27      851.712     55.20099     481.1952        24     1.261     0.999  77.60   0
       127    826.0797    833.5948 307.5681778  +6.3464383     1485.075     2373.144     2654.455     78.12841      156.132     312.9502      1.632     3.45     849.6032     55.20099     199.2581        14     1.044     0.902 -68.11   0
       128    628.0946    833.3452 307.6504005  +6.3399718     989.9908     1213.377     1149.471     78.37763     156.6308     313.3861      1.369     3.05     851.7447     55.20099     156.5248         9     0.892     0.658 -82.18   3
       129    630.5635    828.9500 307.6495215  +6.3418684     2402.498     3427.911     3574.411     78.25312     156.5685     313.0436      1.474     3.10      851.664     55.20099     329.1562        18     1.217     0.858  86.78   2
       130    953.3943    832.3967 307.5153486  +6.3511507     641.6566     1121.965     1313.791      77.8784     156.3192     313.0125      1.819     3.93     846.8445     55.20099     94.51801         6     0.845     0.539 -44.51   0
       131    324.2103    828.2726 307.7767557  +6.3319572     1083.908     1636.908     1471.169     78.00351     156.2568     313.0436      1.498     4.06     851.1148     55.20099     177.2905        13     1.217     0.810  83.39   0
       132    914.0660    826.7663 307.5318670  +6.3521730     3123.895     5009.492     4882.324     78.37762      156.693     313.1371      1.680     3.89     847.9979     55.20099     423.5244        25     1.387     1.043  62.52   0
       133    372.1728    823.2674 307.7570068  +6.3356213     2840.494     3927.849     3915.063     78.12842     156.5062     313.0748      1.473     3.51     851.0281     55.20099     379.0087        20     1.226     0.957  82.34   0
       134    508.5290    812.9520 307.7007291  +6.3444177     3270.139     4397.006     4607.344     78.50194     156.5685     313.1993      1.426     3.00     851.3064     55.20099     465.4293        22     1.294     0.897  83.90   0
       135    853.2388    811.8470 307.5576214  +6.3563176     1203.526     1920.316     2239.942     78.37762     156.6308     313.0125      1.731     4.99     848.7222     55.20099     146.3712        15     1.153     1.032  70.67   0
       136    573.6288    810.4607 307.6737790  +6.3476105     718.2397     909.3948      1494.06     78.12842     156.6308     313.1059      1.191     3.61     851.5347     55.20099     110.5431         6     0.872     0.483  89.50   0
       137    555.3016    809.0118 307.6814377  +6.3475996     6531.046     9411.816     10466.14     78.25312     156.3816     312.9502      1.523     3.13     851.5209     55.20099     882.1354        28     1.295     1.024  67.71   0
       138    562.1535    808.4263 307.6786119  +6.3480691     1329.536     2056.248     2213.201     78.12842      156.693     313.0748      1.641     5.53     851.5082     55.20099     177.6236        12     1.208     0.713  81.83   0
       139    266.8273    809.0221 307.8012258  +6.3379928     765.8766     932.2283     1026.287     78.00351     156.4439     313.1059      1.308     4.40      850.254     55.20099     139.5948         9     1.190     0.582  55.86   0
       140    891.2100    806.8438 307.5420192  +6.3596415     1348.484     1941.543     1768.973     78.00351     156.5062     312.8878      1.527     4.65     848.0567     55.20099     181.1647        16     1.371     0.825  60.56   0
       141    473.2078    808.0804 307.7155586  +6.3452542     1637.967     2200.796     2107.401     78.12841     156.2568     313.0125      1.458     3.18     850.9684     55.20099     262.0668        14     1.104     0.798  77.25   0
       142    114.8991    807.2427 307.8643712  +6.3336591     1410.776     1942.016     1660.242     78.50194     156.5062     313.3861      1.529     4.02     847.5437     55.20099     189.1024        18     1.247     0.983  74.02   0
       143    691.0161    805.3464 307.6252029  +6.3536210     709.8767     1089.745     629.9377      77.8784     156.6308      312.919      1.497     3.55     850.7515     55.20099     138.4003         8     0.976     0.599  69.46   0
       144    367.2640    804.8063 307.7596608  +6.3430797     828.6365     1033.344     935.1102      77.8784     156.3816     312.9502      1.505     5.39     850.6003     55.20099     118.7917        11     1.412     0.580  82.55   0
       145    526.0003    802.8917 307.6938090  +6.3491522     21562.68     30229.66     30742.87      77.7531      156.132     312.8567      1.462     3.26     851.2885     55.20099     3150.677        42     1.356     1.047  78.37   0
       146    939.7455    801.0225 307.5220568  +6.3636525     3688.442     5810.028      5797.26     78.00351     156.6308     312.9813      1.681     3.52     847.0069     55.20099     465.1116        31     1.471     1.081  83.70   0
       147    172.6134    802.6617 307.8405594  +6.3374766     660.7587     635.7288     103.7324     78.00351     156.4439     312.9502      1.252     3.70     848.3907     55.20099      110.112         6     0.870     0.687   7.77   0
       148     59.4754    799.5844 307.8876409  +6.3349700     585.4278     709.7186     418.2772     78.00351     156.3816     313.0436      1.399     4.07     846.5592     55.20099     92.03485         5     0.952     0.497 -86.79   0
       149     36.2460    793.8171 307.8974794  +6.3365750     1807.714     2690.778     2785.744     78.00351     156.5062      312.919      1.630     3.54      846.085     55.20099     219.3823        18     1.172     0.939  71.82   0
       150    581.5751    792.7039 307.6710702  +6.3552058     504.8967     810.9139       2011.7     78.62605     156.3816     313.0436      1.528     4.93     850.9974     55.20099     95.28271         7     1.394     0.494 -89.73   0
       151    318.6887    791.7032 307.7802687  +6.3468714     3543.906     4814.239      5047.61     78.50194      157.066     313.1993      1.441     3.23      850.033     55.20099     466.0623        19     1.174     0.880  82.00   0
       152    784.1931    787.3095 307.5871088  +6.3641595     57525.09     84017.53      87642.2     78.12842     156.3192     312.9502      1.580     3.35     849.4432     55.20099     7530.956        71     1.508     1.169  77.28   0
       153     18.4328    790.0406 307.9050023  +6.3375389     2358.623     3543.124     3288.599     78.25312     156.5062     313.0125      1.596     3.56      845.772     55.20099     318.2568        20     1.220     1.033  88.41   0
       154    722.8846    789.5089 307.6124954  +6.3612175     706.6723     896.5054     911.6248     78.25312     156.9418     313.2927      1.326     4.56     850.0992     55.20099     99.04913         8     0.842     0.701  87.33   0
       155    427.6335    786.2632 307.7352105  +6.3527453     855.0776     1313.967     1137.281     78.37763      156.693     313.1371      1.579     3.77     849.6978     55.20099     141.6995         8     1.048     0.648  85.29   0
       156    241.3571    785.3963 307.8125910  +6.3468977     5555.802     8276.129     10239.93      77.8784     156.2568     312.8878      1.702     3.22     849.0793     55.20099      698.816        30     1.365     1.035  69.51   0
       157    909.4354    782.5008 307.5352582  +6.3702958     8679.743     13127.77     13961.38     78.50194     156.5062     313.3239      1.689     3.59     847.1085     55.20099      989.876        34     1.423     1.108  77.12   0
       158    712.4520    781.9918 307.6170776  +6.3639749     22906.74     33617.35     35944.93     78.00351     156.5062     312.8878      1.553     3.24     849.8808     55.20099     3034.626        48     1.490     1.097  78.22   3
       159    706.1276    778.4423 307.6198219  +6.3652305     96024.54     135666.8     141061.9     78.37763      156.693     313.1993      1.544     3.24      849.767     55.20099     13030.78        75     1.471     1.138  77.44   3
       160    350.9681    779.4887 307.7672722  +6.3529897     23213.59     32022.68     32965.87     78.62605     156.4439     313.1682      1.486     3.21     849.1722     55.20099     3290.274        42     1.387     1.024  76.89   0
       161    210.0458    782.0156 307.8257058  +6.3472493     526.2601     805.9764     763.8948     78.00351     156.4439      312.919      1.471     3.59      848.442     55.20099      92.9906         5     0.973     0.382  60.09   0
       162    412.8538    777.3326 307.7416456  +6.3559405     24878.77     34209.89     35607.86     78.50194     156.5685     313.0748      1.477     3.12     849.0389     55.20099     3666.538        48     1.369     1.073  76.77   0
       163    400.2785    779.6844 307.7467892  +6.3545509     1570.987      2088.78     1571.977     78.50194     156.9418     313.2927      1.341     3.02     849.2222     55.20099     229.1808        12     0.999     0.734 -71.61   0
       164    639.8847    778.8375 307.6473176  +6.3628680     833.7734     1030.965     1688.404     78.50194     156.6308     313.1371      1.383     4.55     850.1082     55.20099       134.27         7     0.827     0.711 -85.92   0
       165    240.8396    763.8766 307.8135245  +6.3557651     762337.8      1633662      1782546     78.37762     156.6308     313.1993      2.166     4.81      848.447     55.20099     63724.74       552     2.361     1.984  79.00   4
       166    949.9276    776.0138 307.5186576  +6.3743151     2048.393     3123.341     3080.107     78.00351     156.3816     313.0125      1.615     3.97     845.6849     55.20099     239.3405        17     1.212     0.892  87.46   0
       167    906.3813    773.9115 307.5368114  +6.3737410     6573.537     10309.89      10677.7     78.25312     156.3816     313.0748      1.696     3.55     846.8666     55.20099     787.8867        32     1.455     1.070  76.15   0
       168    878.9125    775.5529 307.5481643  +6.3721533     547.3163     770.8576     1113.426     78.50194     156.5062     313.1993      1.501     5.52     847.6474     55.20099     91.44293         7     1.567     0.548  77.66   0
       169    646.8856    773.1000 307.6446012  +6.3654694     6922.547      9920.94     10768.49     78.50194      157.128     313.2616      1.527     3.26     849.8073     55.20099     971.7955        31     1.328     1.045  84.78   0
       170    136.7854    773.4921 307.8564116  +6.3483239     528.0854     846.5402     656.3786     78.25312     156.4439     312.9813      1.653     3.78     846.7182     55.20099     89.96442         5     1.040     0.395  83.40   0
       171    387.2199    772.1924 307.7524617  +6.3572093     624.1514     877.0795     1003.256     78.12841     156.3816     312.9813      1.480     5.01     848.7334     55.20099     99.54419         8     1.147     0.619 -81.66   0
       172    435.6178    771.1027 307.7324003  +6.3592703     1778.349     2528.955     2447.185     78.37763     156.4439     312.9502      1.505     3.65     848.9356     55.20099      263.443        13     1.188     0.706  76.17   0
       173    160.9377    770.8260 307.8464716  +6.3502306     881.4872     1177.801     543.1854     78.12841     156.5685     313.0748      1.461     3.76     846.9204     55.20099     121.8165         9     0.894     0.782 -71.08   0
       174    600.1262    765.5566 307.6642700  +6.3670305     1157.221     1739.641     2860.578     78.37763      156.693     313.1993      2.360     4.83      849.579     55.20099     150.3978        16     1.385     0.875 -80.40   0
       175    875.4391    765.2420 307.5499488  +6.3762953     670.5319     1088.431     1428.691     78.25312      156.693     313.0436      1.748     4.77     847.5876     55.20099     102.4951         8     0.970     0.665 -81.46   0
       176    681.9946    763.0442 307.6303556  +6.3707869     2688.777     3845.756     3870.484      77.8784     156.3192     312.8255      1.492     3.26     849.3002     55.20099      396.004        23     1.286     1.011  81.74   0
       177    151.2694    764.1707 307.8507088  +6.3526557     992.2911     1551.982     1114.382     78.25312     156.6308     313.1059      1.511     3.14     846.5214     55.20099      172.233         8     0.940     0.610  77.64   0
       178    125.9864    763.9928 307.8612134  +6.3518852      1107.42     1724.405     1863.956     78.12842     156.3816     313.0125      1.734     3.42      846.251     55.20099     147.0726        11     1.013     0.707 -85.71   0
       179    415.7631    759.9844 307.7410158  +6.3631998     59459.79     83223.84     86283.61     78.12841     156.4439      312.919      1.458     3.09     848.0002     55.20099     9075.709        70     1.416     1.136  79.35   0
       180    958.7313    761.7463 307.5154747  +6.3804973     700.4607     1180.666     1366.422     78.37763     156.5685     313.0748      1.793     5.80       845.03     55.20099     92.43433        10     1.149     0.823  72.47   0
       181    533.4922    758.9426 307.6921614  +6.3675465     7862.224     10786.71     10609.01     78.37762     156.5685     313.2616      1.442     3.14     849.1771     55.20099     1124.277        28     1.295     0.936  78.49   0
       182    778.7348    755.4234 307.5904346  +6.3771434     12228.18     17542.14     18411.24     78.12842     156.6308     313.0748      1.556     3.19     848.7074     55.20099     1627.648        38     1.411     1.051  78.69   0
       183    450.2943    757.6039 307.7267555  +6.3653319     5072.638       6961.8     7897.167     78.25312     156.3192     312.9502      1.455     3.06     848.4485     55.20099     674.3546        26     1.240     0.970  67.36   0
       184      8.2453    751.9069 307.9105089  +6.3529421     1218.776      1743.55     1688.467     78.37762     156.5685     312.7943      1.491     3.39      845.197     55.20099     187.4236        13     1.212     0.671  67.30  16
       185    446.8430    751.0140 307.7284084  +6.3679378     2638.789      3584.61     4045.133      77.7531     156.3816      312.919      1.450     2.91     848.0242     55.20099     441.7499        16     1.127     0.783  76.40   0
       186    800.4043    749.3990 307.5816356  +6.3803493     1231.715     1672.942     1567.214      77.8784     156.1944      312.919      1.642     3.78     848.4885     55.20099     159.4127        13     1.088     0.855 -78.05   0
       187    136.4990    747.7537 307.8573910  +6.3589405     12572.21     17984.88     19423.23     78.50194     156.5062     313.3861      1.548     3.23     845.7421     55.20099     1698.033        40     1.397     1.061  79.31   2
       188    128.5630    745.2214 307.8607710  +6.3597211     3303.228     4941.286     5809.778     78.12842     156.3816      312.919      1.711     4.12     845.5666     55.20099     438.2843        26     1.421     1.117  63.58   3
       189    128.8013    738.6608 307.8608914  +6.3624376     2197.983     3249.018     3424.858      77.8784     156.4439     312.8878      1.582     3.19     845.3402     55.20099      309.658        18     1.155     0.937  79.21   3
       190    144.6187    748.0098 307.8540107  +6.3591058     3345.154     4719.202     5085.761     78.12841     156.3816     313.0436      1.454     3.15     845.8221     55.20099     472.9375        17     1.184     0.836  70.92   0
       191    924.2546    743.8767 307.5303851  +6.3867336     6561.523     10112.13     10173.21     78.62605     156.6308     313.1682      1.651     3.45     845.0083     55.20099     805.4528        35     1.453     1.113  73.05   0
       192    973.7712    743.5897 307.5098307  +6.3884916     1399.707     2125.923     2697.578     78.00351     156.4439     313.0125      1.606     3.97     844.4254     55.20099     179.8813        18     1.281     0.967  69.37   0
       193    679.6164    741.7372 307.6320517  +6.3795050     1743.483     2574.522     2898.259     78.00351     156.5685     313.0125      1.576     3.72     848.5064     55.20099     250.5031        14     1.156     0.832  68.79   0
       194    566.6425    741.0026 307.6789922  +6.3760554     2648.478     3876.806     4329.703      77.8784     156.2568     312.8878      1.546     2.88     848.2657     55.20099      434.549        19     1.292     0.849  63.72   0
       195    414.7289    740.5539 307.7420931  +6.3711876     1360.471      1760.59     1725.984     78.50194     156.6308     313.1682      1.425     4.60     846.8392     55.20099     196.9202        12     1.241     0.657  79.57   0
       196    947.9594    735.4188 307.5208211  +6.3910107     3008.524     4765.962     5009.858     78.12841     156.4439     312.8878      1.700     3.57     844.3634     55.20099     371.1115        25     1.296     1.073  75.01   0
       197    918.4363    735.9116 307.5330656  +6.3898295     3134.719     4668.086     5588.875     78.50194     156.5685     313.1682      1.679     3.48     844.9821     55.20099     355.9883        20     1.171     1.036 -82.83   0
       198    670.7285    735.4340 307.6359523  +6.3818123     1402.386     2080.779     2282.374     78.37763     156.6308     313.1682      1.537     3.50     848.2654     55.20099      248.291        13     1.097     0.803 -64.79   0
       199    978.6957    735.0120 307.5080699  +6.3921962      1952.19     3063.601     3198.114     78.25312     156.3816     312.9502      1.672     3.81     844.2532     55.20099     276.2269        21     1.331     1.002  42.77   0
       200    817.9332    733.5541 307.5748822  +6.3874725     1061.003     1532.618     1160.281     78.50194     156.5685     313.1993      1.506     4.58     848.0032     55.20099     151.4642        12     1.173     0.718 -85.87   0
       201    893.6384    731.7800 307.5435012  +6.3907139     784.4819     1454.192     1397.129     78.12842     156.4439      312.919      1.849     7.35     846.0577     55.20099     139.9924        14     1.439     1.052  76.40   0
       202    616.3212    731.5001 307.6586777  +6.3816295     529.3384     1115.109     1796.633     78.25312     156.8796     313.1993      4.684     5.82     847.9125     55.20099     94.35742         9     1.946     0.490 -71.68   0
       203    243.4091    730.5118 307.8135718  +6.3696258     2043.633     2995.273     3970.429     78.12842     156.3192     312.9502      1.641     3.28     847.2175     55.20099     287.4352        17     1.201     0.851  79.45   0
       204    680.6187    727.3876 307.6321126  +6.3854628     744.5878     1009.294     1569.511     78.25312     156.3192     313.0748      1.471     4.44     848.1166     55.20099     106.5461         7     0.928     0.603  69.15   0
       205    263.3765    726.1238 307.8054265  +6.3721032     772.9728     959.3919     787.8528     78.12842     156.5062     313.1371      1.503     5.40     846.8738     55.20099     116.3311         9     1.331     0.619  80.14   0
       206    936.6102    725.4186 307.5258661  +6.3947637     1090.291     1378.574     1433.408     78.12842     156.3192     313.0436      1.434     3.27     844.3379     55.20099     140.5278        11     1.003     0.770 -71.71   0
       207    158.6873    725.7306 307.8489133  +6.3687735     874.3947     1077.845     888.1424     78.62605     156.8796     313.1993      1.352     4.12     845.0971     55.20099     127.3052         9     1.015     0.635  85.94   0
       208    962.8445    723.1188 307.5150472  +6.3965819     2409.692     3774.421     4505.793     78.50194     156.6308     313.1371      1.687     3.77     844.1198     55.20099     302.9316        23     1.312     1.065  87.77   0
       209    910.0246    724.1584 307.5369489  +6.3944036     1150.427         1569     1849.955     78.12842     156.5685     312.9502      1.554     3.54     845.1668     55.20099     170.9902        11     1.003     0.763 -89.91   0
       210    682.4039    722.3461 307.6315388  +6.3876036     1009.591     1366.935     1746.372      77.8784     156.3816     312.8255      1.477     4.09     848.0185     55.20099     132.3136        11     1.054     0.744  68.04   0
       211   1004.5275    716.5770 307.4979530  +6.4006625     1574.381       2401.8     2040.511     78.12842     156.4439     313.1371      1.712     4.61     843.6022     55.20099     207.4482        21     1.287     1.125 -89.43   0
       212    473.6911    717.7980 307.7183659  +6.3825449     822.3513     1103.768     1292.081      77.7531     156.3192     312.9502      1.383     3.35     847.2345     55.20099     133.4258         7     0.832     0.614 -63.71   0
       213    403.1943    718.0162 307.7476345  +6.3801086     623.8476     799.4237     545.3098     78.12842     156.3192     313.0125      1.384     3.77     846.0269     55.20099      109.434         6     0.918     0.444  56.51   0
       214    806.0843    715.2397 307.5804112  +6.3946412     1140.817     1623.556     1851.774     78.50194     156.5685     313.1059      1.544     3.63     847.7074     55.20099     178.7957        13     1.133     0.828 -87.57   0
       215    631.1865    716.1758 307.6530142  +6.3884503     665.9518     1026.372     2175.925     78.25312     156.4439     313.1059      1.443     3.95      847.499     55.20099     108.1717         6     0.811     0.551  45.70   0
       216    892.2958    712.2906 307.5447054  +6.3987162     1696.402     2470.802      2227.77     78.50194      157.128     313.1682      1.558     3.70     845.5259     55.20099     219.1882        16     1.169     0.913  73.13   0
       217    866.8048    707.6744 307.5554451  +6.3997775     1080.224     1472.029     1668.189     78.12842      156.132     313.0748      1.490     4.26     846.1213     55.20099     150.9273        11     0.979     0.810  39.42   0
       218    652.4377    707.1699 307.6444883  +6.3928744     618.5511      717.952     1255.428     78.12842     156.3816     313.0436      1.267     2.97     847.4567     55.20099     111.8907         5     0.724     0.467  72.36   0
       219    849.1495    703.7120 307.5629089  +6.4008283     1676.017     2155.075     2082.005     78.50194     156.4439     313.2927      1.381     3.19     846.3774     55.20099     273.7349        15     1.151     0.802  57.85   0
       220     47.9296    703.1350 307.8956623  +6.3744038     2713.127     3807.458     4057.996     78.50194      156.693     313.1682      1.487     3.32     844.6447     55.20099     372.5148        20     1.195     0.926  75.41   0
       221    112.1553    701.7396 307.8690384  +6.3771250      960.053     1900.933      1403.82     78.37763     156.5685     313.2927      1.995     7.10     844.3508     55.20099     129.7708        16     1.649     0.856  73.87   0
       222    460.0906    701.5719 307.7245547  +6.3887916     535.3408     629.6643     782.7723     78.62605     156.3816     313.0436      1.264     3.69     846.4399     55.20099     106.5407         6     0.910     0.538  69.89   0
       223    566.0012    697.8423 307.6806953  +6.3938536     611.0767     834.8651     647.5249      77.8784     156.3192     312.8255      1.351     2.52     846.6526     55.20099     128.0607         5     0.774     0.471  64.89   0
       224    703.6196    694.6885 307.6236476  +6.3997269     525.1947     701.6829     97.71134     78.25312     156.3816     313.0748      1.371     3.50     847.5842     55.20099     94.28693         5     0.765     0.462  75.79   0
       225    660.8239    691.3596 307.6415314  +6.3996805     6892.497      9652.42     10224.99     78.12842     156.4439     312.9502      1.503     3.14     847.1785     55.20099     1067.875        30     1.353     0.991  77.57   0
       226    529.0878    691.1936 307.6962465  +6.3953715     806.2708     1142.694     662.7638     78.00351     156.3192      312.919      1.492     4.93     846.4008     55.20099     113.0356         9     0.998     0.690  73.50   0
       227    518.4819    691.3710 307.7006452  +6.3949456     850.2558     1226.625     1193.434     78.37763     156.4439     313.1059      1.756     3.34     846.4008     55.20099     145.6547         8     1.023     0.499 -88.64   0
       228    607.6713    690.5098 307.6636339  +6.3982658     1593.959     2264.655     2370.245     78.37763     156.8796     313.1682      1.517     3.64     846.4008     55.20099     241.6403        13     1.089     0.814  52.04   0
       229    634.9521    687.1747 307.6524151  +6.4005490     2598.375      3744.28     5152.188     78.12842      156.693     313.0748      1.683     3.52     846.6703     55.20099     350.3409        23     1.375     1.104 -73.27   0
       230    123.8099    687.5375 307.8646736  +6.3833776     4284.893     5893.866     5715.199     78.00351     156.4439     312.9813      1.476     3.27     843.9592     55.20099     626.0159        23     1.220     0.989  85.39   0
       231    997.9735    686.3786 307.5016759  +6.4129138     2546.441     4130.414     4396.414     78.00351     156.4439     313.1059      1.746     3.89     842.7889     55.20099     318.5226        24     1.419     1.012  71.31   0
       232    310.3562    687.3599 307.7872111  +6.3896732     826.6078      1234.34     1336.924     78.25312     156.6308     313.0748      1.708     4.52     844.2252     55.20099     113.7623         9     1.109     0.597  77.21   0
       233    246.1378    687.2189 307.8138845  +6.3875907     730.7123      1005.55      1061.81     78.12841     156.5685     313.0436      1.649     5.14     844.1653     55.20099     107.2123         8     1.060     0.706 -68.53   0
       234    777.7007    683.3891 307.5932569  +6.4068502     22022.29     30940.27     32241.66     78.25312     156.2568     312.9502      1.515     3.20     847.3198     55.20099     3050.516        41     1.395     1.019  75.35   0
       235    907.7436    683.0632 307.5392595  +6.4112952     3880.738     5533.388     5570.573     78.62605     156.5685     313.1993      1.531     3.51     844.4576     55.20099     500.7365        24     1.289     0.983  74.56   0
       236    476.7411    683.9260 307.7182279  +6.3966310     1458.438     2160.949     2264.588     78.62605     156.6308     313.1682      1.582     3.55      846.093     55.20099     252.1456        15     1.241     0.747  72.60   0
       237    505.0482    683.4080 307.7064894  +6.3977865     1011.046     1299.483     1592.708     78.00351     156.5062     312.8255      1.461     3.83     846.1129     55.20099     150.1317        10     1.043     0.630  65.27   0
       238    459.8430    684.4589 307.7252278  +6.3958487      459.756     494.1245     499.7697     78.37763     156.6308     313.2616      0.920     3.38     845.8554     55.20099     100.0388         5     0.746     0.453 -20.43   0
       239    322.4627    683.4126 307.7823152  +6.3917063     735.4341     1028.207     1135.954     78.00351     156.4439     312.9502      1.572     5.67     844.0113     55.20099     104.0827         9     1.164     0.777  81.76   0
       240    278.7871    683.5045 307.8004499  +6.3902128     675.3002     711.5913     857.5396     78.25312     156.3816     312.9813      1.272     4.58     843.9848     55.20099     107.2814         9     1.072     0.675  68.53   0
       241    641.0817    676.7950 307.6502148  +6.4050381     1104.328     1738.591     2490.495     78.12841     156.1944     312.9502      2.350     7.31     846.4817     55.20099      213.952        15     2.095     0.714 -65.53   0
       242    251.1418    677.3838 307.8121349  +6.3918181      6932.27     9653.902     9927.215      77.8784     156.5685      312.919      1.475     3.28     843.4763     55.20099     971.5336        26     1.260     0.959  76.92   0
       243    658.2367    676.2739 307.6431076  +6.4058230     7768.015     10854.16     11282.47     78.37763      156.693     313.1993      1.496     3.29     846.7679     55.20099     1081.108        30     1.315     0.960  76.32   0
       244    353.6677    676.6119 307.7695831  +6.3955537     771.5619     1031.692     913.8617     78.00351     156.5062     313.0748      1.545     4.85     843.8345     55.20099     101.0703         8     0.946     0.706 -88.63   0
       245    918.0231    668.8036 307.5354634  +6.4175231     1277.073     1838.727     1983.561     78.12842     156.3192     313.0125      1.599     4.37     844.1221     55.20099     151.0319        14     1.063     0.949  60.17   0
       246    729.9741    664.7504 307.6136976  +6.4129622     3906.407     5825.918     5655.881     78.12841      156.693     313.0748      1.572     3.73     847.0211     55.20099     565.7616        24     1.418     0.909  73.05   0
       247    685.2224    665.1750 307.6322694  +6.4113015     1192.648     1535.849     1957.036     78.00351     156.4439     313.1371      1.420     3.78     846.7444     55.20099     179.3368        11     1.149     0.684  85.71   0
       248    996.2538    661.1768 307.5032254  +6.4232622     8700.258     13325.46     13326.88     78.00351     156.6308     312.9813      1.636     3.35     842.3973     55.20099     1171.721        36     1.448     1.094  73.87   0
       249    934.6705    661.7469 307.5287835  +6.4209880      2464.69     3579.102     3742.795     78.37763     156.5685     313.1059      1.571     3.27     843.7517     55.20099     353.6274        19     1.238     0.909  87.78   0
       250     15.5539    661.3032 307.9105069  +6.3905923      2006.49     3167.788     3706.265     78.50194     156.5685     313.3239      1.748     3.42     844.5396     55.20099     281.5705        16     1.149     0.905  70.51   0
       251    548.7947    659.3638 307.6891222  +6.4091682     718.5786      894.411       930.65     77.62759     156.3816     312.9813      1.633     5.07     845.4042     55.20099     89.93555         9     0.920     0.790 -89.78   0
       252    431.8614    659.9449 307.7376656  +6.4050385     729.7981     1086.229      1114.48     78.62605     156.6308     313.1371      1.601     4.40     844.7773     55.20099     109.1544         6     0.805     0.683  64.87   0
       253    649.1748    659.4743 307.6474299  +6.4124581     481.1585     834.5499     1331.804     78.12842     156.4439     313.1059      1.651     2.78     846.0493     55.20099     98.13348         5     0.728     0.465  19.04   0
       254     73.5044    656.4496 307.8866039  +6.3945324     28672.08     39637.18     40904.63     78.37763     156.5062     313.3239      1.512     3.05     843.7641     55.20099     3869.884        47     1.368     1.089  76.67   0
       255    534.8386    657.0696 307.6949947  +6.4096514     2238.444     2779.021     2288.983     78.37763     156.6308     313.2305      1.333     3.24     845.3337     55.20099     394.4062        15     1.159     0.770  84.53   0
       256    272.3234    657.4484 307.8040042  +6.4007548     550.1345     567.7949     806.3918     78.37763      156.693     313.1682      1.313     4.36     842.8088     55.20099     82.10687         7     0.982     0.552  56.69   0
       257    503.6987    654.3474 307.7080179  +6.4097398     1558.703     2271.027      2481.11     78.37763     156.6308     313.3861      1.613     3.13     845.1791     55.20099     243.1082        15     1.141     0.791  67.74   0
       258    924.6199    653.0270 307.5332470  +6.4242554     1124.164     1582.491     1138.561     78.12841     156.4439     313.0748      1.487     4.29      843.632     55.20099     166.2083        16     1.293     0.926  53.34   0
       259    543.9529    650.9018 307.6914149  +6.4125010     1152.826     1470.741     1308.597     78.50194     156.5685     313.3549      1.350     3.98      845.202     55.20099     169.5328        12     1.142     0.690  77.87   0
       260    719.6703    648.3259 307.6185229  +6.4194015     3752.265     4948.087     4897.993     78.62605     156.7552     313.1682      1.434     3.47     846.2082     55.20099     546.4073        18     1.238     0.781  81.79   0
       261    741.6262    646.5920 307.6094618  +6.4208460     4466.901     6181.085     6076.782     78.12842     156.4439     313.0125      1.498     3.18     846.1982     55.20099     673.1716        23     1.264     0.922  79.03   0
       262    657.8448    644.8817 307.6443146  +6.4187709     369.4171      686.225     749.3056     78.50194     156.6308     313.1371      3.795     3.40     845.6942     55.20099     86.83319         5     1.513     0.221 -62.90   0
       263    573.0403    644.7078 307.6795408  +6.4160252     3766.269     5131.307     4739.272     78.62605     156.5685     313.2305      1.447     3.31     845.0553     55.20099     537.2218        22     1.233     0.916  77.34   0
       264    409.1168    645.1838 307.7476036  +6.4103757     1456.929     2166.569     2347.091     78.12841     156.3192     313.0748      1.439     3.69     843.9617     55.20099     208.7675        13     1.185     0.671  78.67   0
       265    233.5905    644.5087 307.8205218  +6.4048056     1975.594     2621.858     2672.868     78.12842     156.3192      312.919      1.391     3.50     842.7397     55.20099     306.5428        16     1.236     0.815  72.51   0
       266   1014.5153    642.5438 307.4962586  +6.4315597     5100.684     7651.825     7765.932     78.50194     156.6308     313.2927      1.654     3.40     841.9947     55.20099     641.2097        30     1.442     1.028  71.29  16
       267    979.8846    641.4652 307.5106775  +6.4308589     8262.414     12442.58     13032.56     78.62605     156.8174     313.2305      1.626     3.25     842.5115     55.20099       1112.3        36     1.424     1.108  74.57   0
       268    317.1098    643.5986 307.7858670  +6.4079656     1594.609     2330.521     2336.073      77.7531     156.1944     312.8878      1.464     3.36     842.3477     55.20099     247.9458        13     1.090     0.752  71.12   0
       269    533.8289    642.1564 307.6959107  +6.4157750     703.5547     967.6296     1360.607     78.12841      156.693     313.0748      1.490     5.17     844.9365     55.20099     130.2277         7     1.195     0.633  72.42   0
       270    699.8515    640.4162 307.6270169  +6.4220093      1083.91     1532.256     1786.432     78.00351      156.693     312.8878      1.554     4.23     845.7864     55.20099      170.004        12     1.103     0.935  69.52   0
       271     91.0949    638.8121 307.8798890  +6.4024017     900.9039     1101.496     1192.028     78.25312     156.3816     312.9813      1.365     4.02     843.1729     55.20099     158.8256         9     1.011     0.727  73.50   0
       272    425.2899    636.0887 307.7411901  +6.4146692      3145.11     4501.908     4551.158     78.37763      157.128     313.2616      1.502     3.33     844.0092     55.20099     469.2571        24     1.347     1.067 -84.50   0
       273    138.2532    635.3180 307.8604216  +6.4054189     27066.46     37195.05     38309.95     78.50194     156.6308     313.2305      1.476     3.04     842.7968     55.20099     3694.638        44     1.343     1.057  76.88   0
       274    806.5439    635.2798 307.5828759  +6.4276698     1269.703     1941.501     1859.671     78.62605     156.6308     313.1993      1.680     3.61     845.0302     55.20099     189.3603        14     1.249     0.749  72.72   0
       275    642.9768    636.0573 307.6507830  +6.4219205     462.5626      594.595     540.2161     78.12842     156.6308     312.9813      1.392     4.64     845.2068     55.20099     77.68842         6     0.898     0.680 -48.80   0
       276    357.9734    630.6099 307.7693297  +6.4146896     784.1848      1161.74     1162.338     78.12841     156.4439     313.0436      1.440     4.12      841.905     55.20099     119.5045         8     0.982     0.683 -62.75   0
       277    974.7669    624.4131 307.5133684  +6.4377299      6884.29     11275.12     11670.85     78.00351     156.3816     313.0748      1.764     3.75     842.3566     55.20099     872.4116        41     1.567     1.173  60.69   0
       278     19.3270    624.1918 307.9101824  +6.4060399     1301.909       1661.1     1968.814     78.12842     156.1944     313.0125      1.368     3.34      844.278     55.20099     206.7492        14     1.056     0.879  81.00   0
       279    568.3107    619.9277 307.6823301  +6.4260990     54536.67      74329.2     77119.32     78.50194     156.8796     313.1682      1.428     3.06     844.4321     55.20099      7491.44        61     1.368     1.079  77.73   0
       280    932.9831    621.5085 307.5308190  +6.4375456     767.1556     1191.521     1181.918     78.25312     156.3816     313.0748      1.404     3.05     842.6686     55.20099     157.7197         6     0.938     0.461  79.76   0
       281    211.6091    621.4978 307.8304193  +6.4135727     718.2781     898.7127     554.9473     78.25312     156.2568     312.9502      1.315     3.45     842.4826     55.20099     132.8108         5     1.059     0.324  68.78   0
       282    527.6663    620.3135 307.6991976  +6.4245884     856.3829     1034.372     1119.725     78.50194     156.8174     313.1993      1.398     3.44     844.3159     55.20099     140.1451         9     0.994     0.630 -89.01   0
       283    793.0030    619.6317 307.5890196  +6.4336815     604.5474     964.8419     596.5798      77.8784     156.4439     312.9502      1.744     2.82     844.5618     55.20099      100.741         5     0.762     0.563 -89.59   0
       284    175.7709    616.7778 307.8454606  +6.4143256     3127.808     4373.179     4775.071      77.8784     156.4439     313.0436      1.478     3.18     842.4559     55.20099     470.3815        23     1.341     0.912  73.34   0
       285    498.3016    617.1033 307.7115002  +6.4249371     717.4497     998.4011     818.1893     78.50194      157.128     313.0125      1.286     3.30     844.0178     55.20099     124.6396         6     0.966     0.423 -78.19   0
       286    978.8176    616.6119 307.5119447  +6.4410849     617.2791     1057.439     1252.617     78.25312     156.3192     313.0748      1.674     4.44     842.2373     55.20099      97.7511         5     1.113     0.504  57.32   0
       287     68.6075    611.2894 307.8901486  +6.4130134     1665.836     2237.586     2134.364     78.00351     156.3192      312.919      1.443     3.54     843.0609     55.20099     241.9376        15     1.225     0.774  81.71   0
       288    465.5418    603.7843 307.7255498  +6.4293462     71472.92     97452.01     100614.5      77.8784     156.5685      312.919      1.438     3.12     843.3271     55.20099     10619.66        67     1.381     1.080  78.03   0
       289      8.9678    605.7062 307.9151033  +6.4133254     2098.479     3330.313     3315.817     78.62605     156.5062     313.2305      1.643     3.49     844.3315     55.20099     265.4453        18     1.203     0.913  62.91   0
       290    676.2009    603.4700 307.6380682  +6.4364782     456.1584     903.3143     1076.094      77.8784     156.1944     312.9813      2.444     4.24     844.3123     55.20099      94.6723         5     1.195     0.428 -58.58   1
       291    651.3849    600.6964 307.6484673  +6.4367992     954.8643     1408.441     1264.147     78.25312     156.3816     312.9502      1.479     4.36     844.0985     55.20099     149.2238        10     1.226     0.617  82.99   0
       292    139.9569    599.1107 307.8609248  +6.4204242     1858.962     2569.656     2368.895     78.50194     156.5062     313.1993      1.463     2.92     842.1827     55.20099     270.1967        14     1.004     0.858 -81.10   0
       293    935.1909    597.0237 307.5307143  +6.4477280     492.1468     822.3011     1112.649     78.12842     156.4439     313.0436      1.704     3.90     842.0542     55.20099     68.22577         5     0.848     0.514  34.50   0
       294    419.0716    596.6875 307.7450864  +6.4307296     1137.977     1530.916     1225.705     78.62605     156.8796     313.1682      1.447     3.45     842.6953     55.20099     151.6124        11     1.016     0.711  77.37   0
       295    611.4686    595.6932 307.6652123  +6.4375389      945.649     1654.602     1567.184     78.37763     156.7552     313.1993      1.818     4.13     843.5931     55.20099     144.9638        10     1.059     0.698  83.05   0
       296    310.9750    593.2740 307.7900946  +6.4285383     2323.003     3539.761     3638.522     78.12842     156.4439     313.1059      1.560     3.60     840.8257     55.20099     396.6174        18     1.304     0.808  81.27   0
       297    463.1168    592.0172 307.7269491  +6.4341237     969.3835     1386.535     1667.739     78.12842     156.3192     313.1059      1.589     4.41     842.8331     55.20099     159.6747         9     0.994     0.655  80.91   0
       298     18.7927    593.2159 307.9114413  +6.4188105     524.8939      640.955     802.6667     78.12841     156.3816     313.0125      1.214     4.35     843.7617     55.20099     86.56219         5     0.762     0.707  53.71   0
       299    737.6806    587.1354 307.6130767  +6.4452631     5823.869     8175.375     8274.181     78.74997      156.693     313.1371      1.449     3.28     843.8515     55.20099     885.6442        26     1.304     0.915  74.22   0
       300    791.1721    582.3599 307.5910182  +6.4490093     15367.72     21122.65     22041.91     78.12842     156.4439     313.0436      1.458     3.15     843.3962     55.20099     2256.829        31     1.299     0.975  75.76   0
       301     36.4076    582.7005 307.9044779  +6.4237405     651.7982     976.3533     1063.614     78.25312     156.2568     312.9813      1.555     4.61     843.2077     55.20099     105.2441         7     1.232     0.490  88.23   0
       302   1008.6680    582.4635 307.5006786  +6.4561720     1005.631     1559.011     1610.569     78.50194     156.6308     313.2305      1.720     4.68     840.7836     55.20099     145.7665        11     1.047     0.912  68.12   0
       303    533.4971    582.6094 307.6980318  +6.4403491     1313.755     2047.056     2511.588     78.25312     156.2568     312.9813      1.846     3.53     842.9257     55.20099     207.2192        11     1.096     0.767 -74.90   2
       304    615.0015    580.5308 307.6642496  +6.4439164     3183.569     4115.552     4064.325     78.00351     156.1944     313.0125      1.367     3.25      842.978     55.20099     506.0563        18     1.257     0.781  79.32   0
       305    932.1056    576.5735 307.5326742  +6.4560692     1233.632     1910.521     2358.341     78.62605     156.3816     313.0125      1.809     4.43     841.6971     55.20099      160.282        14     1.215     0.855  86.39   0
       306    191.3803    575.4760 307.8403584  +6.4318983     634.5314     950.9297     2209.557     78.12842     156.3192     313.1059      1.399     3.86     841.3395     55.20099      96.0835         6     0.882     0.485 -89.20   0
       307    373.4937    574.4233 307.7647585  +6.4384040     1162.502     1565.439     1238.784     78.50194     156.4439     313.0125      1.414     3.01     840.7648     55.20099     188.0482         9     0.983     0.601  86.56   0
       308    227.4753    574.4814 307.8254009  +6.4335130     1499.796     1844.517     2258.016     78.74997     156.8796     313.2305      1.349     3.49     841.0484     55.20099     205.9017        13     1.144     0.774  88.08   0
       309    867.1834    565.6653 307.5600016  +6.4584221     3080.394     4268.226      4251.86     78.00351     156.5062     313.0436      1.459     3.12      841.931     55.20099     443.0892        19     1.201     0.871  78.53   0
       310    825.9809    563.1198 307.5771996  +6.4581073     2862.404     3958.394     3840.894     78.12842     156.3192     313.1059      1.460     3.18     842.4952     55.20099     452.8286        19     1.217     0.849  77.04   0
       311    796.8424    559.0898 307.5894361  +6.4588050     2736.829     3901.271     4145.304     78.50194     156.6308     313.1993      1.523     3.41     842.8022     55.20099     390.5747        17     1.221     0.837  80.60   0
       312    739.2444    559.4470 307.6133476  +6.4567467     622.5648     936.7721     1598.702     78.50194     156.5685     313.1371      3.592     4.16     843.0519     55.20099     116.7603         6     0.901     0.607  65.28   0
       313    806.5082    554.2452 307.5855824  +6.4611257     176302.5     241142.3     250924.7     78.50194     156.5685     313.2927      1.464     3.19     842.5786     55.20099     24781.42       115     1.488     1.175  74.18   0
       314    188.0976    552.9022 307.8424762  +6.4411085     65638.16     90580.42     94075.05     78.50194      157.128     313.0125      1.462     3.15     840.7247     55.20099     9901.003        68     1.415     1.111  77.07   0
       315    162.2716    566.1471 307.8527595  +6.4347783     811.2393      999.067     1164.798     78.37763     156.5685     313.1371      1.363     4.86     841.3264     55.20099     115.6363        11     1.070     0.833  35.17   0
       316    253.8647    558.3004 307.8149814  +6.4410737     8758.392     11835.35     11535.89     78.50194     156.7552     313.1371      1.438     3.08     840.3674     55.20099     1394.875        28     1.278     0.947  84.15   0
       317    112.0344    549.0673 307.8741949  +6.4401526     6914.927     9631.798     10099.98     78.37763      156.693     313.2616      1.459     3.26     841.6745     55.20099     1036.132        26     1.253     0.969  74.06   0
       318    977.1520    546.1293 307.5149737  +6.4701304     1367.341     1968.243     1547.214     78.50194     156.5685     313.1993      1.513     4.24     839.9426     55.20099     186.6534        18     1.333     0.909  84.46   0
       319    998.6440    545.0015 307.5060841  +6.4713075     753.9873     1236.951     795.0615      77.8784     156.3192     312.7943      1.746     3.92     839.3301     55.20099     123.0645         7     0.990     0.650 -81.92   0
       320    226.6223    544.8826 307.8267441  +6.4457047     975.6143      1220.42     850.2295     78.25312     156.3192     313.0748      1.343     3.87     840.0271     55.20099     143.4352         7     0.849     0.589 -65.68   0
       321    843.0882    541.5824 307.5708093  +6.4675667     4789.976     6713.798      6899.46     78.25312     156.3816     313.0436      1.466     3.14      841.767     55.20099      733.715        24     1.328     0.924  78.17   0
       322    361.4635    539.9160 307.7709063  +6.4522501     19336.38     25931.59     26587.92     78.62605     156.7552     313.1371      1.405     3.02     839.8773     55.20099      2887.63        37     1.306     0.979  74.09   0
       323    451.8785    540.2192 307.7333434  +6.4551354     757.7552     894.5673     452.7787     78.00351     156.3192     313.1371      1.194     3.20     840.6719     55.20099     151.9057         6     1.033     0.472  72.32   0
       324    163.3171    538.9186 307.8532356  +6.4460547     2219.754     3053.782     3365.528     78.37763     156.8796     313.2616      1.435     3.28     840.6752     55.20099     317.7166        17     1.167     0.842 -87.44   0
       325    527.8262    534.7009 307.7019830  +6.4599404     7373.688     9973.025     10722.35     78.62605     156.3816     313.0748      1.450     3.15     840.7477     55.20099     1129.402        28     1.291     0.953  79.58   0
       326    238.6014    536.8369 307.8220376  +6.4494261     1029.694     1378.176     907.6263     77.62759     156.4439     312.9502      1.312     2.60     839.8363     55.20099     210.7424         8     0.863     0.606  77.59   0
       327    796.9966    534.8065 307.5901788  +6.4688360      6236.94     8725.587     8804.139      77.8784     156.3192     313.0436      1.452     3.20     842.1514     55.20099     1000.285        28     1.387     0.922  77.42   0
       328    100.6554    536.1201 307.8793539  +6.4451179     969.8145     1630.157     1875.186     78.62605     156.6308     313.1993      1.789     4.03      841.606     55.20099     162.5952        11     1.127     0.779 -86.01   0
       329    386.1159    531.6092 307.7609444  +6.4565008     1566.112     2069.646     1901.423     78.12842     156.3192     313.0125      1.361     2.85     839.8203     55.20099     244.1483        12     0.945     0.778  72.83   0
       330    174.8471    528.0379 307.8488106  +6.4509317     7576.759     10245.27     9987.852     78.37763     156.5685     313.0125      1.412     3.05      840.294     55.20099     1215.829        27     1.266     0.926  74.41   0
       331     46.4548    526.8443 307.9021748  +6.4471367     5652.799     7806.785     8326.513     78.50194     156.6308     313.1993      1.461     2.99     842.0797     55.20099     792.4129        27     1.275     0.985  85.72   0
       332    572.5377    527.7664 307.6836431  +6.4642900     2728.511     4011.842     3906.053     78.37763      156.693     313.1059      1.608     3.44      840.389     55.20099     409.7311        22     1.204     1.143 -25.26   0
       333    270.0567    524.4882 307.8093858  +6.4555733     100318.6     133966.8     138688.3     78.50194     156.5062     313.2927      1.451     3.03     839.3824     55.20099     14926.47        75     1.395     1.100  76.94   0
       334    855.8287    527.3930 307.5659885  +6.4738474     631.8194     884.0054     912.0519     78.00351     156.4439     312.9813      1.370     3.60     840.9337     55.20099     115.3724         6     0.920     0.584  65.78   0
       335    813.8605    527.0959 307.5834304  +6.4725787     1641.499     2182.558     2055.878     78.25312     156.6308     313.2616      1.406     3.13     841.6885     55.20099     241.0967        14     1.150     0.715  85.86   0
       336    559.6746    521.9058 307.6891809  +6.4662820       996.81     1391.068      1475.07     78.25312     156.8174     313.1682      1.459     3.31     840.0694     55.20099      176.171        10     1.058     0.653  77.67   0
       337    253.8532    519.3765 307.8162864  +6.4571434     1620.285     2242.533     2083.467     78.00351     156.6308     312.9813      1.441     3.51     839.3483     55.20099     257.7532        13     1.210     0.661  80.68   0
       338    793.2527    516.6445 307.5923373  +6.4762104     17554.97     23924.18      24250.9     78.50194     156.6308     313.1682      1.444     3.11     841.5544     55.20099     2475.843        39     1.351     0.997  75.05   0
       339    496.8335    515.1711 307.7155064  +6.4669727     45562.57     67278.77      70436.3     78.00351     156.3816     312.9502      1.584     3.36     839.7765     55.20099     6280.564        65     1.464     1.272  55.65   0
       340    647.3627    513.5532 307.6530372  +6.4726445     1024.343     1515.871     1634.915     78.25312     156.5685     313.0748      1.450     3.31     840.3581     55.20099     172.8998         8     0.999     0.608  81.56   0
       341    719.5403    509.5160 307.6231917  +6.4767079     1492.119     2898.132     3742.295     78.62605      156.693     313.2616      2.400     6.26     840.6188     55.20099     248.9764        25     2.016     1.164 -88.89   0
       342    209.2854    511.6595 307.8350548  +6.4588428     2223.056     3201.932     3192.985     78.50194      156.693     313.2616      1.548     3.49     839.5804     55.20099     320.6133        19     1.186     1.057  59.90   0
       343     44.7876    511.8891 307.9033679  +6.4532553     1492.247     1991.791     1955.296     78.25312     156.3816     313.0748      1.417     3.36     841.9326     55.20099     203.7604        13     1.099     0.741  68.46   0
       344    656.7693    510.0709 307.6492460  +6.4743947     3448.292     4468.042     4830.608     78.37762     156.6308     313.1371      1.344     3.03     840.3185     55.20099     528.5028        20     1.202     0.881  81.70   0
       345    969.6736    517.7274 307.5190218  +6.4816094     1617.063     2414.544     2081.503     78.74997     156.7552     313.2305      1.590     3.98     839.2568     55.20099     237.7056        17     1.271     0.870  86.88   0
       346     95.4843    511.7062 307.8823184  +6.4550245      717.771     878.4546     640.8926     78.37763     157.0039     313.2927      1.470     3.79     841.1658     55.20099      132.101         6     0.989     0.417  72.07   0
       347    666.9753    510.1317 307.6450048  +6.4747085     1581.317     2019.417     2563.945     78.12842     156.5062     313.1059      1.379     3.29     840.5036     55.20099     238.2059        14     1.177     0.718  81.55   0
       348     76.0020    507.8515 307.8905389  +6.4559652     738.0828     1180.166     1443.142      77.8784     156.2568     312.7632      1.649     4.54     841.3868     55.20099     125.9964         8     1.153     0.585  77.30   0
       349    394.5691    505.8770 307.7582918  +6.4674062     1923.571     2634.537     2299.548     78.37763      156.693     313.1682      1.404     3.10     839.0032     55.20099     322.0477        18     1.236     0.868  83.69   0
       350    325.8981    504.2342 307.7868689  +6.4657968     4587.005     6233.908     5998.553     78.50194     156.5062     313.2927      1.440     2.91     838.6552     55.20099     749.2701        24     1.238     0.928  71.32   0
       351    141.1253    502.9238 307.8636561  +6.4601746     29010.27     39765.89     40629.21     78.74997     156.8796     313.2305      1.440     3.12     840.2292     55.20099     4245.609        42     1.335     1.024  77.49   0
       352    506.0458    503.7271 307.7120614  +6.4720040     2346.298     3073.806     2778.371     78.37763      156.693     313.1682      1.376     3.11     839.2291     55.20099     399.2161        16     1.223     0.728 -86.96   0
       353    868.9990    502.3221 307.5613504  +6.4846351     1689.832     2319.558     2297.422      77.7531     156.0695     312.9813      1.423     4.25     839.6233     55.20099     248.3318        15     1.269     0.860  66.56   0
       354    411.2588    502.8165 307.7514618  +6.4692255     557.1766     775.5223       383.55     78.00351     156.5685      312.919      1.406     3.43     839.0043     55.20099      86.7149         5     0.969     0.351  44.24   0
       355    106.2198    501.2017 307.8782111  +6.4597200     3015.908      4211.28       4205.6     78.12841     156.1944     312.8878      1.481     3.22     840.7455     55.20099      432.016        21     1.236     0.923 -85.83   0
       356    966.8362    497.1568 307.5208827  +6.4900085     5251.625     7713.079     7897.753     78.25312     156.5685     313.0125      1.554     3.29     838.6582     55.20099     747.6417        31     1.439     1.014  74.98   0
       357    343.0516    499.2585 307.7799103  +6.4684226     1233.863     1560.605     1723.052     78.50194     156.6308     313.1682      1.354     4.66     838.4991     55.20099     196.1433        12     1.189     0.669  72.93   0
       358      5.3859    487.3170 307.9205551  +6.4620829     28103.43     38512.59     39688.07     78.12842     156.3816     290.7914      1.467     3.00      842.506     55.20099     3703.403        46     1.354     1.058  76.18  16
       359    540.0443    489.7240 307.6984064  +6.4789162     1677.003     1993.529     2125.912     78.37763      156.693     313.1993      1.269     2.86     838.3887     55.20099     304.3397        12     0.957     0.778  67.97   0
       360    438.1507    483.9075 307.7409227  +6.4779276     48241.62     65133.32      66889.3     78.37762     156.5062     313.3238      1.403     3.10     838.3797     55.20099     7270.007        51     1.339     1.015  77.55   0
       361    414.8743    486.6447 307.7504995  +6.4760226       592.81     841.1401     548.7755     78.37763      156.693     313.1993      1.449     3.64     838.4651     55.20099     101.7488         6     0.756     0.618 -58.52   0
       362    646.2007    483.4043 307.6545230  +6.4850535      13648.7     18115.79     18525.24      77.8784     156.1944      312.919      1.390     3.23     838.6007     55.20099     2071.757        32     1.302     0.933  77.07   0
       363    286.1458    484.1614 307.8040501  +6.4727590     1028.328     1502.705     1783.179     78.50194      156.693     313.1682      1.566     4.08     838.0603     55.20099     159.1843         8     1.146     0.528  69.00   0
       364    203.2767    481.6079 307.8385548  +6.4710494     21493.77     30791.87      31626.6     78.12842      156.132     312.9813      1.551     3.23     839.0468     55.20099     2865.067        41     1.414     1.048  65.24   0
       365    168.9784    482.6020 307.8527671  +6.4694943     1792.906     2396.436     2052.925     78.12841     156.3192      312.919      1.429     3.50     839.3927     55.20099     283.5526        14     1.159     0.776  77.75   0
       366    980.0643    481.5250 307.5159064  +6.4969004     1314.421     1726.888     1911.383     78.62605     156.6308     313.1371      1.486     3.71     838.0052     55.20099     199.2433        14     1.099     0.877  52.01   0
       367    908.9026    481.2310 307.5454754  +6.4946653     870.1583     1011.857     1581.377     78.62605     156.3816     313.2616      1.354     4.83     838.6745     55.20099     116.8642         9     0.928     0.712  69.10   0
       368    820.3970    481.4809 307.5822305  +6.4916287     1025.021     1290.171     1369.413      77.8784     156.1944     312.8878      1.309     4.76     840.0115     55.20099     156.9715         9     1.147     0.561  73.09   0
       369    568.0292    480.2714 307.6870973  +6.4837493     3116.832     4156.819     4034.696     78.37763     156.6308     313.1371      1.442     3.21     837.8337     55.20099     490.6027        18     1.253     0.785  76.97   0
       370    941.8599    477.1614 307.5319206  +6.4974371     4970.762     6967.939     7006.904     78.50194      156.693     313.1993      1.457     3.20     838.4138     55.20099     744.7684        25     1.305     0.911  86.08   0
       371    614.9274    475.8125 307.6677657  +6.4871489     7473.917     9895.261     10239.77     78.00351     156.2568     312.9813      1.401     3.10      837.728     55.20099     1208.533        26     1.253     0.897  74.09   0
       372    102.7152    476.7084 307.8804861  +6.4697151      1277.84     1860.741     1715.161     78.25312      157.066     313.2616      1.475     3.52     840.2837     55.20099     197.7767        11     1.086     0.665  85.55   0
       373    512.8242    475.9055 307.7101730  +6.4837161     523.3141     831.2984     1213.607     78.62605     156.3816     313.0436      1.533     3.58     837.7968     55.20099     92.03479         5     1.111     0.333 -79.98   0
       374    964.5213    469.6309 307.5227572  +6.5012967     3666.869     4884.673     4697.618     78.37763     156.6308     313.1371      1.475     3.33     838.0029     55.20099     473.2502        20     1.235     0.887  75.32   0
       375    527.2031    467.1272 307.7044930  +6.4878186      8308.22     11183.72     12043.97     78.00351     156.1944     313.0125      1.397     3.10      837.231     55.20099     1260.877        27     1.252     0.911  75.89   0
       376    402.8878    468.3094 307.7560898  +6.4831934     959.2901     1207.382     1693.936     78.25312      157.066     313.2927      1.400     4.16      837.451     55.20099     150.7619        10     1.107     0.785  88.01   0
       377    742.5952    467.0291 307.6150279  +6.4950147     636.8912     854.4052     1416.877     78.00351     156.4439     312.9813      1.660     3.67     838.4893     55.20099     125.8391         6     1.235     0.313  71.55   0
       378    373.2579    467.2852 307.7684310  +6.4826295     2955.284     3677.742     3738.383     78.50194     156.6308     313.2616      1.349     3.10     837.2806     55.20099     451.4376        17     1.074     0.882  75.19   0
       379    883.7112    462.6571 307.5565561  +6.5014993     3518.683     4840.942     5605.777     78.50194     156.5685     313.2927      1.450     3.54     838.2571     55.20099     496.2057        21     1.334     0.836  83.87   0
       380    536.3604    463.7946 307.7008003  +6.4894991     792.7362     988.0107      1554.09      77.7531     156.3192     312.8878      1.356     3.46     837.0281     55.20099     138.8809         8     0.988     0.618 -84.59   0
       381    231.2531    462.1807 307.8275841  +6.4800034     627.2629     848.5339     587.8657     78.00351     156.6308     312.9813      1.378     4.82     838.2379     55.20099      101.866         6     1.094     0.601  70.12   0
       382    891.1101    457.2072 307.5536636  +6.5039946     2458.651     3544.604     3940.474     78.12841     156.3192     312.9502      1.535     3.68     838.1179     55.20099     346.5084        18     1.280     0.867  74.17   0
       383    930.5822    456.5229 307.5372900  +6.5055847     1463.771      2029.97     2182.623     78.00351     156.3816     313.1371      1.543     4.02     838.0998     55.20099     197.7318        15     1.204     0.804  79.75   0
       384    110.0500    456.8436 307.8781042  +6.4781613      841.855     1249.815     1269.707     78.62605     156.5685     313.1993      1.620     4.11     839.8702     55.20099     119.5356        10     0.961     0.906  64.30   0
       385    741.5896    454.2097 307.6158718  +6.5002741     485.2549     808.3271     1506.521     78.12842     156.4439     313.1059      2.087     3.92     837.9216     55.20099     98.72473         5     1.127     0.407  74.78   0
       386    714.9836    453.1935 307.6269573  +6.4998106     3280.163     4443.899     4619.267     78.12842     156.3816     313.0125      1.425     3.19     837.5771     55.20099      548.223        18     1.235     0.801  66.20   0
       387     76.7039    452.4425 307.8921017  +6.4788644     2164.876     2957.497     2991.507     78.50194     156.5685     313.2927      1.504     3.44     840.5176     55.20099     304.1871        16     1.227     0.811  77.66   0
       388    426.2361    451.6739 307.7469466  +6.4908391      1257.67     1673.756     2319.146     78.37763      156.693     313.1682      1.435     3.58     836.5721     55.20099     204.3948        10     1.174     0.532  70.13   0
       389    385.8957    451.5001 307.7637085  +6.4895675     4305.229     5614.358     5941.494     78.50194      157.128     313.0125      1.411     2.99     836.5045     55.20099     693.0607        18     1.243     0.756  76.88   0
       390    747.8683    449.4232 307.6134229  +6.5024587     511.2851     831.5738     1801.348     78.12842     156.5685     313.1371      2.560     4.27     837.7979     55.20099     77.98303         6     1.067     0.486 -60.14   0
       391    613.6521    448.0434 307.6692198  +6.4985716     11506.09     15218.04     15711.88     78.50194     156.6308     313.1993      1.371     2.96       836.29     55.20099     1852.896        28     1.240     0.912  76.05   0
       392    776.3369    444.5082 307.6017608  +6.5054325     18419.19     24724.41     24968.53     78.50194     156.7552     313.2305      1.429     3.10     837.9857     55.20099     2527.896        39     1.353     0.963  78.24   2
       393    780.4947    439.6710 307.6001944  +6.5075675     1542.564     2042.432      1866.02     78.37763      156.693     313.1682      1.432     3.72     837.7603     55.20099      206.231        15     1.194     0.853  77.92   3
       394    296.1106    445.0823 307.8012162  +6.4892254     3020.903     3888.157     3907.923     78.25312     156.8174     313.2305      1.331     3.01     836.5674     55.20099     481.8351        19     1.178     0.859 -86.00   0
       395    419.7368    444.4409 307.7498874  +6.4936089     807.4546      814.706     529.8381     78.50194     156.5685     313.2616      1.211     3.51     836.1055     55.20099     146.0732         8     0.988     0.542  70.07   0
       396    906.1666    441.6774 307.5479247  +6.5109053     475.7494     582.4059     162.5518     78.37763     156.6308     313.1371      1.670     4.73       837.77     55.20099     71.68597         6     1.173     0.542  67.08   0
       397    805.3759    441.5252 307.5897974  +6.5076273     1436.051     2067.802     1452.869     78.12842     156.4439     313.1059      1.542     3.82     838.1003     55.20099     187.3304        11     1.055     0.693  74.56   0
       398    379.0433    441.5815 307.7668856  +6.4934343      1935.47     2380.802     2723.738     78.00351     156.5062     312.9502      1.374     3.32     835.9464     55.20099     286.6654        12     1.027     0.743  80.22   0
       399    961.6722    439.3036 307.5249467  +6.5137237     1926.094     2612.302     2770.575     78.25312     156.8174     313.1371      1.375     3.39     837.5157     55.20099     273.9933        14     1.207     0.749  68.31   0
       400    752.1089    435.7190 307.6121169  +6.5082574     2665.913     4000.837     4726.385     78.25312     156.8796     313.2305      1.674     3.34     837.2629     55.20099     425.1542        24     1.406     1.026  73.84   0
       401    709.6351    438.0982 307.6296809  +6.5058655     732.8384     1018.351     877.5753     78.50194     156.5062     313.3239      1.430     5.19     836.7752     55.20099     136.1256        10     1.280     0.687  40.50   0
       402    367.7550    437.9734 307.7716949  +6.4945479     820.4904      1093.16     1395.183     78.00351      156.693     313.0748      1.342     4.21     835.7217     55.20099     123.8305         7     0.741     0.682 -79.31   0
       403    113.6947    436.7157 307.8772638  +6.4865929     4973.938     6847.098     7647.522     78.37763     157.0039     313.2927      1.440     3.03     839.5212     55.20099     769.4083        25     1.266     0.935  62.03   0
       404   1015.5403    434.0747 307.5027434  +6.5176657     4065.721     6585.072     6326.086     78.74997     156.6308     313.1371      1.735     4.05     837.1812     55.20099     485.7731        31     1.502     1.121  47.17  16
       405    271.6263    433.8046 307.8117627  +6.4930652     1636.146     2155.515     2505.826     78.00351     156.4439     313.0125      1.287     2.96     836.6053     55.20099     312.9744        12     1.060     0.695 -80.66   0
       406    349.6827    431.4704 307.7794186  +6.4966307     3726.851     5068.302     5111.952     78.74997     156.8796     313.1993      1.477     2.98     835.3871     55.20099     571.1956        22     1.244     0.918  81.19   0
       407    705.6508    428.9763 307.6316394  +6.5094993     1802.574     2552.048     2494.949     78.12841     156.6308     313.0748      1.373     3.42     836.2491     55.20099     296.6185        16     1.276     0.762  76.54   0
       408    237.4743    427.3420 307.8261642  +6.4945943      877.489     1086.349     1113.585     78.50194     156.6308     313.1682      1.444     4.90     837.1844     55.20099     127.9605        10     1.092     0.694  75.20   0
       409    448.6690    422.8495 307.7385897  +6.5034864     622.9879     1060.331     1048.133     78.37763     156.5685     313.1682      1.614     3.72     834.8806     55.20099     105.5873         7     0.852     0.603 -52.95   0
       410    547.1797    421.6200 307.6977112  +6.5072713     1195.585     1695.434     2039.982     78.25312     156.5685     313.1059      1.604     4.01     834.7771     55.20099     179.5359         9     1.075     0.575  64.86   0
       411    469.2625    420.0810 307.7301279  +6.5053148      1563.03     2090.951     2304.456     78.62605      156.693     313.1371      1.510     3.20     834.7056     55.20099     217.6334        13     1.056     0.771  82.26   0
       412    831.9695    419.1102 307.5794952  +6.5177636     1652.221     2242.585     2701.767     78.62605     156.4439     313.1371      1.405     3.06     836.9472     55.20099     271.2062        12     1.063     0.692  82.18   0
       413    817.4639    418.0555 307.5855559  +6.5177181     2158.407     3136.417     3453.312     78.62605     156.5685     313.1682      1.576     3.41     836.7627     55.20099     313.3724        19     1.294     0.822  82.92   0
       414    695.8204    420.6296 307.6360005  +6.5126191     551.6688     778.6588     635.5583     78.00351     156.4439     313.0748      1.089     1.77     835.6195     55.20099     143.6357         5     0.684     0.431  24.28   0
       415    617.2336    418.2140 307.6687251  +6.5110062     799.9963     1160.097     1150.894     78.12842     156.3816     313.0748      1.595     4.17     834.7738     55.20099     132.1257         8     1.016     0.616  82.08   0
       416    714.8049    416.2344 307.6282606  +6.5150640     16822.94     22581.46     23305.89      77.7531     156.4439     312.9502      1.418     3.09     835.7944     55.20099     2717.267        35     1.310     0.950  78.94   0
       417    635.8516    412.1980 307.6611916  +6.5141086     2808.911     3804.354      4134.75      77.8784     156.2568     312.7632      1.398     3.13     834.5518     55.20099     476.5636        16     1.171     0.776  77.82   0
       418    630.5816    411.3794 307.6634079  +6.5142715     644.7593     974.0116     1511.074     78.25312     156.5685     313.0748      1.413     4.08      834.486     55.20099     97.07111         7     0.992     0.479  82.25   0
       419    708.8752    410.9978 307.6308979  +6.5170292     705.4912     1081.655     1515.851     78.00351      156.132     313.0436      1.532     2.71     835.4402     55.20099     125.2007         6     0.785     0.626  89.32   0
       420    611.0000    409.0860 307.6716183  +6.5145677      5865.94     8184.005     8483.665      77.7531      156.132     312.8255      1.425     3.39     834.2953     55.20099     994.0059        22     1.369     0.784  76.93   3
       421    607.1885    406.7491 307.6732794  +6.5154059     16464.42     22058.57     22553.64      77.8784     156.5062     312.8878      1.395     3.03     834.1757     55.20099     2461.566        37     1.425     0.981  70.44   3
       422    940.1105    406.0225 307.5350076  +6.5267507     4102.675     5701.047     5729.614     78.50194     156.4439     313.0436      1.483     3.39     836.5027     55.20099     606.8237        21     1.195     0.928  72.91   0
       423    379.1688    402.2707 307.7681452  +6.5096684     33141.07     44407.68     45692.68     78.37763     156.6308     313.1371      1.420     3.13     834.0694     55.20099     4910.029        42     1.307     0.984  77.95   0
       424    416.4308    403.3615 307.7526308  +6.5104590     658.3918     846.9057     960.3234     78.12842     156.3816     313.0125      1.401     4.10     834.0593     55.20099     115.2261         8     1.040     0.654  53.60   0
       425    895.7275    401.7971 307.5535849  +6.5270250     1668.364     2646.935     3741.558     78.00351     156.1944     313.0125      2.006     3.88     836.4518     55.20099     239.4716        15     1.232     0.812  76.20   2
       426    125.2022    401.9508 307.8736471  +6.5013301     2629.437     3663.131     3717.825      77.8784     156.2568     312.7632      1.448     3.10     838.8544     55.20099     397.0709        20     1.139     0.931  80.27   0
       427    590.8693    397.9103 307.6803526  +6.5185128     717.7023     918.0775      1001.12     78.62605     156.8174     313.1682      1.383     4.15     833.6682     55.20099     119.8276         8     1.148     0.552  88.61   0
       428     58.5686    397.4523 307.9014748  +6.5009613     1703.665      2591.63     2997.597     78.37763      156.693     313.1059      1.709     3.77     840.0583     55.20099     244.8438        15     1.264     0.778  75.97   0
       429    908.8872    396.3414 307.5482993  +6.5297135     5693.555      7888.54     4924.846     78.50194      156.693     313.2616      1.485     3.29     836.1106     55.20099     846.1712        25     1.345     0.881  80.22   0
       430    236.6736    392.9113 307.8276473  +6.5087826     15763.16     21166.59     21318.96     78.50194     156.8796     313.2305      1.407     2.99     836.3214     55.20099     2508.246        37     1.309     0.977  79.49   0
       431     72.0757    387.1140 307.8962105  +6.5056808     974.8123     1357.681     1927.431     78.62605     156.9418     313.2305      1.478     3.60      839.433     55.20099     144.6219        11     1.048     0.689  85.01   0
       432    731.5510    386.6595 307.6222878  +6.5278305     711.9821     835.1333     1607.091     78.50194     156.6308     313.2305      1.307     3.64      834.726     55.20099     126.7308         7     0.966     0.592  68.35   0
       433    960.2292    384.7972 307.5273543  +6.5361803     1068.074     1650.797     1461.169     78.00351     156.3816     312.9813      1.506     4.26     834.8208     55.20099     152.2216        13     1.343     0.694  81.63   0
       434    699.9781    385.6504 307.6354368  +6.5271990     925.8601     1231.985     1523.506     78.00351      156.693     313.0436      1.487     3.81     834.2313     55.20099     147.6962         8     0.961     0.656 -83.22   0
       435   1009.3168    385.0757 307.5069534  +6.5376903     652.9477     626.4003     306.3166     78.62605     156.9418     313.2616      1.237     3.76     833.8458     55.20099     112.8698         5     0.829     0.490  35.14   0
       436    182.6624    382.9551 307.8504151  +6.5110909     924.6842     1379.496     937.2124     78.50194     156.5685     313.2305      1.442     4.82     837.5451     55.20099     153.2112         9     1.131     0.605 -67.79   0
       437    136.8785    381.6430 307.8694764  +6.5101042     5513.717     7836.597     7932.802     78.37763     156.6308     313.1993      1.496     3.12     838.3727     55.20099     839.8423        31     1.319     1.078 -85.57   0
       438    377.1886    382.5256 307.7696267  +6.5177545     547.1644     748.6995     1071.413     78.00351     156.2568     313.0125      1.361     3.61      833.412     55.20099      97.8302         5     0.998     0.376 -83.30   0
       439    349.7911    382.5592 307.7810061  +6.5168278      1583.73     2093.054     2044.207      77.8784     156.4439     312.8878      1.399     2.99     833.4945     55.20099     255.9779        13     1.033     0.773  79.01   0
       440    434.4548    380.3221 307.7459123  +6.5205712     769.8215     982.7307     706.5439     78.62605     156.6308     313.1993      1.308     4.08     833.1171     55.20099     116.2741         7     1.011     0.471 -79.62   0
       441    241.8053    380.3191 307.8259365  +6.5141526     1557.059     2234.651     2546.459     78.12842     156.1944     312.9502      1.542     3.70     835.8802     55.20099     239.6906        15     1.242     0.756  77.24   0
       442    159.1687    377.2874 307.8603633  +6.5126466     2645.767     3910.129      4240.61     78.62605     156.4439     313.1059      1.651     4.15     838.0668     55.20099     369.2729        22     1.483     0.855  89.53   0
       443    823.2225    377.4922 307.5845113  +6.5346565     971.6938     1174.037     1050.943     78.50194     156.4439     313.0125      1.362     2.92     835.2717     55.20099     123.7232        10     0.902     0.728  86.93   0
       444    554.3846    376.1456 307.6962331  +6.5262858     1142.269      1563.42     1364.619      77.8784     156.6308     312.8878      1.393     3.58     832.4677     55.20099     193.3948        12     1.118     0.715  69.44   0
       445      1.3837    373.0299 307.9260452  +6.5091325     639.7908     883.8264     855.6171     68.55598     124.9836     236.4562      1.429     4.52     840.3604     55.20099     105.8877         8     1.201     0.484 -87.68  24
       446    382.4362    372.0589 307.7677961  +6.5222506     2553.285     3669.002     3481.568     78.50194     156.6308     313.1682      1.414     3.00     833.0278     55.20099     353.8687        17     1.120     0.907  74.25   0
       447    270.7517    372.6671 307.8141683  +6.5182772     907.7434     1246.598     1308.271     78.37763     156.5685     313.1993      1.493     3.14     835.0121     55.20099     190.5706         9     1.017     0.656  73.18   0
       448    971.0430    370.9472 307.5233216  +6.5422567     1018.704     1612.963     1845.614     78.50194     156.6308     313.1682      1.833     5.20     833.4945     55.20099     136.2669        11     1.128     0.678  85.36   0
       449    316.0020    369.6617 307.7954723  +6.5210266     625.0701     832.3001     754.6366      77.8784     156.4439     312.8878      1.667     5.08       833.86     55.20099     104.8486         8     1.273     0.572  45.66   0
       450    436.2930    365.6031 307.7456397  +6.5267094     8400.806     11284.73     11458.38     78.12842     156.3192     312.8878      1.405     3.15     832.5555     55.20099     1223.366        28     1.265     0.926  75.75   0
       451     32.6388    366.7428 307.9132734  +6.5127731     3667.916     5569.456     5827.217     78.50194      156.693     313.1682      1.609     3.42     839.5228     55.20099     518.6001        25     1.383     1.066 -50.08   0
       452    768.9089    364.3226 307.6075115  +6.5382924     2214.365     3122.723     3458.029     78.25312     156.8796     313.1993      1.538     3.39     834.1768     55.20099     333.7504        18     1.250     0.826  73.09   0
       453    776.9421    362.7688 307.6042261  +6.5392004     14374.07     19474.78     20346.56     78.37762     156.6308     313.1059      1.420     3.18     834.2786     55.20099     2278.654        33     1.311     0.951  80.43   0
       454    535.6191    364.3397 307.7044217  +6.5305360     576.8107     900.1546     697.1702     78.12842     156.5685     312.9813      1.400     3.45     831.8502     55.20099     89.81702         5     1.075     0.319  69.14   0
       455    340.2492    361.5032 307.7856727  +6.5252031     1187.364     1586.393      1807.68     78.37763     156.5685     313.3239      1.377     3.20     833.0197     55.20099     199.1578        10     1.065     0.675  87.73   0
       456   1020.9112    357.7874 307.5030416  +6.5493407      3723.34     5605.453     5723.214     78.25312     154.8779     275.6072      1.590     3.47     830.6893     55.20099     506.7869        26     1.325     1.048  74.50  24
       457    952.2264    354.5074 307.5316838  +6.5484212     654.4961     814.8859     1085.012     78.62605     156.3816     313.0125      1.456     4.59     832.9371     55.20099     92.77734         7     0.935     0.641 -75.64   0
       458    185.3045    353.9823 307.8502863  +6.5231407     976.8007     1154.761     1279.855     78.37762     156.4439     313.0125      1.360     4.36     836.8691     55.20099     162.0864         9     1.021     0.778 -65.42   0
       459    524.4238    350.7011 307.7095267  +6.5357945     578.5394     695.3334     924.8682     78.62605     156.3816     312.9813      1.218     4.05     831.2078     55.20099     88.57654         7     1.008     0.466  79.35   0
       460    484.4403    349.1911 307.7261864  +6.5350878     3619.644     4663.768     4728.173      77.8784     156.4439     312.8878      1.343     3.14     831.1174     55.20099     539.4081        20     1.197     0.817  76.70   0
       461    456.6292    349.8332 307.7377179  +6.5338971     2653.166     3474.419     2980.278     78.00351     156.3816      312.919      1.375     2.92     831.5681     55.20099     397.1703        16     1.120     0.786  78.64   0
       462    913.3091    349.0163 307.5480333  +6.5493993     886.0504     1112.268      1357.36     78.25312     156.4439     313.0748      1.393     4.57     833.6783     55.20099        106.8        10     0.968     0.823 -71.78   0
       463    842.2930    345.6673 307.5776463  +6.5484285     35966.76     51439.23      53207.9     78.37763     156.8174     313.1993      1.522     3.37     834.1202     55.20099     4949.706        61     1.504     1.106  82.20   0
       464    987.9194    345.7944 307.5171450  +6.5532003     609.6971     956.8619     664.3295     78.12841     156.1944     312.9502      1.432     5.14     831.3304     55.20099     97.57788         6     1.076     0.694  25.12   0
       465    334.6450    341.7979 307.7886585  +6.5331518     1118.046     1462.999     1592.549      77.8784     156.2568     312.7943      1.287     4.46     832.6602     55.20099     170.1257        10     1.067     0.688  89.25   0
       466     60.0303    342.2742 307.9027149  +6.5237904     707.8123     796.9779     1040.851     78.37763     156.6308     313.1682      1.278     5.26      838.626     55.20099     93.38629         9     1.184     0.660  42.55   0
       467    614.0723    338.0624 307.6727067  +6.5439931     3043.607     3992.733     4351.345     78.62605     156.6308     313.2305      1.407     3.33     830.8214     55.20099     470.5796        18     1.349     0.778  61.63   0
       468     22.2679    338.7290 307.9185193  +6.5239918     1290.588     1973.742       2401.9     78.50194     156.7552     313.1371      1.675     4.09     839.0718     55.20099     195.1766        13     1.152     0.777  86.76   0
       469    698.7394    331.7280 307.6377451  +6.5494208     90952.48     121254.9     125340.2     78.62605     156.6308     313.2305      1.412     3.08      832.145     55.20099     14496.56        74     1.398     1.046  78.00   0
       470    856.8233    333.0966 307.5720276  +6.5541003     1232.888     1605.162     1782.019     78.62605     156.3816     313.0125      1.431     3.03     833.6512     55.20099     256.3629        12     1.141     0.672  84.85   0
       471    801.8067    332.9848 307.5948867  +6.5523222     359.7925     795.1046      1697.45     78.12842     156.3816     313.0125      4.299     3.45     833.6512     55.20099      85.8728         5     1.588     0.216 -62.13   0
       472     78.0080    331.7791 307.8955986  +6.5287241      1534.31     2016.332     2199.567     78.00351     156.4439     312.9502      1.405     3.27      838.385     55.20099     267.0739        12     1.102     0.692  80.26   0
       473     64.8223    330.6849 307.9011124  +6.5287352     432.1697     330.0398     229.2532     78.37763     156.3192     313.1059      1.088     3.76     838.5435     55.20099     107.3436         5     0.872     0.465  48.68   0
       474    561.1476    328.5065 307.6950107  +6.5461792     3180.227     4060.829     4379.678     78.37763     156.5685     313.3861      1.350     3.12     830.2371     55.20099      501.378        19     1.122     0.869  74.52   0
       475    940.1259    328.4741 307.5375746  +6.5587689     923.0026     1302.247     1227.978     78.74997     156.8796     313.2616      1.517     4.36     832.2383     55.20099     134.2091         7     0.961     0.564 -85.75   0
       476     98.4102    327.5575 307.8872651  +6.5311487     7004.134     9786.214     10474.36      77.8784     156.4439      312.919      1.489     3.06      838.124     55.20099     952.3754        27     1.306     0.960  78.64   0
       477    759.3205    326.9700 307.6127365  +6.5533960     576.8845     638.8851     1061.723     78.37762     156.6308     313.1371      1.382     4.44      832.655     55.20099     97.18359         6     0.851     0.658  54.28   0
       478    544.4376    324.7008 307.7020791  +6.5471948     8373.319     10971.44     11370.12     78.50194     156.5062     313.3861      1.359     3.01     830.0338     55.20099     1245.193        26     1.228     0.902  79.00   0
       479    273.3579    322.5147 307.8147612  +6.5390699     3027.653     3891.128     3567.551     78.50194     156.5062     313.1682      1.374     3.17     833.9518     55.20099      427.318        17     1.149     0.819  79.56   0
       480    407.3321    319.9431 307.7591933  +6.5445964     29899.85     40541.33     41562.01     78.62605     156.5685     313.1371      1.399     3.11     831.1094     55.20099     4274.104        42     1.333     0.997  75.86   0
       481    807.8575    321.1558 307.5927661  +6.5574067     366.5076     632.7599     1222.317     78.37762     156.6308     313.2305      2.578     3.70     833.2183     55.20099     108.5737         5     1.041     0.379 -55.93   0
       482    586.1864    319.2911 307.6849160  +6.5508164     850.5696       1180.6     1234.093     78.25312     156.3816     312.9502      1.378     4.04     829.8263     55.20099     120.8895         7     0.865     0.596  79.65   0
       483    514.9547    318.6227 307.7145294  +6.5487236     1523.066     1954.822     1783.686     78.12841     156.6308     313.0125      1.389     3.48     829.7629     55.20099      222.462        14     1.185     0.727  75.08   0
       484    387.1306    318.0190 307.7676494  +6.5447179     1329.096      1885.07     2580.246     78.12842     156.5062     313.1059      1.500     3.31     831.3125     55.20099     213.6406        13     1.204     0.692  79.15   0
       485    486.7043    315.1745 307.7263800  +6.5492074     1411.031     1882.726     2063.347     78.62605     156.3816     313.0436      1.480     3.31     829.5823     55.20099     235.5764        13     1.107     0.761  79.59   0
       486    638.3472    312.8743 307.6634609  +6.5551991     651.1087     886.0266     619.7535     78.50194      156.693     313.1682      1.241     3.99     830.3402     55.20099     130.0649         8     1.112     0.476 -89.82   0
       487    801.9570    311.9308 307.5955239  +6.5610198     1016.582      1413.62      1548.78     78.37763     156.5685     313.2305      1.472     3.60     832.8936     55.20099     195.6138        10     1.110     0.826  50.10   0
       488    496.5002    310.2747 307.7224739  +6.5515562      9880.26     13191.02     13273.88     78.00351     156.7552     313.0748      1.427     3.28     829.3566     55.20099     1364.148        31     1.310     0.954  77.17   0
       489    384.1532    312.6348 307.7690659  +6.5468417     833.4196     1113.063     1199.587     78.12842     156.5685     313.1059      1.388     4.53     831.2093     55.20099     127.7007         9     0.960     0.633  80.84   0
       490    920.7914    308.7467 307.5462615  +6.5662734     936.0045     1370.728     1290.395     78.00351     156.5062     312.8878      1.521     3.67      831.744     55.20099     162.8292         9     1.216     0.571  87.48   0
       491    765.5095    308.7724 307.6107704  +6.5611146      3322.05      4610.98     5489.082     78.62605     156.3816     313.0436      1.505     3.23     832.1913     55.20099     503.9899        19     1.285     0.756  70.83   0
       492    713.3723    308.7097 307.6324319  +6.5594102     850.2561     1206.007     1192.251     78.62605     156.3816     313.0436      1.282     4.37     831.4684     55.20099     131.0137         9     1.222     0.516  72.54   0
       493    322.9325    307.1440 307.7946810  +6.5470687     1095.097     1541.931      843.479     78.62605     156.5062     313.1371      1.404     4.70     832.3094     55.20099     164.0966        10     1.181     0.653  82.62   0
       494    111.5527    308.3122 307.8824498  +6.5395332     622.1938     805.3254     858.4554     78.50194     156.5062     313.1993      1.303     3.44     837.9368     55.20099     97.91772         5     0.750     0.456 -70.51   0
       495    814.3731    306.4373 307.5905484  +6.5636996     423.3841     710.2308     1373.845     78.12842     156.4439     312.9813      2.628     3.34     832.6772     55.20099     102.4338         5     1.031     0.314 -68.00   0
       496    158.3223    300.9276 307.8632688  +6.5441438     1353.217      1741.42     1679.844     78.74997     156.8796     313.1682      1.436     3.51     837.6052     55.20099     206.2568        13     1.059     0.826 -87.25   0
       497    258.0962    300.1732 307.8218475  +6.5477848     687.3391     1022.649     818.4021     78.62605     156.3816     313.1059      1.538     4.36     834.0927     55.20099     128.5456         8     1.097     0.592  67.52   0
       498    435.5692    300.2878 307.7481189  +6.5536515     537.7577      958.808     897.5629     78.62605     156.4439     313.1059      1.807     3.50     829.7688     55.20099     87.87256         5     0.772     0.457 -72.20   0
       499    386.2842    294.5099 307.7687855  +6.5543957     8704.836     11518.14     11882.06     78.25312     156.8796     313.2927      1.431     3.10     830.6404     55.20099     1196.462        25     1.238     0.896  78.46   0
       500    242.1534    295.2010 307.8286364  +6.5493058     2436.217      3333.75     3895.962      77.8784     156.3192      312.732      1.482     3.04     834.6284     55.20099     358.7537        16     1.071     0.855  77.22   0
       501    739.8293    294.2145 307.6219229  +6.5662730     964.6056     1397.568     1414.969     78.12841     156.3816     313.1059      1.294     2.75     831.2897     55.20099     200.9938         9     0.924     0.604  72.41   0
       502    754.1984    290.2435 307.6160855  +6.5683893     60602.32     81116.73      83134.8      77.8784     156.3192     312.8567      1.412     3.23      831.381     55.20099     9323.408        60     1.388     1.003  79.24   0
       503    425.7628    289.8847 307.7525397  +6.5576201      2678.65       3586.3     3925.932     78.50194     156.6308     313.1371      1.439     3.29     829.5345     55.20099     445.7631        15     1.181     0.760  79.25   0
       504    989.1179    287.2522 307.5185890  +6.5774105     1665.561      2365.75     1981.488     78.50194     156.6308     313.1993      1.427     3.94     830.5557     55.20099     250.0886        16     1.209     0.990  63.69   0
       505    572.1469    287.5576 307.6918054  +6.5634513     1464.826     1966.545     2141.317     78.50194     156.6308     313.1993      1.421     3.25     828.4403     55.20099     271.3745        13     1.147     0.743  89.43   0
       506    930.0197    286.3783 307.5431702  +6.5758144     2476.379     3370.725     3357.807     78.25312     156.5685     313.1059      1.444     3.22     830.5334     55.20099     395.7645        17     1.258     0.780  74.88   0
       507    462.8595    286.2625 307.7372496  +6.5603505     1302.188     1677.499     1919.671     78.50194     156.5685     313.1993      1.321     3.49     828.6978     55.20099     203.7513        11     1.101     0.658  57.28   0
       508    412.4178    285.3989 307.7582331  +6.5590277     2302.021     3188.781     3519.159     78.12842     156.1944     312.8878      1.523     2.90     829.6688     55.20099     334.7032        17     1.178     0.799  64.90   0
       509    292.3557    285.2724 307.8081135  +6.5550792     768.9547     1023.141     962.3409     78.37763      156.693     313.1993      1.350     4.20     832.7289     55.20099     122.9696         7     1.104     0.456 -81.61   0
       510    833.4882    279.5630 307.5835001  +6.5754291     1488.677     2181.645     2897.796     78.50194     156.5062     313.1682      1.591     4.08     831.5342     55.20099     213.1849        15     1.325     0.837  69.35   0
       511    462.7064    280.3769 307.7375095  +6.5627753     866.6216     1046.553      1238.23     78.50194     156.4439     313.0125      1.370     4.79     828.5672     55.20099      141.786         9     1.082     0.601 -89.19   0
       512    443.0052    276.9087 307.7458096  +6.5635514     1271.326     1733.545     1803.547     78.12842     156.3192      312.919      1.389     3.11     828.8365     55.20099     218.1083        14     1.171     0.713 -87.93   0
       513    188.8318    276.9276 307.8513976  +6.5550708     2611.972     3598.931     3443.334     78.37762     156.6308     313.1682      1.433     3.21     836.5876     55.20099     409.4208        16     1.222     0.781  80.33   0
       514    752.6434    274.8171 307.6172444  +6.5747068     6889.334     9430.958     9950.659     78.00351     156.5062     312.9502      1.424     3.13     830.6776     55.20099      1057.61        26     1.323     0.871  79.08   0
       515    224.4199    275.0778 307.8366757  +6.5570222     809.2822     1116.669     1281.145     78.12841     156.3816     313.1371      1.232     3.55     835.4504     55.20099     132.0961         8     1.065     0.492  87.49   0
       516    343.0511    274.5844 307.7874106  +6.5611817     825.8146     1149.076     1166.155      77.8784      156.693     312.8878      1.589     5.49     831.3463     55.20099     106.1346         9     1.205     0.706  53.75   0
       517     85.0934    274.2742 307.8945802  +6.5527018      1317.19     1768.916     1702.231     78.37763     156.7552     313.1371      1.436     3.37     838.1497     55.20099     210.1882        11     1.033     0.680  71.90   0
       518    769.0844    272.8026 307.6104811  +6.5760841     2890.287     3837.544     4122.158      77.8784     156.2568     312.8878      1.418     3.22     830.7662     55.20099     478.5615        15     1.147     0.725  80.19   0
       519    471.6405    272.2966 307.7340675  +6.5664088     621.2643     751.6042       736.29     78.50194     156.5062     313.3239      1.198     4.96     828.2537     55.20099     104.8345         7     1.143     0.609  74.30   0
       520    311.5015    269.4414 307.8006887  +6.5622535      516.037     416.5556     82.47546     78.50194     156.5062     313.3861      1.234     3.77     832.3456     55.20099     91.59558         6     1.047     0.391  71.25   0
       521    358.4261    267.7835 307.7812505  +6.5645019     1906.436     3341.813     3519.823     78.12842     156.4439     313.1059      1.863     5.20     830.7523     55.20099     258.2341        22     1.528     1.024   7.68   0
       522     72.2570    268.3080 307.9001123  +6.5547360     1558.203     2061.664      1870.27     78.37763     156.5685     313.2616      1.449     3.23     838.4333     55.20099     227.4226        13     0.975     0.838  61.73   0
       523   1007.2712    263.5119 307.5118346  +6.5878132     6090.616     8803.243     8877.261     78.62605     156.8796     313.1682      1.538     3.50     829.8195     55.20099      815.734        29     1.389     0.977  79.26   0
       524    834.1633    263.9646 307.5837379  +6.5818916     565.0638     993.7594      2074.64     78.25312     156.4439     312.9502      2.837     4.49     830.5921     55.20099      97.7334         6     1.598     0.359 -57.91   0
       525    485.1757    263.7137 307.7287307  +6.5704027     2338.095     3091.934     3059.843     78.50194     156.4439     313.0125      1.346     3.38     827.9759     55.20099     337.1421        14     1.157     0.686  80.23   0
       526    247.8035    259.4202 307.8274851  +6.5642666     6820.946     9089.497     9586.932     78.12842     156.2568     312.9502      1.432     3.07     834.8101     55.20099     1051.292        27     1.280     0.925  79.69   0
       527    915.5748    257.9933 307.5501136  +6.5870553     509.6315     456.1916     728.7185     78.00351     156.5062     312.9813      1.233     3.89     829.6392     55.20099     93.99091         5     0.876     0.494 -88.43   0
       528    938.5761    253.9682 307.5406911  +6.5894790     568.7027     787.3836     293.0402      77.8784     156.4439     312.9502      1.356     3.88     829.3622     55.20099     95.70679         5     0.877     0.492  86.32   0
       529    224.6410    252.9501 307.8373235  +6.5661651     809.4068     984.6143     565.1373     78.62605     156.6308     313.1059      1.369     4.02     835.7025     55.20099     130.1454         9     1.093     0.634 -79.08   0
       530    767.2579    252.4840 307.6119154  +6.5844124     961.2186     1159.385     1099.019     78.50194     156.6308     313.2305      1.350     4.57      829.689     55.20099     130.5903         8     1.114     0.533  68.38   0
       531    382.0976    250.3365 307.7719991  +6.5724937     1958.226     2774.566     2858.848     78.37763     156.7552     313.1993      1.599     3.68       829.57     55.20099     267.4396        14     1.205     0.719  82.00   0
       532    787.2858    250.2233 307.6036699  +6.5860103     526.6824     681.1689      210.344     78.50194     156.4439     313.0436      1.371     5.24     829.7073     55.20099     89.25061         6     1.220     0.635  63.89   0
       533    968.9005    248.7949 307.5282642  +6.5926192       1228.7     1635.428     1765.476     78.25312     156.2568     312.8255      1.351     4.01     829.2513     55.20099      189.605        12     1.130     0.753  74.16   0
       534    188.6844    247.4893 307.8524433  +6.5672196      605.669     641.6596     476.0359     78.25312     156.8796     313.2616      1.453     4.21     836.6625     55.20099     96.64252         6     0.930     0.675 -74.60   0
       535    304.2842    246.0563 307.8044681  +6.5716675     1420.329     2057.918     1754.116     78.50194     156.6308     313.2616      1.480     3.37     832.8961     55.20099      206.697        13     1.153     0.790  85.65   0
       536    151.6618    246.0084 307.8678728  +6.5665950     1984.079     2757.958     2653.466      77.8784     156.4439     312.9813      1.480     3.21     837.4101     55.20099     332.1375        15     1.127     0.798  82.13   0
       537    561.3708    241.5519 307.6978148  +6.5820871     2601.299     3516.638     3422.997     78.12842      156.693     313.0748      1.397     3.19      827.548     55.20099     376.8619        16     1.075     0.796 -88.52   0
       538    905.3724    240.6529 307.5549279  +6.5938766     1820.906      2712.93     3063.608     78.25312     156.7552     313.0748      1.684     3.86     828.9905     55.20099      251.922        16     1.265     0.810  66.89   2
       539    843.9924    240.7070 307.5804270  +6.5918199     723.8825     1281.429     1580.861     78.12841     156.3192     312.9813      3.037     6.15     829.2297     55.20099      111.528         9     1.579     0.674 -59.62   0
       540    725.0230    238.9829 307.6299110  +6.5885849     5722.526     7761.992     7635.888     78.12842     156.5062     313.1059      1.416     3.15     828.7682     55.20099     880.1335        24     1.247     0.877  76.47   0
       541    665.9362    238.9482 307.6544600  +6.5866372     2660.368     3484.016     3447.355     78.50194     156.5685     313.1371      1.361     3.05     827.9626     55.20099     430.6505        17     1.146     0.814  85.51   0
       542    963.1967    238.5410 307.5309742  +6.5966639     668.1443     962.6245     860.1036      77.8784     156.4439      312.919      1.540     5.31     828.8882     55.20099      109.683         8     1.282     0.620  78.91   0
       543    380.7905    233.4465 307.7731058  +6.5794233     887.2994     1084.255      1560.35     78.00351     156.5062     312.8255      1.303     3.58     829.1747     55.20099     163.1633         8     1.009     0.522  72.46   0
       544    921.0850    231.1593 307.5487151  +6.5983168      1231.13     1456.065     1627.058     78.50194     156.5685     313.1371      1.319     3.75     828.5016     55.20099     194.6067        12     1.178     0.674  74.59   0
       545    224.4214    224.6255 307.8383617  +6.5778516     2714.719     3711.438     3694.834     78.12842     156.4439     313.1059      1.438     3.37     836.0829     55.20099      452.767        18     1.221     0.801  77.33   0
       546    867.1116    223.0886 307.5714071  +6.5998604     1965.982     2668.442     2475.409     78.25312      157.128     313.2616      1.396     3.39     828.2123     55.20099     267.8036        15     1.159     0.783  66.44   0
       547    757.6697    222.5105 307.6168955  +6.5964694     1741.673      2271.98         2592     78.50194     156.8796     313.1682      1.331     3.27     828.2724     55.20099     270.4295        11     1.018     0.711  68.02   0
       548    578.1193    218.7478 307.6916164  +6.5920590     647.2112     781.0533     726.6378     78.50194     156.6308     313.1682      1.361     4.12     826.9342     55.20099      120.405         7     0.974     0.602  76.46   0
       549    245.6930    217.8626 307.8297508  +6.5813535      706.985     1035.728     901.5218     78.50194     156.6308     313.2305      1.256     3.90      835.422     55.20099     107.3414         6     1.300     0.335  75.37   0
       550    458.4124    214.2723 307.7414980  +6.5899244     26157.59     35109.11      35662.2     78.00351     156.2568     312.9813      1.427     3.30     827.1609     55.20099     3689.434        40     1.341     0.955  78.60   0
       551    319.7704    215.8523 307.7990434  +6.5846537     702.0571     991.0222     290.3743     78.25312     156.7552     313.1059      1.366     4.80     832.1592     55.20099      100.037         8     1.134     0.576  70.85   0
       552    784.5254    213.2486 307.6060459  +6.6011844     14853.34     20580.59     22034.71     78.37763      156.693     313.1993      1.502     3.36       827.97     55.20099     2092.907        47     1.356     1.311  86.03   0
       553    464.1858    208.7873 307.7392824  +6.5923812      1688.14     2422.744     2348.441     78.37762     156.3192     313.1059      1.375     3.09     826.9858     55.20099     271.2622        14     1.122     0.733  79.58   0
       554    146.5761    207.8212 307.8712631  +6.5821908     2693.931     3655.946     3784.605     78.12842     156.4439     313.1371      1.418     3.21     837.1757     55.20099     375.7772        16     1.151     0.794  78.15   0
       555    121.1149    206.5995 307.8818813  +6.5818448     1375.982     1908.494     1938.238      77.7531      156.132     312.8567      1.427     3.37     837.5529     55.20099     218.6939        10     1.012     0.633  66.24   0
       556    173.4340    205.7720 307.8601740  +6.5839336     676.8289     1076.939     966.7889     78.00351     156.3816     312.9502      1.540     3.47     836.7783     55.20099     111.8609         5     0.752     0.462 -72.36   0
       557    920.9236    203.4682 307.5497014  +6.6097443      1583.57     2053.883     2155.905     78.62605     156.7552     313.1371      1.400     4.10     827.7198     55.20099     252.6315        14     1.313     0.737 -86.02   0
       558    723.2949    209.3561 307.6316144  +6.6007595     843.6933     1309.347     1339.925     78.50194     156.5685     313.2927      1.588     4.66     827.6932     55.20099     143.1337         9     1.067     0.579  83.52   0
       559    582.5396    199.9959 307.6904046  +6.5999479     5228.158     7325.746     7203.305      77.8784     156.5062      312.919      1.422     3.24     826.2664     55.20099      747.438        23     1.215     0.932  70.45   0
       560    302.8907    201.0901 307.8065490  +6.5901857      1136.03     1514.689     1163.784     78.50194      157.128     313.2616      1.444     2.96     833.2678     55.20099     228.3156        11     1.124     0.684  89.84   0
       561    863.9958    200.3389 307.5734573  +6.6091498     301.1773     493.3373     960.8123      77.8784     156.4439     312.8878      3.639     4.63     827.6449     55.20099      75.5791         5     1.064     0.572 -76.07   0
       562    545.0614    200.0112 307.7059748  +6.5986954     2421.661     3349.424     3102.338      77.8784     156.4439      312.919      1.422     3.29     826.2567     55.20099      402.999        16     1.189     0.776  76.23   0
       563    386.7894    198.9190 307.7717660  +6.5938782     1590.759     2429.555     2409.949     78.12841     156.3192     313.0125      1.590     4.17     828.7296     55.20099     275.0883        13     1.245     0.704  66.25   0
       564    943.4479    196.8921 307.5405614  +6.6132055     2732.102     3649.906     3651.327     78.50194     156.5685     313.2927      1.390     3.36     827.5962     55.20099     388.8304        18     1.226     0.811  80.95   0
       565    889.5209    196.3484 307.5629849  +6.6116434     12515.51     17031.28      17758.8     78.50194      156.693     313.1682      1.481     3.24     827.5474     55.20099     1738.104        35     1.321     1.001  77.94   0
       566    317.0569    196.9985 307.8008004  +6.5923472     1025.935     1487.455       1759.7      77.8784     156.3192      312.919      1.759     3.94     832.3825     55.20099     151.3467        13     1.223     0.678  75.94   0
       567    208.6581    197.1813 307.8458279  +6.5886561     719.1891     1008.703     788.2359     78.12842     156.5062     312.9502      1.643     5.16     836.2509     55.20099     112.9563         8     1.045     0.721 -50.56   0
       568    564.5444    196.2460 307.6980058  +6.6008978     938.1737     1314.128     1976.835     78.50194     156.6308     313.1993      1.682     5.73     826.1106     55.20099      160.882        12     1.363     0.838  45.68   0
       569     15.6174    193.4346 307.9261488  +6.5837540     29118.27     39904.41     41730.73     78.12842     156.4439     312.9813      1.506     3.14     840.4811     55.20099     4088.546        46     1.367     1.078  74.54   0
       570    976.2255    194.1303 307.5270347  +6.6154312      10251.9     14457.19      14488.6     78.12841     156.5062     313.1059      1.489     3.34     827.5673     55.20099     1407.299        31     1.370     0.971  79.40   0
       571    687.5128    194.1977 307.6469850  +6.6058298     3298.761     4551.753     4598.669      77.8784     156.2568     312.8878      1.468     3.49     827.0256     55.20099      490.072        16     1.272     0.748  72.54   0
       572    262.0465    194.2566 307.8237458  +6.5916448     1558.529     2142.764     2316.785     78.50194     156.6308     313.2616      1.500     3.30     834.9767     55.20099     233.5643        16     1.119     0.918  62.85   0
       573    496.1303    189.3806 307.7266580  +6.6014566     2473.015     3202.696     2642.259     78.12842     156.5062     313.1059      1.398     3.50     826.0588     55.20099     363.8495        16     1.220     0.741 -89.27   0
       574    827.9806    185.8513 307.5889021  +6.6139372     2164.306     3020.942     3095.017     78.00351      156.693     312.9813      1.438     3.23     827.2173     55.20099     342.4869        13     1.139     0.715  87.09   0
       575    880.4651    184.8699 307.5671285  +6.6160824     2230.047     3083.474     3358.887     78.50194      156.693     313.1682      1.421     2.99     827.2766     55.20099     378.1802        17     1.200     0.778  69.25   0
       576    508.1127    185.1641 307.7218204  +6.6035961     2932.128     3812.455     3947.609     78.50194     156.5062     313.1682      1.361     3.40     825.8495     55.20099      459.408        15     1.162     0.732  77.89   0
       577    739.6821    182.4093 307.6257024  +6.6124289     45875.03     60442.24     61963.44     78.12842     156.2568     313.0125      1.424     3.19     827.0215     55.20099      7110.41        52     1.346     1.015  77.91   0
       578    342.7518    181.9897 307.7906267  +6.5994002     6590.425     12239.57     12856.44     78.00351     156.5062     312.8567      1.957     6.04     830.7274     55.20099     864.3314        36     1.944     0.925 -83.32   0
       579    973.4942    181.0720 307.5286028  +6.6207322     2814.073     4082.861     3975.819     78.37762      156.693     313.1993      1.499     3.23     827.1949     55.20099     361.3351        19     1.278     0.861  67.16   0
       580    907.6111    179.4202 307.5560309  +6.6192320     8298.321     11687.05      12126.7     78.12842     156.3192     313.0748      1.520     3.15     827.1288     55.20099     1191.822        28     1.352     0.939  80.88   0
       581   1011.6584    179.6737 307.5127926  +6.6225729     1821.449     2497.988     2412.762     78.62605     156.6308     313.1682      1.506     3.28     827.1782     55.20099     276.4688        16     1.073     0.987  69.82   0
       582    451.0970    178.7104 307.7457234  +6.6043630     5734.513     7872.787     8450.308     78.50194      157.066     313.1682      1.449     3.15     826.6193     55.20099     883.3815        24     1.264     0.891  74.05   0
       583    317.4231    178.4726 307.8012671  +6.6000080     627.2839      896.609     941.6107     78.12842     156.4439     313.1371      1.741     4.19     832.4168     55.20099     83.72638         5     1.013     0.494  89.64   0
       584    225.5983    175.7032 307.8395082  +6.5980887     819.9551     1045.366     1113.644     78.00351     156.3816     312.8255      1.296     2.63     836.0363     55.20099     170.7559         7     0.903     0.479 -82.19   0
       585    108.4107    170.2755 307.8883748  +6.5964167     5628.798     7464.136     7696.533     78.12842     156.2568     312.9813      1.400     3.13     837.9232     55.20099     772.6336        21     1.242     0.851  83.51   0
       586    278.7585    166.8447 307.8177189  +6.6035194     38945.54     53399.57     55193.75     78.37763     156.6308     313.0125      1.441     3.10     834.5499     55.20099     6103.307        51     1.397     1.035  75.51   0
       587    927.9262    168.8131 307.5479425  +6.6242843     1035.942     1242.386     1418.756     78.00351     156.3192     312.9813      1.384     5.00     826.8826     55.20099     168.3497         9     1.066     0.682  76.08   0
       588    254.0135    167.9379 307.8279627  +6.6022427     7633.172     10416.14     10525.62     78.00351     156.4439     312.9813      1.433     3.14     835.2498     55.20099     1165.314        29     1.294     0.937  80.39   0
       589    707.9209    165.9052 307.6394474  +6.6181885     1163.322     1554.462     2120.014     78.25312     156.8796     313.1993      1.404     4.33      826.506     55.20099     209.9563        12     1.269     0.686  87.38   0
       590    604.9220    168.1178 307.6821673  +6.6138533     731.5425      1130.92     1503.918     78.62605     156.8796     313.2927      1.428     2.34     825.3171     55.20099     150.8895         5     0.733     0.504  37.35   0
       591     64.1362    167.9200 307.9068471  +6.5959097     498.4107     745.1423      1795.42     78.74997      156.693     313.1371      1.531     4.76     839.1381     55.20099      89.6759         5     0.974     0.660  55.63   0
       592    402.8093    162.2758 307.7663334  +6.6095402     58439.16     78303.75      80776.8     78.12842     156.1944     312.9813      1.427     3.14     828.0822     55.20099     9325.831        55     1.361     1.019  80.12   0
       593    158.7403    163.6604 307.8676870  +6.6008288     4709.884     6422.929     6503.175     78.50194     156.6308     313.1993      1.468     3.30      836.381     55.20099     697.9721        23     1.309     0.895  84.70   0
       594    420.0500    162.6559 307.7591579  +6.6099575     1623.983     2148.718      1922.68     78.50194     156.6308     313.1993      1.439     3.67     827.4189     55.20099     257.4167        14     1.200     0.778  77.08   0
       595    306.8087    160.0276 307.8062930  +6.6072692     20936.08     28595.78     29733.47     78.12842     156.4439     313.0125      1.432     3.18     833.1182     55.20099     3329.578        39     1.336     0.980  79.77   0
       596    573.1553    161.4105 307.6955889  +6.6155664      604.446     751.9198     1015.099     78.00351     156.5062     312.8878      1.389     4.48     824.8517     55.20099     89.49432         7     0.935     0.610  78.66   0
       597    314.3958    159.4424 307.8031604  +6.6077638     2266.433     3628.668     4725.596      77.8784     156.3192     312.8878      1.879     5.95     832.6688     55.20099     336.0161        24     1.922     0.790 -79.35   0
       598    742.1250    158.2868 307.6254897  +6.6224693     37979.81     50787.57     51510.27     78.50194     156.9418     313.2305      1.417     3.18     826.2695     55.20099      6135.68        49     1.376     0.982  77.40   0
       599    690.3213    160.2742 307.6469471  +6.6199289     1067.033     1480.235     1610.161     78.74997     156.8796     313.2305      1.420     4.57     826.3546     55.20099     185.4943         8     1.089     0.546 -75.73   0
       600     29.3213    159.5089 307.9215922  +6.5982183     625.2496     688.6995     993.7012     78.25312     156.8796     313.2305      1.441     4.66     840.0509     55.20099     118.6688         6     1.335     0.462  86.78   0
       601    790.2981    158.6088 307.6054639  +6.6239349     1305.223     1677.267     2302.497     78.25312     156.2568     312.9502      1.274     3.52     826.3029     55.20099     210.7299        11     1.136     0.667  83.31   0
       602     58.8677    155.9010 307.9094383  +6.6006956      10344.3     14644.66     14947.63     78.50194     156.7552     313.1371      1.464     3.16     839.2171     55.20099     1505.591        33     1.365     0.994  75.89   0
       603    565.7885    156.6633 307.6988078  +6.6172814     720.4004     802.9398     1048.913     78.00351     156.4439     312.9813      1.240     4.48      824.746     55.20099     135.4869         7     0.955     0.597  75.18   0
       604     92.8036    153.9551 307.8954050  +6.6026331      1622.94     2314.583      2083.26      77.8784     156.3192     312.8255      1.504     3.65     838.3382     55.20099     248.6439        16     1.272     0.795  69.53   0
       605   1000.7664    152.4987 307.5182195  +6.6334321     1137.522     1447.411     1816.925     78.50194     156.5062     313.2927      1.439     3.77     826.2257     55.20099     180.9396        10     1.016     0.662  86.70   0
       606    575.9702    142.8530 307.6950377  +6.6233217     869.0193     1298.036     1193.398     78.25312      156.693     313.1059      1.599     3.02     824.6208     55.20099     135.9847         7     0.848     0.634 -69.94   0
       607   1001.5093    138.8712 307.5183629  +6.6390831     2388.315     3652.289     4712.404     78.37762     156.8796     313.1682      1.948     3.62     825.6956     55.20099     328.8596        20     1.358     0.853  74.67   0
       608    584.5254    136.6986 307.6916882  +6.6261471     1093.111     1540.506     1570.186     78.00351     156.7552     313.1371      1.411     3.85     824.5696     55.20099     175.1719        11     1.218     0.663  78.66   0
       609    270.6929    136.7424 307.8220757  +6.6156782     661.7969     1083.544     1211.098     78.37763     156.5685     313.2927      1.738     3.97     835.0623     55.20099     126.8939         5     0.883     0.511  43.81   0
       610    592.8104    134.8160 307.6883086  +6.6271997     2263.911     3102.562     3133.776     78.25312     156.3816     313.0436      1.486     3.10     824.5653     55.20099     385.1887        14     1.080     0.802  87.25   0
       611    337.0608    134.8776 307.7945644  +6.6186610      1142.97     1410.899     931.4785     78.62605      156.693     313.1371      1.346     3.19     831.3531     55.20099     190.7609        12     1.079     0.711 -87.86   0
       612    277.6531    133.0944 307.8193059  +6.6174165     35051.09     48216.19     49698.01     78.37763     156.5062     313.4172      1.438     3.16     834.9624     55.20099     5457.604        50     1.367     1.048  76.49   0
       613     22.8760    131.6853 307.9252020  +6.6094896     5092.156      6992.22     7018.535     78.62605     156.9418     313.2305      1.472     3.27     839.6308     55.20099     768.3925        26     1.300     0.942  85.30   0
       614    186.8736    130.9845 307.8570920  +6.6152584      956.768     1193.293      1038.84     78.00351     156.3816     313.0748      1.310     4.44     836.1311     55.20099     156.1642         7     1.043     0.538  55.58   0
       615    709.2955    129.4463 307.6400894  +6.6332868     9275.239      12152.1     12773.27     78.50194     156.5685     313.3239      1.421     3.24     825.2198     55.20099     1361.202        26     1.287     0.880  77.58   0
       616    263.3289    128.0633 307.8254253  +6.6190158     883.9979     1208.487     1460.957     78.50194     156.6308     313.2305      1.549     5.07     835.3216     55.20099     126.0316         9     1.155     0.629  75.94   0
       617    120.0477    126.8587 307.8849934  +6.6147301     5516.069     7580.493     8193.898     78.50194     156.6308     313.2616      1.432     3.21     837.2985     55.20099     794.5055        24     1.308     0.884  76.61   0
       618    582.0308    124.6167 307.6931272  +6.6310523     795.1668     1212.177     1377.252     78.12841     156.3816     313.1059      1.595     3.80     824.3755     55.20099     138.0533         7     0.929     0.593  67.97   0
       619    459.0732    123.8759 307.7442387  +6.6272675     1639.559     2272.721     2424.935     78.74997     156.8796     313.1993      1.438     3.57     825.2892     55.20099     232.2433        12     1.184     0.641  71.52   0
       620    390.7925    122.6907 307.7726473  +6.6254829     4429.258     6650.997     6415.316     78.12842     156.3192     312.9813      1.598     3.92     827.9008     55.20099     662.5878        26     1.493     0.985  82.96   0
       621    647.8511    123.4319 307.6658191  +6.6337291     954.7064     1246.861     908.8426     78.37763      156.693     313.1059      1.487     3.41     824.7603     55.20099     167.5356        10     0.996     0.675  85.38   0
       622    153.2475    122.3188 307.8713522  +6.6177133     441.9471     817.7285     770.1969     78.50194     156.6308     313.1993      1.727     4.32     836.3634     55.20099     102.1608         6     1.865     0.285  62.16   0
       623    355.1483    121.7293 307.7874887  +6.6246922     3653.712     4903.352     4772.889     78.37763     156.6308     313.1993      1.422     3.18     830.1872     55.20099     521.8568        19     1.198     0.842  81.98   0
       624    109.4561    121.8337 307.8895620  +6.6164508     1905.336     2717.734     2978.882     78.37763     156.6308     313.1682      1.513     3.47     837.5543     55.20099     245.8434        17     1.194     0.834  80.41   0
       625    567.3028    121.3490 307.6993553  +6.6319117     875.8678     1194.328     1693.666     78.37763     156.5685     313.3549      1.638     5.19     824.3009     55.20099      101.203        10     1.200     0.635 -88.92   0
       626    937.5991    120.6114 307.5455237  +6.6445058     391.1588     536.4049       212.04     78.12842     156.3192     312.9813      1.184     4.08     824.9442     55.20099     69.90765         5     1.195     0.398  53.05   0
       627    745.4236    119.7081 307.6254024  +6.6385067     597.4663     861.6052     491.1753     78.50194     156.4439     313.0125      1.738     4.25     824.8232     55.20099     87.31982         7     1.101     0.468  80.89   0
       628    671.4068    119.6295 307.6561585  +6.6360815     860.1315      796.045     506.2719     78.00351     156.4439     312.9502      1.254     4.15     824.8766     55.20099     138.3402         7     1.022     0.481  83.68   0
       629   1002.0475    115.4205 307.5189173  +6.6487830     1493.579     2238.532     1917.195     78.12841     156.6308     312.9813      1.591     3.66     824.7188     55.20099     229.5269        15     1.221     0.799  78.77   0
       630    207.0495    110.6061 307.8493912  +6.6243451     6343.976     8761.482     9007.415     78.00351     156.4439     312.8255      1.446     3.27     836.0778     55.20099     951.1689        26     1.314     0.903  80.50   0
       631     89.5968    110.5520 307.8981904  +6.6204448     2538.111     3570.725     4073.831      77.8784     156.3816     312.7632      1.581     3.27     837.8922     55.20099     379.0408        19     1.281     0.859  79.65   0
       632    668.8727    109.2460 307.6575571  +6.6402843     7285.322     9703.504     9790.549     78.37763      156.693     313.1682      1.419     3.22     824.4675     55.20099     1162.953        25     1.261     0.879  77.95   0
       633    816.9813    108.9955 307.5960265  +6.6453037     1146.923     1573.582     1627.278     78.12842     156.2568     312.9813      1.487     3.95     823.8273     55.20099     155.5687        13     1.182     0.727  81.78   0
       634    620.9764    106.4886 307.6775495  +6.6398313     11180.27      14515.6     15109.85     78.50194     156.4439     313.0436      1.418     3.20     824.1035     55.20099       1707.7        27     1.288     0.873  78.48   0
       635    558.9881    105.9544 307.7033230  +6.6379910     808.2051     1059.735     1493.094     78.00351     156.4439     312.8878      1.397     4.45     824.1263     55.20099     125.9684         9     1.152     0.621  84.75   0
       636    255.8911    107.0894 307.8292165  +6.6274268     921.7844     1160.566     1380.021     78.50194      157.128     313.2616      1.267     2.16     835.6202     55.20099     191.1595         8     0.746     0.660  58.85   0
       637     20.0515    105.3666 307.9272572  +6.6202607     967.1437     1922.139     1637.509     78.37762     156.6308     313.0748      1.883     6.90     839.1335     55.20099     129.8655        18     1.756     0.761 -79.20   0
       638    348.1723    102.2803 307.7910365  +6.6324894     4113.286     6331.266     6980.812     78.37763     156.4439     313.1993      1.619     3.85     830.8099     55.20099     664.5792        27     1.473     0.993 -74.15   0
       639    529.8896    101.6767 307.7155557  +6.6387893     2137.986     2707.387     2758.679     78.50194     156.8796     313.2305      1.332     3.69     824.2034     55.20099     334.5198        12     1.090     0.693  87.41   0
       640    994.6296    101.1175 307.5224741  +6.6544428     851.9227      1255.09     1277.266     78.37763     156.4439     313.1371      1.593     4.57     824.1413     55.20099     122.4215         8     1.074     0.552 -68.69   0
       641    624.5465     98.0345 307.6763477  +6.6434403     61662.62     83025.09     85403.54     78.37762     156.6308     313.1371      1.417     3.10     823.9316     55.20099     9578.902        61     1.385     1.014  76.70   0
       642    303.6284     91.8697 307.8098914  +6.6353024     4213.409     5844.839     6454.229     78.25312     156.6308     313.1059      1.459     3.39     834.2532     55.20099     625.9573        22     1.284     0.897  78.40   0
       643    498.9980     88.5598 307.7288283  +6.6431769     499.4197      542.644      395.965      77.7531     156.3816      312.919      1.313     3.31     824.2912     55.20099     115.6105         5     0.943     0.519  75.17   0
       644    703.5445     86.0204 307.6439239  +6.6510248     1056.357      1387.13     1131.807     78.00351     156.6308     312.9813      1.258     4.21     823.7476     55.20099     169.9358         8     1.131     0.446  77.69   0
       645    674.8540     85.1219 307.6558749  +6.6504429     1641.542     2199.583     2120.025     78.62605     156.6308     313.1682      1.420     3.57     823.7878     55.20099     276.7657        13     1.174     0.688  88.01   0
       646    963.9106   1018.7665 307.5048042  +6.2745511     626.0406     1370.177     1227.649     78.62605     156.5062     299.4154      1.925     5.66     848.6639     55.20099     90.44635         6     1.285     0.702 -85.24  16
       647    688.9700     81.9627 307.6501148  +6.6522161     3578.403     4689.013     4684.881     78.12842     156.3816     313.0436      1.375     3.19     823.6805     55.20099     562.4285        17     1.173     0.786  86.81   0
       648    257.9905     82.8219 307.8291554  +6.6375157     488.7245     721.4756      803.305     78.12842     156.3816     313.0125      1.401     2.42     835.7133     55.20099     111.6021         5     0.775     0.474  55.68   0
       649    430.6652     73.0060 307.7577390  +6.6473237     4711.818     6612.758     6124.776     78.00351     156.3816     312.9502      1.418     3.11     825.8694     55.20099     770.9998        23     1.261     0.905  74.07   0
       650    885.2041     69.2153 307.5690011  +6.6639896     2211.265     3215.939     3100.136     78.12841     156.2568     313.0125      1.506     3.36     822.5866     55.20099      351.369        19     1.294     0.829  78.81   0
       651    903.1919     68.2078 307.5615602  +6.6650016     4227.375     6119.347     6267.955      77.8784     156.4439     313.0436      1.481     3.27     822.5847     55.20099      616.447        26     1.298     1.002  71.66   0
       652    583.3398     68.6779 307.6944470  +6.6541908     827.0845     889.7407     892.4942     78.62605      156.693     313.1371      1.293     5.09     823.4594     55.20099     128.8823         9     1.239     0.592 -86.28   0
       653    595.3466     67.1307 307.6895097  +6.6552287     1999.093     2758.884     3007.857     78.37763     156.5685     313.0748      1.381     3.24     823.3666     55.20099     306.5037        15     1.195     0.709  67.94   0
       654    615.6008     66.6797 307.6811090  +6.6560882     612.6475     652.3647      935.353      77.7531      156.007      312.919      1.328     4.23     823.3101     55.20099     101.8375         7     0.988     0.517  30.21   0
       655    241.3511     66.2933 307.8366214  +6.6437844     822.2842     1303.789      2422.01     78.37763     156.5062     313.2927      1.718     4.43     835.8657     55.20099      127.239         8     0.958     0.755  72.96   0
       656    394.0135     65.0148 307.7732343  +6.6494021     2228.949     3096.366     3103.958     78.37763     156.3192     313.1059      1.463     3.20     828.4497     55.20099     327.7617        16     1.152     0.861  82.73   0
       657    141.9206     62.1084 307.8780730  +6.6421927     3677.815      5016.17     5351.925     78.25312     156.8796     313.2305      1.420     3.25     835.5059     55.20099     586.6533        24     1.258     0.953 -89.34   0
       658     23.8145     59.9261 307.9272164  +6.6391464     13925.21     19377.25     20635.29     78.00351     156.3816     313.0436      1.463     3.10      838.384     55.20099     2192.769        34     1.308     0.994  77.93   0
       659    290.0966     60.2186 307.8165712  +6.6479184     1411.766     2043.872     2637.037     78.37762     156.5062     312.9502      1.515     3.33     835.5672     55.20099     234.2191        12     1.096     0.772  77.89   0
       660    563.6613     59.2176 307.7029388  +6.6574422     673.9735     849.3976     325.9284     78.12842     156.5685     312.9813      1.479     4.67      823.385     55.20099     107.4958         8     1.217     0.509  66.23   0
       661    550.7651     59.1324 307.7083001  +6.6570485     775.4045     1103.466     728.5539     78.37762      156.693     313.2616      1.578     4.05     823.4531     55.20099     141.5679         8     1.304     0.391  69.08   0
       662    758.8802     58.5834 307.6218442  +6.6641895     817.8999     1082.529     1357.844     78.12842     156.3192     313.0125      1.488     5.11     822.6011     55.20099     120.2635         9     1.111     0.762 -57.75   0
       663    982.1318     57.9525 307.5290994  +6.6718505     471.8487     517.6868     259.4315     78.50194     156.5685     313.1682      1.244     5.06     821.2439     55.20099     89.21918         5     1.142     0.633   3.41   0
       664    944.7430     58.4008 307.5446205  +6.6704272     506.0294     787.8713     526.6854      77.8784     156.3192     312.8567      1.619     4.33     821.9026     55.20099     74.43793         5     0.913     0.585  50.55   0
       665    153.2185     58.2463 307.8735082  +6.6441646      602.531     659.1984     470.8275     78.00351     156.5685      312.919      1.249     3.68      835.287     55.20099     105.0049         5     0.873     0.446  45.76   0
       666    415.8136     55.5844 307.7644912  +6.6540216     1203.547     1610.771     1636.712     78.25312     156.3192     313.1059      1.452     4.15     826.9861     55.20099      195.974        11     1.150     0.657  85.32   0
       667    825.6209     54.0639 307.5942625  +6.6682696     6605.761     9217.594     9706.464     78.12841     156.6308     313.0436      1.423     3.16     822.1913     55.20099     1022.218        26     1.310     0.871  81.77   0
       668    770.6913     54.4300 307.6170746  +6.6662962     3848.176     5104.954     5335.927     78.62605     156.3816     313.1371      1.456     3.21     822.3746     55.20099     580.1492        21     1.237     0.893  83.52   0
       669    757.6412     53.3981 307.6225315  +6.6662892     755.9199      1014.77     1634.735      77.8784     156.3816     312.8878      1.669     5.00     822.4232     55.20099     109.5553         9     1.130     0.626 -77.28   0
       670     48.6841     52.7504 307.9171241  +6.6429404     1078.846      1400.31     1320.869     78.50194     156.6308     313.2616      1.439     3.94     837.3608     55.20099     145.2802        12     1.128     0.760 -84.63   0
       671    533.0449     52.4580 307.7158854  +6.6592147     1341.168     1542.113     1647.549     78.37762     156.6308     313.2305      1.343     3.17     823.5728     55.20099     213.6027        13     1.024     0.873  71.97   0
       672     64.0520     51.6550 307.9107757  +6.6439064     3608.623     4984.994     5208.645     78.50194     156.6308     313.1371      1.461     3.30     836.7736     55.20099     579.4694        23     1.284     0.895  72.99   0
       673    652.5171     51.8850 307.6662626  +6.6634231     642.2831     710.0782     995.6426     78.25312     156.8174     313.2305      1.281     2.44     823.0585     55.20099     156.6376         6     0.894     0.603  56.62   0
       674    425.2525     51.1816 307.7607163  +6.6561538     1059.712     1319.854     1422.262     78.00351      156.693     312.9502      1.356     3.42      826.756     55.20099     159.8264         9     1.004     0.689 -87.03   0
       675    587.9918     48.1367 307.6931985  +6.6628261     1535.415      2122.13     1652.191     78.00351     156.3816     312.9813      1.371     4.13     823.0656     55.20099      228.325        11     1.064     0.687  75.84   0
       676      6.4848     47.3835 307.9348367  +6.6437449     2916.528     3912.339     4656.573     78.12842     156.3816     301.3954      1.485     3.13     838.9186     55.20099     398.0903        20     1.188     0.926  83.36  16
       677     79.1651     42.9138 307.9047893  +6.6480203     937.5039     1316.506     1006.493     78.50194     156.5062     313.1682      1.492     3.81     835.8697     55.20099     178.0926        11     1.182     0.737 -64.73   0
       678    765.2591     41.8397 307.6197505  +6.6713140     2216.697     2959.475     3369.921     78.50194     156.6308     313.2616      1.395     3.22     822.0552     55.20099     348.8596        16     1.169     0.790  80.39   0
       679    405.9930     42.4737 307.7690093  +6.6591074     1265.299     1679.048     1657.478     78.12841     156.1944     313.0436      1.420     3.29     828.3397     55.20099     207.1595        10     1.043     0.675  73.56   0
       680    656.9656     41.7529 307.6647515  +6.6677541      532.207     835.0649     1018.693     78.12841     156.6308     313.1059      1.606     3.89     822.8527     55.20099     94.86603         5     1.265     0.343  66.34   0
       681    103.1489     41.3037 307.8948784  +6.6494866     1036.813     1331.947     1493.801     78.37763     156.5685     313.3549      1.433     3.60     835.0142     55.20099     159.3175        10     1.013     0.722 -83.87   0
       682     91.8059     36.0357 307.8997676  +6.6512824     10393.67     14652.74     15028.56     77.62759     156.3816     312.9502      1.468     3.19     835.0256     55.20099     1614.435        33     1.344     0.977  74.22   0
       683    420.8791     35.5892 307.7630538  +6.6624455     2929.352     4011.438     3903.577     78.12842     156.3816     313.0436      1.478     3.52     827.4436     55.20099     449.9172        16     1.254     0.751  81.24   0
       684    242.4041     35.2360 307.8372222  +6.6566416      726.028     668.9291     579.0029     77.62759     156.5062     312.9813      1.237     4.03     835.8559     55.20099     110.6165         7     0.958     0.484 -84.44   0
       685    634.6362     27.7659 307.6744956  +6.6727868      21271.7     28488.22     29388.06     78.25312     156.3816      312.919      1.413     3.07     822.5647     55.20099     3421.645        37     1.322     0.946  79.45   0
       686    258.6162     30.0193 307.8306605  +6.6593362     1622.125     2323.834      2952.56     78.25312     156.3816     313.0748      1.494     3.81     835.8647     55.20099      227.474        14     1.174     0.759  87.22   0
       687    663.9905     29.1234 307.6622530  +6.6732017     575.8519     629.8621     657.5674     78.12842     156.1944     312.9813      1.347     4.87     822.5791     55.20099     96.70288         5     1.171     0.573  79.46   0
       688    534.3611     23.8694 307.7162916  +6.6710614     6152.061     8476.518     8666.545     78.37763     156.6308     313.2616      1.423     3.02     823.1974     55.20099     921.7935        26     1.251     0.951  74.18   0
       689    252.6082     24.2721 307.8333490  +6.6615085       2248.5     3238.451     4132.285     78.00351     156.1944     313.0748      1.544     3.34     835.8729     55.20099     337.8365        19     1.256     0.868  67.11   0
       690    690.6146     22.9121 307.6513969  +6.6766505     764.4474     1089.304     1790.421     78.25312     156.4439     313.0436      1.666     5.58      822.187     55.20099     105.0385        10     1.171     0.750  86.98   0
       691      1.8972     22.7616 307.9375679  +6.6537564     1282.818     1676.489     1507.921     74.68267      132.703     244.8038      1.517     4.75      838.977     55.20099     184.1412        14     1.334     0.696  87.47  24
       692    793.3035   1016.2189 307.5757248  +6.2699510     6074.042     10598.58     11001.08     78.37763     156.5062     312.9502      1.867     4.08     851.9293     55.20099      669.619        39     1.557     1.243  75.00  16
       693    891.6098   1012.8907 307.5350185  +6.2745831     1168.736     2156.675     2075.039     78.25312     156.3192      312.919      1.950     5.08      851.101     55.20099     145.3308        15     1.119     1.025  33.72   0
       694    213.8097   1011.7471 307.8164704  +6.2525282     2048.943     3240.933      3411.81      77.8784     156.5062     312.8878      1.719     4.14     853.3502     55.20099     244.0334        22     1.358     1.025  74.03   0
       695    320.5105     20.3939 307.8052650  +6.6653743     1138.123      1622.83     1739.182     78.00351     156.3192     312.9502      1.410     3.64      834.822     55.20099     193.0603        10     1.188     0.591 -71.21   0
       696     25.8804     19.7183 307.9277052  +6.6558150     2595.678     3452.329     3025.357     78.50194     156.8796     313.2927      1.412     3.05     837.7279     55.20099     391.5993        18     1.130     0.902  82.48   0
       697    917.8745     19.3434 307.5570821  +6.6856626     2140.365     3078.116     3068.289     78.37763     156.5062     313.1371      1.556     3.58     820.6307     55.20099     339.2764        15     1.160     0.820  76.16   0
       698    553.2661     19.1802 307.7085926  +6.6736263     824.7972     1149.476     1237.865     78.12842     156.6308     313.0748      1.376     3.43     822.8074     55.20099      127.774         8     0.976     0.601  82.93   0
       699    525.3163     19.8006 307.7201855  +6.6724404     807.3116     1322.752     1680.572      77.7531      156.132     312.8567      1.676     4.98     823.3633     55.20099      113.964         9     1.220     0.576  52.32   0
       700    749.9512   1010.0721 307.5939287  +6.2710511     622.3218     1371.481     2029.628     78.50194      156.693     313.1993      3.481     6.51     853.2084     55.20099     93.21881         7     1.339     0.888  60.96   0
       701    717.1950   1008.6737 307.6075754  +6.2705417     6770.254     11371.25     12193.23     78.12842     156.1944     313.0748      1.788     3.88     853.7372     55.20099     773.6912        39     1.528     1.258  65.31   0
       702    431.9290   1008.9062 307.7260073  +6.2609668     4031.716     6181.634     6303.368     78.50194      156.693     313.1682      1.672     3.36     857.6565     55.20099     512.9781        28     1.382     1.077  58.20   0
       703    573.2609   1007.7484 307.6673667  +6.2661444     4042.787     6764.929     8013.025     78.50194     156.5685     313.1682      1.888     3.58     856.1673     55.20099      518.944        32     1.404     1.219  64.76   0
       704    709.6508   1007.8918 307.6107337  +6.2706142     1162.233     1714.953     2040.538     78.37763     156.5062     313.3549      1.642     4.54     853.7741     55.20099      146.718        15     1.266     0.943  89.04   0
       705    749.4316   1003.6428 307.5943579  +6.2736883     1232.231     2057.083     2008.737     78.00351     156.6308     313.0125      1.765     3.93     853.1548     55.20099     181.5682        14     1.098     0.970  43.59   0
       706    956.6695    998.0257 307.5084982  +6.2828748     5538.339     10821.84     11367.27     78.12841     156.5062     313.1059      2.050     4.39     848.8763     55.20099     614.4689        44     1.679     1.409  73.61   0
       707    711.0579    998.7065 307.6104546  +6.2744532     904.5394      1562.98     2134.577     78.37763     156.6308     313.3239      2.024     4.05     853.6251     55.20099     131.4235         9     1.046     0.669  42.32   2
       708    716.5605    996.1706 307.6082542  +6.2756829     2617.548     4236.253     4807.506     78.00351     156.3192     313.0125      1.746     3.69     853.5304     55.20099      342.262        25     1.333     1.158 -85.95   2
       709    241.1411    998.2142 307.8055750  +6.2590267     1335.288      2192.92     2207.121      77.8784     156.5685     312.8878      1.740     4.12     853.7636     55.20099     165.7041        15     1.203     0.859  78.30   0
