#   1 NUMBER                 Running object number                                     
#   2 X_IMAGE                Object position along x                                    [pixel]
#   3 Y_IMAGE                Object position along y                                    [pixel]
#   4 ALPHA_J2000            Right ascension of barycenter (J2000)                      [deg]
#   5 DELTA_J2000            Declination of barycenter (J2000)                          [deg]
#   6 FLUX_APER              Flux vector within fixed circular aperture(s)              [count]
#   9 FLUXERR_APER           RMS error vector for aperture flux(es)                     [count]
#  12 FLUX_RADIUS            Fraction-of-light radii                                    [pixel]
#  13 FWHM_IMAGE             FWHM assuming a gaussian core                              [pixel]
#  14 BACKGROUND             Background at centroid position                            [count]
#  15 THRESHOLD              Detection threshold above background                       [count]
#  16 FLUX_MAX               Peak flux above background                                 [count]
#  17 ISOAREA_IMAGE          Isophotal area above Analysis threshold                    [pixel**2]
#  18 A_IMAGE                Profile RMS along major axis                               [pixel]
#  19 B_IMAGE                Profile RMS along minor axis                               [pixel]
#  20 THETA_IMAGE            Position angle (CCW/x)                                     [deg]
#  21 FLAGS                  Extraction flags                                          
         1    761.6556     32.4554 307.6196494  +6.9227764     31456.85     152040.1       212055     96.90488     192.7402     385.3656      3.279     9.70     1290.518     67.92695     4669.513       149     2.546     2.435 -51.67   0
         2    358.8484     30.0206 307.7881768  +6.9105191     7501.531     42686.55     69282.11     95.98634     192.8168     385.1356      3.610    11.30     1315.707     67.92695     1369.318       127     2.756     2.582 -45.31   0
         3    412.9504     32.0000 307.7654869  +6.9114872     3412.993     7273.719     10661.57     95.67819     192.1264     384.7904      2.970    12.66     1307.508     67.92695     420.0469        41     3.202     1.393  40.45   3
         4    415.8076     28.8100 307.7643984  +6.9128973     3578.802     8126.403     12791.59     95.98633     192.5103     385.2506      3.228    13.77     1307.328     67.92695      431.421        54     3.405     1.548  43.11   3
         5    360.5557     13.6603 307.7880086  +6.9173238     1207.317     2537.339     3024.361      96.4467     192.7402     385.5188      2.261     8.40     1316.045     67.92695     140.0385        18     1.765     1.117 -10.08   3
         6    365.7402     16.2861 307.7857530  +6.9164118     1572.977     3068.382     3754.768     96.59967     192.8934     385.4805      2.409     6.14     1315.287     67.92695      187.064        14     1.405     0.810 -71.73   3
         7    798.8005     18.0110 307.6045953  +6.9299546     1752.872     5570.529     8721.612     96.14003     192.3568     385.1356      3.325    10.98     1288.048     67.92695     213.0643        49     2.515     1.839 -44.12   2
         8    741.6382      7.3351 307.6288551  +6.9324809     2065.653      3986.25     4850.305      96.4467     192.6636     379.0299      2.017     7.90     1290.814     67.92695     233.5918        21     1.611     1.198  -4.33  19
         9    742.1688     11.6148 307.6284911  +6.9307329     2581.189      4950.04     5349.365     96.14003     192.4336     385.2889      2.061     7.15     1290.939     67.92695       304.58        25     1.754     1.027  38.04   3
        10    746.5044      9.9716 307.6267325  +6.9315532     2141.258     3510.959     4404.547      96.7524     192.4336     385.3272      1.824     7.91     1290.601     67.92695     283.0613        21     1.998     0.878 -88.92  19
        11    579.0111      7.2126 307.6968691  +6.9271830     14988.05      82180.7     125694.3     96.29349     192.4336     378.0157      3.478    11.19     1293.942     67.92695     2463.067       137     2.674     2.544 -46.75  24
        12    386.0645      4.3304 307.7776526  +6.9220139     8636.673     43055.34     60191.82     96.59967     192.2033     343.0842      3.311    11.89     1313.323     67.92695     1464.732        97     2.737     2.161 -14.86  24
        13    459.4942      5.6090 307.7469030  +6.9239077     1678.027     3718.848     5426.509     96.14004     192.2801     360.8296      2.854     9.97     1305.047     67.92695     211.8712        27     2.314     1.197  58.45  19
        14    463.5920      3.0770 307.7452737  +6.9250872     1741.807     3625.289     4501.066     96.14003     180.4762      322.452      2.442     8.98     1304.767     67.92695     207.9283        23     1.632     1.380  70.02  27
        15    821.9242      4.5412 307.5953722  +6.9362701     791.8342     1467.358     1938.192      96.7524     192.8168     346.0836      2.249     6.32     1286.951     67.92695     121.3718         8     1.285     0.873  42.08  26
        16    625.2133      2.3920 307.6777081  +6.9306919     3536.257     6165.545      6417.89     95.98634     170.8953     310.3184      1.865     5.48     1292.637     67.92695     406.2704        28     1.718     1.015  23.79  27
        17    629.3239      1.3353 307.6760242  +6.9312630     1854.957     2245.213     2304.347     84.18559     153.3164     289.9518      1.183     3.79     1292.611     67.92695     310.4249         8     0.850     0.755 -37.71  27
        18     85.7902    979.4852 307.8706221  +6.5098518     2024.131     6509.985     7755.101     96.14004     192.3568      385.174      2.774     8.05     1356.989     67.92695      240.446        48     1.890     1.859 -47.02   0
        19    298.8838    979.4897 307.7815850  +6.5168870     724.8237     1529.855     1906.929     96.29349     193.0464     385.4805      1.773     4.29     1358.536     67.92695     95.73413         6     1.054     0.497  -3.47   0
        20   1017.3675    976.2568 307.4814680  +6.5418324     712.8151     1587.398     2635.696      96.4467     192.8168     381.3214      2.738     4.97     1349.389     67.92695     121.5862         6     1.450     0.482 -88.98  16
        21    107.9234    974.9800 307.8615248  +6.5124418     1074.344     3025.232     3829.268     96.14003     192.3568     385.2889      2.710     8.76     1357.273     67.92695     156.9768        19     1.642     1.305  30.25   0
        22    331.5607    968.7525 307.7682890  +6.5223939     866.2607     2170.405     2967.325      96.4467     192.7402     385.1356      2.827     7.09     1358.294     67.92695     154.0712        11     1.979     0.711   4.54   2
        23    385.0422    963.3456 307.7461220  +6.5263874     2825.751     9306.996     11644.41      96.4467     192.7402     385.3656      2.835     7.35     1357.869     67.92695     353.7635        61     2.133     1.903 -44.20   0
        24    725.6058    960.3363 307.6039145  +6.5388330     5457.532     16312.82     19964.76     95.83238     192.4336     385.0973      2.726     6.74     1355.574     67.92695     660.8402        62     2.059     1.792 -29.24   2
        25    969.3190    955.2258 307.5022422  +6.5489346     2426.381     5409.292     5870.424      96.4467     192.5103     385.4039      2.284     5.53     1349.246     67.92695     293.6141        31     1.566     1.367 -38.54   0
        26    432.7866    946.2421 307.7267412  +6.5350158     1161.628     3385.263     4275.532     95.83238     192.5103     385.0589      2.720    10.10     1357.212     67.92695     164.3215        26     1.991     1.429 -22.99   0
        27    405.6305    947.1441 307.7380586  +6.5337490     1008.096     3045.407     4024.688      96.4467     192.8168     385.2889      2.644     8.89     1357.507     67.92695     140.2848        21     1.610     1.371  82.75   0
        28    790.9124    943.2227 307.5771922  +6.5480366     15740.86     43353.11     51453.84     96.59967     192.5103     385.2506      2.616     6.15     1352.326     67.92695     1854.254        84     2.163     1.836 -48.93   0
        29    563.1234    935.3149 307.6726417  +6.5438140      1112.32      3264.77     4198.183      96.7524     193.1229     385.4805      2.883     8.54     1355.442     67.92695     186.9567        23     1.943     1.395  39.25   0
        30    647.4005    929.3268 307.6376236  +6.5490554      29869.9     97785.16     119021.3     95.67819     191.9727      385.174      2.792     7.05     1354.563     67.92695     3773.497       108     2.257     2.014 -42.50   0
        31    805.3651    929.6664 307.5716022  +6.5541031     692.8423     1533.842     2081.665      96.4467     192.8168     385.4422      2.449     3.16     1351.125     67.92695     160.6827         5     0.954     0.464  -5.73   0
        32    508.0203    925.9797 307.6959780  +6.5458515     746.2079     1784.937     2520.582     96.29349     192.6636     385.2889      3.142     8.58     1355.728     67.92695     109.7372         9     1.862     1.104 -80.25   2
        33    511.9679    925.0000 307.6943609  +6.5463856     917.0576      2021.47     3283.597     95.67819     192.4336     385.0206      3.526     7.52     1355.671     67.92695     132.0526        11     1.642     0.963  89.96   2
        34     48.2126    925.0259 307.8881426  +6.5310733     2805.734     7199.645     8864.836     96.14003     192.5103     385.2889      2.717     7.55     1355.482     67.92695     325.3645        44     1.978     1.781  82.89   2
        35     45.3136    926.6714 307.8892989  +6.5302986     1616.519     2544.038     3092.034      96.7524     193.0464     385.4039      1.692     3.91     1355.572     67.92695     199.6548         7     0.918     0.602  46.64   3
        36    493.1837    922.4017 307.7022967  +6.5468391      2352.42     8677.017     10565.68     96.14003     192.2033     385.0973      2.889     8.14     1355.789     67.92695     294.2776        57     2.133     1.909  -5.04   0
        37    356.1816    917.6576 307.7597032  +6.5442825     8488.425     31095.21     39616.81     96.14003     192.6636     385.0589      2.970     7.62     1357.239     67.92695     1090.712        84     2.245     2.108 -35.12   0
        38    222.5196    919.2671 307.8155013  +6.5392087     1277.968     3263.426     3815.455      96.7524     193.0464     385.3656      2.501     7.55     1356.815     67.92695     162.6805        20     1.974     1.028  17.10   0
        39    445.0765    908.0344 307.7228773  +6.5511815     2847.445     10629.24     13784.56      96.4467     192.7402     385.3272      3.040     7.86     1356.239     67.92695     407.2162        64     2.241     1.990 -23.06   0
        40    714.1359    906.5544 307.6104921  +6.5606421     1263.641     3880.471      4637.57     96.59967     192.6636     385.4039      2.692     9.33     1352.557     67.92695      158.109        30     1.764     1.547  -1.47   0
        41    335.1460    892.3349 307.7693369  +6.5540345     2326.387     9012.266     11557.92     96.59967     192.6636     385.3272      2.987     8.12     1356.991     67.92695     311.8743        61     2.172     1.985 -18.39   0
        42    702.8216    887.8460 307.6158412  +6.5679879     19733.09     65525.66     79597.84     96.14003     192.7402      385.174      2.808     6.98     1351.372     67.92695     2414.643       102     2.240     2.018 -37.28   0
        43    193.2443    892.1596 307.8286385  +6.5494238     976.3619     1954.787     3345.012     96.29349     192.7402     385.2506      2.413     5.50     1355.639     67.92695     116.5502         9     1.181     0.723  74.25   0
        44    374.6460    887.0316 307.7530075  +6.5575245     940.5979     2711.371      3208.76     96.29349     192.7402     385.2506      2.764     7.73     1356.739     67.92695     136.4584        15     1.728     0.966  -1.37   0
        45    877.2776    883.4861 307.5430810  +6.5755120     1052.866     2523.069     2741.224     96.59967     193.1229     385.4805      2.391     5.74     1347.889     67.92695     171.2974        12     1.601     0.579 -54.43   2
        46    937.7891    883.5758 307.5177902  +6.5774585     761.8502      1734.77      1915.35     96.14004     192.5103     385.2506      2.291     6.00     1346.392     67.92695     129.4226         8     1.567     0.646  10.80   0
        47    138.5742    873.8795 307.8520932  +6.5551582     944.1478      2680.64     3828.186     96.29349      192.587     385.3656      2.715     6.51     1354.699     67.92695     138.8003        10     1.572     0.757  29.11   2
        48    701.3755    872.4792 307.6169555  +6.5742793     2117.344     7533.558     8686.707     96.14004     192.5103     385.3656      2.766     8.79     1350.288     67.92695     303.9948        50     2.083     1.753 -29.64   0
        49    718.0843    869.9459 307.6100570  +6.5758732     1204.201     3136.516     3848.175     96.59967     192.7402     385.5571      2.687     7.45     1349.926     67.92695     177.7306        19     1.943     1.079  14.30   0
        50    955.8231    861.0601 307.5109990  +6.5873376     2859.658     7686.761     8715.304     96.14003     192.6636     385.2506      2.506     6.27      1344.53     67.92695     405.5842        46     1.937     1.564 -36.53   0
        51    306.3784    864.0816 307.7822996  +6.5647402     827.6526     1740.832      2488.55     96.29349     192.3568     385.2889      2.395     6.16     1356.464     67.92695     106.3795         9     1.830     0.583   1.27   0
        52    196.7686    857.2103 307.8283320  +6.5639567     1626.064     6629.864      8452.62     95.98633     192.4336      385.174      3.063     9.12      1354.71     67.92695     237.6091        54     2.182     2.068 -20.02   0
        53    102.0792    842.5654 307.8683890  +6.5668689     701.0251      1257.58     2214.867      96.4467     192.8168     385.3656      1.964     5.99     1353.134     67.92695     109.1957         8     1.819     0.555  36.12   0
        54    673.5792    836.7173 307.6297590  +6.5881183     1588.972     5609.991     6864.076     96.29349     192.3568     385.2889      2.739     7.97     1348.882     67.92695     227.1949        45     2.032     1.828 -32.76   0
        55    853.2871    837.1800 307.5546413  +6.5938273     970.5963     2143.008     2778.238     96.29349     192.4336     385.2506      2.605     7.51     1345.106     67.92695     130.4386        12     1.470     1.074 -35.64   0
        56    614.2844    834.8676 307.6546001  +6.5869322     957.8667     2115.565     3190.528     96.90488     193.0464     385.4039      2.703     5.97      1349.06     67.92695     138.8719        10     1.548     0.647 -27.24   2
        57    512.3750    837.9763 307.6970850  +6.5822970     757.0504     1247.804     2170.058     95.98633     192.5103     385.2889      1.565     4.27     1352.562     67.92695     131.9714         5     1.160     0.449  80.21   0
        58    698.6288    827.7954 307.6195866  +6.5926217     3190.317     3107.417     3189.824     95.98634     192.5103     385.1356      0.893     2.42     1348.157     67.92695     1089.846         6     0.839     0.358  64.72   0
        59    175.0716    821.9563 307.8385753  +6.5777822     877.4944     1966.767     3202.468      96.4467     192.7402     385.4039      3.271     6.05     1353.182     67.92695     112.0756        10     1.091     0.943 -82.78   0
        60    407.3772    811.9009 307.7418315  +6.5895950     6214.728     25609.97     35871.74      96.7524     192.4336     385.0973      3.244     8.84     1352.863     67.92695     863.0897       101     2.631     2.193 -43.91   0
        61    731.6794    810.2543 307.6063565  +6.6009433     5038.883     11386.47     15419.04      96.7524     192.7402     385.4039      2.665     8.39     1346.942     67.92695     564.7361        55     2.448     1.667  88.95   3
        62    735.3220    810.3383 307.6048314  +6.6010283     4077.863     6455.862     7834.612     96.90488     192.8168     385.3656      1.791     4.88     1346.906     67.92695     451.8922        19     1.387     0.916 -79.38   3
        63     97.5581    804.6975 307.8715432  +6.5823397     816.1091     1505.146     2615.758     96.59967      192.587     385.6337      1.928     3.48      1351.62     67.92695     130.4707         5     0.727     0.481  76.94   0
        64    528.5353    797.9773 307.6916618  +6.5993288     1174.179     2525.882      4150.07     96.14003     192.7402     385.2123      3.405    11.86     1349.476     67.92695     181.0701        21     2.439     1.606  41.70   2
        65    530.9274    795.3763 307.6907486  +6.6004805     1305.714     2995.152     4344.684     96.14003     192.5103     385.2889      2.627     8.85     1349.217     67.92695     185.5192        20     2.607     0.840  30.00   2
        66    870.8082    800.4393 307.5485365  +6.6095580      697.566     1672.242     2778.986     95.83238     192.4336     385.0589      2.690     5.08     1341.964     67.92695     91.92346         7     1.478     0.493  -2.37   0
        67    496.5601    797.8831 307.7050279  +6.5983150      773.282     1596.974     2756.407     96.59967     192.7402     385.3272      3.242     4.61      1350.05     67.92695     122.6792         5     0.855     0.707 -42.36   0
        68    891.4709    794.2081 307.5401073  +6.6128061     1308.873     3550.338     4183.729     95.98634     192.2801     385.2123      2.693     7.35     1341.391     67.92695     206.3756        25     1.923     1.431 -11.30   0
        69    838.0721    793.9216 307.5624339  +6.6111730     4343.192     13845.84      16181.9     96.90488     193.0464     385.3272      2.733     6.98      1342.58     67.92695     519.8961        64     2.130     1.830 -51.79   0
        70    924.7410    791.6532 307.5262872  +6.6149506     4370.944     12851.87     14841.27     96.59967     192.6636     385.3656      2.633     6.60     1340.778     67.92695      531.816        56     2.015     1.734 -40.56   0
        71    636.3961    792.2624 307.6467748  +6.6052343     731.6118     3138.083     4685.093     95.83238     192.4336     385.0589      3.219    11.77     1346.902     67.92695     121.7307        23     2.016     1.913  17.86   0
        72    446.3411    786.0667 307.7264083  +6.6015355     803.0068     1913.614     2921.749      96.7524     192.6636     385.3656      2.124     4.29     1350.113     67.92695     93.92737         7     1.203     0.436  32.84   0
        73    688.3043    780.0810 307.6254856  +6.6119653     11738.51     46074.34     59239.32     96.29349     193.1229     385.4805      3.022     8.35      1345.24     67.92695     1521.936       102     2.384     2.150 -47.33   0
        74    293.5825    780.3892 307.7904368  +6.5988413     2254.215     5028.041     6332.856     96.29349     192.3568     385.2123      2.511     8.80     1353.763     67.92695     275.6825        36     2.485     1.130 -56.63   3
        75    289.9877    778.5920 307.7919990  +6.5994640     1951.532     4918.188     7217.165     96.14003     192.5103     385.2506      2.648    10.00     1353.742     67.92695     232.9893        35     2.619     1.065 -65.56   3
        76    777.3714    781.9464 307.5881998  +6.6141210      712.619     1743.843     2284.079     96.29349     192.8168     385.2506      2.530     7.30     1343.412     67.92695     105.4095        10     1.860     0.803  10.82   0
        77    831.1877    781.9713 307.5657073  +6.6158768     741.1443     1468.153     1658.823     95.98634     192.5103     385.2506      2.242     4.33     1342.024     67.92695     98.56104         5     1.078     0.496 -53.34   0
        78    920.3784    778.7135 307.5285391  +6.6201455     1334.311     3430.513     4282.968     96.59967     192.4336     385.2123      2.885     9.34     1340.064     67.92695      194.125        21     1.847     1.317  45.99   2
        79    854.7960    776.5204 307.5560212  +6.6188998     2823.549       6146.5     7444.894     96.14004     192.1264     385.0589      2.302     8.01     1341.196     67.92695     318.6603        30     2.101     1.057 -83.69   3
        80    858.3872    776.4142 307.5545238  +6.6190614     2341.081     3854.525     4829.021      96.4467     192.3568     385.2889      1.863     7.74     1341.083     67.92695     277.2513        26     2.133     0.918 -81.09   3
        81    455.9107    780.8881 307.7225813  +6.6039870     725.9111     1592.431     2345.009     96.29349     193.3521     385.4805      2.222     3.99     1349.485     67.92695     105.9254         6     0.966     0.471 -36.92   0
        82    827.8505    780.6378 307.5671462  +6.6163174     571.7562     1129.899     1929.887     96.29349      192.587     385.2889      2.179     2.63      1342.03     67.92695     127.5255         5     0.733     0.437  19.79   1
        83    402.1335    775.9447 307.7452203  +6.6042543     1822.712     3664.249     5410.896      96.7524      192.587     385.3656      2.807     9.65     1350.796     67.92695     233.6816        33     2.335     1.742 -86.43   2
        84    397.7755    775.4460 307.7470581  +6.6043164     1409.417     3351.502     4334.584     96.14004     192.7402     385.2123      2.531     7.88     1350.903     67.92695     206.8615        18     1.954     0.888 -67.98   3
        85    959.5021    776.5013 307.5122609  +6.6223401     943.6486     1854.349     2065.442     96.59967     193.1993      385.174      2.148     6.46      1339.07     67.92695     124.8876        11     1.533     0.763 -50.67   0
        86     57.6483    768.0931 307.8894441  +6.5961189     1381.876     5359.882     6905.354      96.4467      192.587     385.5188      3.050     8.21     1351.649     67.92695     213.2346        48     2.165     2.016  63.29   0
        87    227.6948    764.6803 307.8184955  +6.6031464     8259.884     37488.17     52225.94     96.29349     193.0464     385.4805      3.290     8.91     1351.734     67.92695     1255.338       107     2.464     2.368 -38.18   0
        88    204.0310    765.1674 307.8283686  +6.6021640     2115.003     6235.173     8365.063     95.98634     192.4336     385.0206      2.941     9.61     1351.605     67.92695     254.5387        52     2.266     1.864  74.06   2
        89    200.2706    767.0284 307.8298779  +6.6012722     1551.641     2462.255      2533.88     96.29349     192.7402     385.3272      1.699     5.19     1351.681     67.92695     182.6517        12     1.329     0.684  84.67   3
        90   1013.4473    766.1046 307.4900590  +6.6283959     1022.046     1995.614     2778.807      96.4467      192.587     385.5571      2.474     6.47      1337.13     67.92695     115.3834        14     1.477     0.797 -66.42   0
        91    351.6729    760.0632 307.7668376  +6.6091419     11550.06     53829.32     75596.66     96.59967     192.7402     385.4422      3.294     9.66     1351.698     67.92695     1759.531       119     2.513     2.400 -39.82   0
        92    108.2636    761.6385 307.8685078  +6.6004552     1096.121     4146.936     5192.721     96.59967     192.6636     385.4422      3.033     8.65     1351.289     67.92695     213.5488        36     2.093     2.042 -39.55   0
        93    690.7034    756.0116 307.6252821  +6.6219730     9499.739      37759.1     50306.43     96.29349     192.4336     385.1356      3.089     8.44     1343.069     67.92695     1262.477       101     2.457     2.153 -46.79   0
        94    255.9108    757.7042 307.8069366  +6.6069556     4574.632     19931.08     29793.22     96.59967     193.1993     385.4039      3.416     9.20      1351.89     67.92695     675.5648       102     2.605     2.365 -10.09   0
        95      7.9483    753.8558 307.9106894  +6.6003473      2499.78     10295.45     13237.29     96.59967     192.7402      383.214      3.143     8.72     1351.874     67.92695     427.0728        67     2.268     2.114  59.34  16
        96    951.8121    735.6202 307.5168286  +6.6389524      777.215     1938.345     2702.543     96.14003     192.3568     385.2506      2.771     4.66     1336.627     67.92695     103.3835         8     1.269     0.486  21.27   2
        97    948.3358    734.7925 307.5183090  +6.6391799     829.0559     1624.165      3060.48     95.98634     192.3568      385.174      3.222     5.94      1336.67     67.92695     140.2631         8     2.126     0.467 -80.31   2
        98    226.5166    730.9523 307.8201132  +6.6170203     7048.664     32590.57     47356.44     96.59967     192.7402     385.4039      3.351     9.17     1349.423     67.92695      1112.17       107     2.531     2.388 -38.90   0
        99    658.0486    727.0893 307.6398904  +6.6328307     2122.321     8957.112      11693.7     96.59967      192.587     385.5188      3.099     8.48     1341.656     67.92695     305.8087        63     2.246     2.084 -27.59   0
       100     66.6911    726.8951 307.8870420  +6.6134119     1015.789     2078.891     2255.993     96.59967     193.3521     385.3272      2.167     7.10     1350.465     67.92695     168.5529        12     1.650     0.857  66.58   3
       101     70.3359    724.2387 307.8856076  +6.6146282      1629.76     4429.108     5487.307     96.59967     192.6636     385.4422      2.807    11.08     1350.207     67.92695     185.4438        38     2.150     1.591  53.11   2
       102    341.2507    719.7397 307.7725369  +6.6254317     1173.129     3102.688     4988.356     96.59967     192.6636     385.3656      3.364    11.11     1348.687     67.92695     154.6361        27     2.432     1.414  65.67   2
       103    306.4200    718.8759 307.7871225  +6.6246391     1154.712     2593.455     3980.115     96.14003     192.4336     385.2889      3.148     7.38     1349.301     67.92695     155.8903        16     1.626     1.193  87.99   2
       104    301.2612    721.0681 307.7892054  +6.6235646     707.3637     1546.153     2319.899      96.7524     192.6636     385.3656      2.578     3.53     1349.597     67.92695     112.7938         5     0.763     0.471  73.46   2
       105    336.7137    721.3622 307.7743790  +6.6246128     865.4289     2224.684     3216.952     96.59967     192.6636     385.3656      3.056     9.79     1348.856     67.92695     121.7876        17     2.425     1.102  80.70   2
       106    949.3119    714.5756 307.5185705  +6.6475517     662.8542      1279.83     1857.986     96.59967     192.5103     385.2123      2.097     3.49     1335.524     67.92695     93.07568         5     1.069     0.330  21.23   0
       107    157.2003    708.0802 307.8498453  +6.6241652     1809.681     5272.289     7391.751     95.67818     191.9727     385.0206      3.003    10.57     1348.906     67.92695     222.9456        45     2.305     1.785  32.48   2
       108    153.2786    710.9712 307.8513877  +6.6228431     987.5611     1776.641     1633.084      96.4467     192.7402     385.3656      1.964     5.46     1349.131     67.92695      170.439        10     1.358     0.620  41.52   3
       109     40.1553    711.6522 307.8986410  +6.6188216     655.9359     1138.942      2230.03     96.59967     192.6636     385.3656      1.536     3.90     1349.319     67.92695     107.2161         6     1.205     0.362 -61.22   0
       110    615.0000    708.0182 307.6585161  +6.6392823     1657.611     3421.215     4523.246     95.98634     192.1264     384.9439      2.496     7.22     1341.623     67.92695     218.7961        16     1.792     0.815  63.95   3
       111    617.7136    705.0097 307.6574819  +6.6406126     1818.353      4865.28     7068.715     96.14003     192.3568      385.174      3.047    12.39     1341.281     67.92695     215.5312        41     2.526     1.691  52.13   2
       112    575.6193    695.3926 307.6753950  +6.6431952     15901.34      33970.6     39039.92     96.14004     192.4336     385.1356      2.380     8.51      1341.93     67.92695     1658.152        55     2.998     1.152 -80.75   3
       113    571.8207    693.9881 307.6770293  +6.6436496     15404.27      35842.3     57135.46     96.14003     192.3568     385.2506      3.786    15.11     1342.006     67.92695     1705.036       131     5.550     1.723 -77.32   3
       114   1021.4478    704.0560 307.4887684  +6.6542540     2707.891     6301.209     7038.265     96.59967     186.1149     330.6808      2.372     6.08     1333.337     67.92695     336.7708        39     1.834     1.435 -66.95  24
       115    297.3705    699.2993 307.7915572  +6.6324159      1165.93     3688.449     5612.773     96.59967     192.4336     385.4039      3.385    10.09     1347.502     67.92695     148.6492        28     2.240     1.266  27.21   2
       116    255.3399    689.5370 307.8094489  +6.6350556     1133.094     2217.197       3663.6     96.59967     192.6636     385.4039      2.617     9.94      1346.41     67.92695     163.5227        20     2.872     0.958 -50.88   2
       117    251.3586    687.5180 307.8111801  +6.6357570     1117.767     2576.373     4047.411     96.59967     192.7402     385.2889      2.916    10.18       1346.2     67.92695     160.0122        20     2.325     1.242 -67.78   3
       118    639.3997    678.2153 307.6493084  +6.6523787     998.8376     2623.768      4512.72     96.14004     192.3568     385.0589      3.242     8.32     1338.367     67.92695     179.0372        16     1.698     1.139  29.60   2
       119    380.3833    669.7762 307.7578467  +6.6473322     1125.727      3689.19     6054.129     96.29349      192.587     385.2889      3.487    10.32      1344.35     67.92695     165.4381        30     2.364     1.395  30.65   2
       120    854.3528    665.3226 307.5598925  +6.6647561     1198.698     2102.132     3068.017      96.4467     192.8168     385.3272      2.436     6.67     1333.366     67.92695      200.282        12     1.614     0.774 -65.42   3
       121    850.4031    664.8655 307.5615585  +6.6648151     1335.727     2781.271     4344.038     95.67819     192.4336     385.0973      3.097     9.02     1333.398     67.92695     160.8141        20     2.096     1.083 -75.60   2
       122    831.5957    664.6486 307.5694267  +6.6642876     624.2328     1243.001     2356.661     95.83239     192.5103     384.9439      2.569     3.93     1333.541     67.92695     83.82251         5     1.041     0.426  75.12   0
       123     92.3127    658.4001 307.8786231  +6.6425129     1046.014     2401.309     4324.852     95.67819     192.1264     384.9439      3.096     9.35     1345.106     67.92695     142.5795        17     2.058     1.187  64.06   2
       124     88.0089    660.2861 307.8803587  +6.6415926     639.2661     1766.789     3004.316     96.14003     192.3568      385.174      2.955     3.88     1345.272     67.92695     142.1377         5     1.102     0.494 -28.65   3
       125    241.9852    658.2088 307.8160754  +6.6475376     533.9878     732.0576     1194.427     96.29349     192.4336     385.2123      1.341     3.75     1343.954     67.92695     98.86914         5     0.813     0.496 -59.95   0
       126    776.7521    652.2711 307.5927606  +6.6675935     1572.792      3110.54     4201.208     96.59967     192.6636     385.4039      2.197     6.80     1333.369     67.92695     192.3352        17     1.623     0.800 -77.20   3
       127    772.1736    653.7817 307.5946242  +6.6668200     1631.047     2560.234      3031.73     96.14003     192.5103     385.2506      1.772     5.92     1333.597     67.92695     234.0569        15     1.573     0.680  32.64   3
       128    772.9703    650.2377 307.5944088  +6.6683081     2051.673     3863.127     5107.013     96.14003     192.4336     385.2123      2.199     5.66     1333.317     67.92695     253.0131        23     1.485     1.207 -41.13   3
       129    717.9126    651.2301 307.6173887  +6.6660906      1144.69     3365.623     5454.119      96.7524     192.5103     385.2506      3.836     9.67     1334.604     67.92695     163.0902        25     2.147     1.214 -81.23   2
       130     15.1187    648.8849 307.9112030  +6.6438840     1070.987     2463.256     4082.511     96.29349     193.1229     385.4422      2.539     7.05     1346.046     67.92695     153.7875        15     1.628     0.855  31.48   2
       131    714.6620    638.0862 307.6191838  +6.6714058     733.2887     1810.946     3161.297      96.7524     192.9699     385.3656      2.577     5.87     1333.991     67.92695      114.806         8     1.640     0.591  34.40   0
       132     40.9620    633.8973 307.9009034  +6.6509215      2505.87     10272.49     14561.58     96.59967      192.587     385.5571      3.252     8.70     1345.229     67.92695     366.6344        74     2.320     2.220 -82.65   0
       133    372.8744    632.5652 307.7622249  +6.6624342      876.288     1617.068     3174.356      96.4467     192.8168     385.3272      3.451     5.79     1341.887     67.92695     136.9718         9     1.288     0.733 -80.69   0
       134    586.0000    624.9961 307.6733966  +6.6725759      4909.07     9635.027     13402.53     95.67819     192.1264     385.0206      2.419    10.38     1337.327     67.92695      558.019        38     2.911     1.032 -60.34   3
       135    582.7194    623.2650 307.6748254  +6.6731820      4962.59      12068.4     17731.23     96.90488     192.8168     385.3272      2.930    12.36     1337.337     67.92695     523.0458        53     2.979     1.427 -60.36   3
       136    480.4783    623.1821 307.7175624  +6.6698508     1220.434     2986.564     4568.239     95.98634     192.3568     385.2889      2.721     7.43      1339.18     67.92695     156.5134        16     1.673     0.925  53.40   3
       137    484.6592    620.2206 307.7159135  +6.6712101     1341.927     3778.973     5790.946     96.14004      192.587      385.174      3.341    11.46     1338.937     67.92695      169.918        31     2.643     1.383  76.98   2
       138    208.0039    615.4006 307.8317065  +6.6640736     1972.151     4155.537     6937.491     95.83238     192.2033     385.0589      2.897     5.81     1341.473     67.92695     247.4526        21     1.420     1.116 -42.50   3
       139    207.6876    620.9735 307.8316527  +6.6617644     2026.818     4465.405     7700.736      96.7524     192.5103     385.2506      4.992     7.96     1341.858     67.92695     259.0947        20     1.915     0.926  36.75   3
       140    212.0926    617.7566 307.8299189  +6.6632368     2877.873     5921.341     7120.371     96.59967     192.7402     385.5188      2.966    12.06     1341.601     67.92695     349.7657        37     2.841     1.426 -51.62   3
       141    198.8574    620.4120 307.8353620  +6.6617043     638.8609      1965.29     5341.981     95.83238      192.587     385.0206      5.201     7.40     1341.941     67.92695     112.5636         8     1.963     0.781 -71.81   2
       142    388.8409    617.3251 307.7560591  +6.6692472     4449.506     22507.82     34157.21      96.4467     192.7402     385.4039      3.458    10.18     1340.437     67.92695     699.2899       101     2.615     2.416 -36.33   0
       143    568.6312    613.2869 307.6810458  +6.6768345     1025.629      2822.75     5335.866      96.7524     192.4336     385.2889      3.932     7.23      1337.34     67.92695     137.3712        14     1.311     1.118  18.49   2
       144    196.2804    612.1215 307.8367159  +6.6650390     865.6277     2409.263      5399.89     96.90488     193.0464     385.5571      4.954     8.89     1341.467     67.92695     177.1996        16     2.082     1.060 -39.54   2
       145    127.1473    600.2033 307.8660085  +6.6676705     2092.434     10579.16     14930.35     95.83238     192.5103     384.8672      3.310     9.43     1341.437     67.92695     421.7458        77     2.490     2.246 -52.25   0
       146    871.3076    598.8601 307.5550088  +6.6927290     1164.307     2889.346     3302.989      96.4467     192.6636     385.4805      2.347     7.46     1328.164     67.92695     151.8403        22     1.814     1.138  11.99   3
       147    872.1598    595.3434 307.5547692  +6.6942076     1413.275     3200.762     4131.378     96.59967     192.8168     385.4039      2.385     8.94     1327.878     67.92695     171.4226        25     2.251     0.992  27.45   2
       148    471.4011    596.3932 307.7222482  +6.6806023      606.065     1973.145     2721.879     95.83239     192.3568     385.1356      2.944     8.02     1337.279     67.92695     106.0194        10     2.384     0.753  23.63   0
       149    935.6613    593.3565 307.5282912  +6.6971092     733.8695     2127.184     2813.801     96.59967     192.7402     385.5188      2.796     8.07     1327.202     67.92695     118.8859        10     1.854     0.982 -83.88   0
       150    659.3651    590.9285 307.6438634  +6.6890417     1483.915     2915.912     4266.723      96.4467     192.6636     385.3656      2.350     7.35     1333.249     67.92695     207.7712        17     1.991     0.760 -72.77   3
       151    654.7421    592.2206 307.6457528  +6.6883567     1837.161     3646.572     5219.954     96.14004      192.587     385.1356      2.336     7.37     1333.391     67.92695     226.5024        20     1.717     0.886  29.27   3
       152    655.1862    588.2104 307.6457004  +6.6900256     2190.255     4353.758     5692.804     96.14003     192.4336     385.2889      2.220     9.93     1333.125     67.92695     250.6359        26     2.096     1.311 -33.66   3
       153    574.8385    589.7056 307.6792353  +6.6867663     911.4822     2859.566     4132.039      96.7524      192.587     385.5188      3.119     9.76      1335.26     67.92695     136.1534        18     2.519     1.055  76.33   2
       154    579.3799    587.5927 307.6774074  +6.6877873     950.9901     2145.225     2798.898     96.14004     192.4336     385.1356      2.271     6.38     1334.962     67.92695     114.7769        10     1.523     0.751  35.03   2
       155    377.4194    589.2137 307.7617696  +6.6804667     1188.989     2025.739     2319.778     96.29349     192.4336     385.2506      1.830     6.44     1338.291     67.92695     154.0767        13     1.298     0.897   9.39   3
       156    379.4258    584.9023 307.7610747  +6.6823113     2023.163     3784.396     4447.181      96.7524     192.4336     385.2506      2.017     6.20     1337.867     67.92695     232.1171        26     1.600     1.158  70.95   3
       157    374.8788    584.0995 307.7630020  +6.6824925     1648.105     3928.708       6084.2     96.29349     193.0464     385.4039      2.816     9.35     1337.868     67.92695     235.4772        30     2.330     1.048 -74.01   3
       158    273.6327    580.8679 307.8054282  +6.6804853     2265.793     12440.09     19982.04      96.4467     192.7402     385.3656      3.586    10.91     1338.431     67.92695     381.4957        92     2.552     2.468 -44.62   0
       159     49.7641    582.6110 307.8989393  +6.6723679     721.4442     1641.263     2905.486     95.98634     192.5103     385.0973      3.143     3.88     1342.257     67.92695     104.1154         8     0.980     0.804 -79.90   2
       160    600.4020    573.9085 307.6690752  +6.6941237     2192.559     10955.38     17791.53     95.67818     192.3568     385.0589      3.814    15.95     1333.261     67.92695     306.9641       104     3.838     2.246 -76.59   3
       161    592.0849    569.3762 307.6727024  +6.6957197     1905.582     9158.617     14577.19     96.59967     192.4336     385.2123      3.556    13.32     1333.091     67.92695      330.225        88     3.105     2.280 -38.78   3
       162    342.1097    577.7967 307.7769088  +6.6840117     853.6987     1349.586     3101.447     95.98633     192.3568     385.0589      4.702     5.78     1337.872     67.92695     118.1963         8     1.129     0.833 -10.28   0
       163    198.4097    573.8088 307.8371049  +6.6809131     1427.889     3023.497     5234.923     95.98634     192.5103     385.2506      2.871     7.12      1338.67     67.92695     174.4818        19     1.731     0.820  40.06   3
       164    202.2593    570.3729 307.8356105  +6.6824576     2225.989     6356.013      10286.1     96.14004     192.8168      385.174      4.081    11.01     1338.189     67.92695     253.0546        54     2.449     1.796  38.04   2
       165    360.0000    567.0587 307.7697889  +6.6890312     1559.426     2676.054     3657.013     95.67819     192.2801     384.9439      1.827     5.36     1336.583     67.92695     204.4294        14     1.343     0.748  87.24   3
       166    360.2664    571.8559 307.7695177  +6.6870612     1916.984     4082.392     4420.797      96.7524      192.587     385.3272      2.087     8.38     1337.065     67.92695     227.0831        24     2.138     0.917  48.48   3
       167    364.6199    568.8248 307.7677990  +6.6884551     2249.557     5391.009     6688.074     96.14003     192.5103     385.2889      2.562     8.69     1336.667     67.92695     239.8389        37     2.072     1.354  84.21   3
       168    623.7368    567.0444 307.6595495  +6.6977226     5120.919     16617.65     29063.02     96.59967     192.6636     385.4039      3.665     9.77     1332.277     67.92695     536.1887       109     3.108     2.261 -46.50   2
       169    628.0000    565.9886 307.6578026  +6.6982984     2869.653      4280.93     4840.366     95.98634     192.2801     385.0973      1.563     5.82     1332.138     67.92695      416.642        11     1.739     0.548 -85.60   3
       170     10.0630    562.5817 307.9162025  +6.6793158      1098.61     3154.858     5062.914     96.14003     192.6636     385.2123      3.322     9.36     1341.313     67.92695     140.8322        23     1.895     1.289  51.61  16
       171     97.6846    563.3118 307.8795554  +6.6819138     1033.462     2316.775     4288.531     96.29349     192.9699     385.4805      3.294     6.13      1340.04     67.92695     145.5486        11     1.560     0.677  53.04   3
       172    100.3448    563.3229 307.8784432  +6.6819972     840.8495     1611.479     4552.305     96.59967     192.7402     385.3656      1.223     3.40     1340.032     67.92695     155.0206         5     0.983     0.340 -66.68   3
       173    101.5658    559.6428 307.8780558  +6.6835556     1761.155      3703.88     6218.708     96.29349     192.7402     385.1356      3.505     9.72     1339.908     67.92695     198.5001        25     1.865     1.414  36.37   2
       174    744.8168    547.7355 307.6095787  +6.7096670     685.6215     1422.684     2429.079     95.98634     192.6636     385.2123      2.095     2.94     1327.707     67.92695     147.0854         5     0.962     0.356  84.90   2
       175    741.0297    545.2836 307.6112432  +6.7105541      860.326     2223.818     3401.229     96.59967     192.5103     385.2506      3.255    11.43     1327.679     67.92695      121.191        16     2.511     1.449 -61.63   2
       176    565.9636    544.7831 307.6844390  +6.7050051         2958     6784.504     7816.649     95.98633     192.5103     385.0973      2.280     8.34     1331.612     67.92695     309.5769        37     2.125     1.179  25.65   3
       177    569.7787    541.4969 307.6829535  +6.7064862     3285.667     6589.417     7404.459      96.4467     192.5103     385.1356      2.112     6.30     1331.156     67.92695     383.8751        29     1.821     1.081  63.38   3
       178    565.6199    540.2182 307.6847344  +6.7068768     3032.249     4534.781     4858.126     96.29349     192.6636     385.2889      1.645     4.23     1331.113     67.92695     317.6122        17     1.149     0.978  86.70   3
       179    705.2269    535.2984 307.6265408  +6.7134969     1638.244     3602.306     7226.455      96.7524     192.4336     385.3272      4.556    14.53     1328.016     67.92695     196.8126        42     3.017     1.945 -84.23   2
       180    709.3281    536.6963 307.6247800  +6.7130550     1274.236     2078.097     3616.023      96.4467     192.9699     385.3272      2.141     5.80      1328.06     67.92695     150.2025        11     1.057     0.897 -72.11   3
       181    196.4107    532.2059 307.8393293  +6.6980081     3136.465     6789.224     11325.84     96.14004     192.5103     385.2506      3.212    13.94      1335.76     67.92695     334.3379        58     3.393     1.594 -43.60   3
       182    192.9548    529.7648 307.8408553  +6.6989009     2518.444     5906.416     7974.325     96.29349     192.6636     385.2506      2.525     9.62     1335.777     67.92695     294.8719        28     2.393     1.079 -43.25   3
       183    444.4062    524.9991 307.7359088  +6.7091633     1830.154     4061.045      5546.87     95.83238     192.3568     385.1356      2.411     7.83     1331.528     67.92695     230.0457        22     2.254     0.761  20.83   3
       184    447.5565    521.5494 307.7347069  +6.7106902     2198.508     4043.138      5242.75      96.7524     192.7402     385.4039      2.222     5.53     1331.226     67.92695     243.5527        21     1.614     0.874 -74.87   3
       185    443.4711    519.8130 307.7364724  +6.7112718     2201.056     4866.715     6307.072     95.98634     192.4336     385.2123      2.332     6.36     1331.084     67.92695     250.2603        24     1.577     1.106 -35.44   3
       186    153.1796    517.2893 307.8578974  +6.7027325     2407.856     8929.394     14519.03      96.4467     192.4336      385.174      3.465    11.10     1336.285     67.92695     368.4771        76     2.633     2.442 -65.17   2
       187    295.0836    513.6704 307.7987034  +6.7089122     995.8502     2707.978     5560.178     96.90488     193.0464     385.4039      3.881     7.21     1332.503     67.92695     137.3684        14     1.584     0.920 -83.07   2
       188    797.4670    509.3485 307.5888438  +6.7272309     1004.165     2706.569     5159.927      96.4467     192.6636     385.3656      4.010     9.95     1323.426     67.92695     160.7014        18     1.807     1.527  68.03   2
       189    740.9185    508.5550 307.6125090  +6.7257014     1319.267     2662.676     3869.477     96.59967     192.7402     385.3272      2.389     7.07     1324.623     67.92695     198.8867        13     1.807     0.774 -16.50   3
       190    739.1635    506.1665 307.6133219  +6.7266291     1424.747     2756.678         3936     96.29349     192.4336     385.0589      2.432     5.67     1324.408     67.92695     187.9557        14     1.465     0.711 -59.40   3
       191    742.8029    503.7765 307.6118799  +6.7277345     1503.727     3799.571     5970.729     96.14003     192.3568     385.1356      2.721     9.22      1324.16     67.92695     214.3445        27     2.274     1.044  30.86   3
       192    261.3871    506.2683 307.8130354  +6.7108533     708.6633     2169.708      3526.31     95.98634      192.587     385.2506      2.709     7.88     1332.513     67.92695     123.6265        13     2.401     0.723  46.16   0
       193    356.4235    501.6113 307.7734653  +6.7159104     1099.296     3707.276     5910.569     96.14004     192.5103     385.2889      3.402    11.28     1330.135     67.92695     139.2065        26     2.392     1.481 -61.18   2
       194    842.5325    493.8783 307.5705182  +6.7350915     1548.078     4301.572     9383.435      96.7524     192.8168     385.3272      4.356    13.40     1321.114     67.92695     187.0358        38     2.993     1.670  50.53   2
       195    474.8237    494.9206 307.7241955  +6.7225730     5069.017     12792.61     14803.99     96.14003     192.4336     385.3272      2.507     9.04     1328.407     67.92695      548.092        46     2.217     1.332  29.31   3
       196    479.3900    492.2047 307.7223772  +6.7238437     5625.605     10399.08      12284.2     95.98634     192.4336     385.2123      2.009     5.79     1328.061     67.92695     618.1862        28     1.736     1.064  84.17   3
       197    475.3702    490.1965 307.7241243  +6.7245397     5138.145     9907.706      11452.7     95.98634     192.5103      385.174      2.108     6.17     1327.923     67.92695     551.8007        27     1.720     1.075  -7.33   3
       198    618.1686    492.1935 307.6643651  +6.7284162     696.3848     1356.075     2774.236     95.83238     192.5103     385.0973      1.747     3.75     1325.247     67.92695     92.41101         5     1.190     0.340 -10.17   0
       199    771.6395    484.6390 307.6004605  +6.7365759     10682.19        47551     69441.77     96.29349     192.7402     385.2123      3.347     9.34     1322.258     67.92695     1303.611       126     2.609     2.434 -24.03   0
       200    812.5387    479.7878 307.5835241  +6.7399198     694.5349     1542.435     3279.741     95.98634     192.5103     385.0589      2.461     3.03     1321.188     67.92695      131.696         5     0.726     0.467  71.58   0
       201    777.6863    464.5506 307.5985994  +6.7450612     1046.645     2663.154     5239.819     96.59967     192.6636     385.4422      4.650    12.82     1320.311     67.92695     174.4775        27     2.983     1.603  85.22   2
       202    175.0627    464.8060 307.8505033  +6.7251048     3507.368     13514.63     21519.53     95.83238     192.4336     385.0973      3.474    10.77     1331.156     67.92695     505.4957        87     2.639     2.457  71.34   2
       203    170.7610    466.0553 307.8522597  +6.7244473     2831.381     3992.117     5295.578     96.59967     192.8168     385.3656      1.503     5.21     1331.277     67.92695     362.0555         9     1.118     0.689 -87.49   3
       204    940.9974    463.2464 307.5303711  +6.7509566     12229.28     48905.59     62838.66     95.83238     192.3568     384.9055      2.999     8.13     1315.414     67.92695     1706.041       105     2.405     2.114 -52.82   0
       205    222.2015    462.1819 307.8308865  +6.7277447      1499.39     3570.232      5313.59     96.14003     192.2033     385.0206      3.080     8.02     1330.285     67.92695        202.4        25     1.995     0.979 -62.36   3
       206    224.9980    467.3401 307.8295453  +6.7257093     1392.938     3038.177     3625.698     95.83238     192.3568     385.0206      2.495     4.91     1330.704     67.92695     179.2094         9     1.285     0.531 -28.32   3
       207    227.3287    463.5606 307.8286972  +6.7273453     1850.347     4176.868     6311.573      96.4467     192.7402     385.4422      3.048     8.11     1330.381     67.92695     224.2262        24     1.852     1.312  88.93   3
       208    813.0626    462.6307 307.5838743  +6.7470144     2237.387       7265.1     9725.249     96.29349     192.8168     385.3272      2.973     8.95     1319.554     67.92695     271.9829        55     2.414     1.679 -86.62   2
       209    817.2284    461.6416 307.5821656  +6.7475592     1667.193     2822.667     3547.042     96.14004     192.6636     385.2123      1.750     5.42     1319.322     67.92695     246.5276        11     1.459     0.568  82.31   3
       210    681.2380    461.3795 307.6390241  +6.7432008     814.1911     1968.969     4163.272     96.14004     192.4336     385.0206      2.731     5.35     1321.565     67.92695     121.7666         7     1.209     0.668  75.00   0
       211    966.4850    458.5261 307.5198723  +6.7537390     796.9434     2019.243     3019.487      96.7524     193.1229     385.4039      3.071     7.65     1314.881     67.92695     107.5465        12     2.136     0.767 -74.56   2
       212    963.0347    457.5095 307.5213484  +6.7540453     1186.229      2838.07     3646.593      96.7524      192.587     385.3656      2.780     8.45     1314.776     67.92695     160.6302        21     1.937     1.030 -79.77   2
       213    249.6754    453.7007 307.8196851  +6.7321505     2916.927     16542.73     27043.62     95.98634     192.8934     385.2506      3.647    12.35     1328.946     67.92695     621.0908       105     2.694     2.552 -33.36   0
       214    673.3151    449.5063 307.6427307  +6.7478382     1755.996     3943.472     5583.574      96.4467     193.2757     385.4805      2.991     8.38     1320.394     67.92695      221.002        25     1.835     1.229 -86.79   3
       215    668.8212    452.2399 307.6445185  +6.7465628     1616.758     3223.802      4276.88     96.14003     192.5103     385.1356      2.193     5.92     1320.681     67.92695     207.0764        17     1.486     0.912  36.59   3
       216    668.7417    447.7374 307.6447013  +6.7484176     1426.685     2555.659      3644.63      96.7524     192.6636     385.4039      2.282     8.07     1320.189     67.92695     171.9777        20     2.190     0.831 -48.76   3
       217   1015.3461    449.1013 307.4997578  +6.7592275     1444.381     4964.431     5964.989      96.4467     192.7402     385.6337      2.796     8.98     1313.631     67.92695     209.3164        40     2.081     1.681 -49.41  16
       218    846.5251    441.8029 307.5705762  +6.7567043     760.0814     1567.133     3431.438     95.98634     192.1264     385.2506      5.855     8.89     1316.471     67.92695     109.7943         8     2.118     1.042  77.31   2
       219    845.1724    439.0000 307.5712347  +6.7578161     678.9183     1645.101     3500.751     95.98634     192.2801     385.0973      3.388     4.50     1316.258     67.92695     133.8014         6     0.968     0.594  84.09   3
       220    849.3049    437.7988 307.5695469  +6.7584472     812.0915      1840.86     3221.639     95.98634     192.3568     384.9055      2.733     4.39     1316.043     67.92695     115.8231         5     1.286     0.426  30.11   0
       221   1023.5079    428.4702 307.4970287  +6.7680053     1050.072     1769.384     1544.352     86.60619     156.1788     293.1927      1.699     5.41     1311.289     67.92695      176.552        12     1.655     0.499 -88.66  24
       222    727.8562    424.8780 307.6207479  +6.7597899     1092.544     2695.353     4634.987     96.59967     192.7402     385.3656      3.742     8.90     1316.473     67.92695     176.1212        19     2.017     1.096  83.04   2
       223    723.3290    428.0983 307.6225336  +6.7583128     1011.271     2137.588     4249.468      96.4467     192.9699     385.3656      4.067     7.15     1316.876     67.92695     148.6553        11     1.834     0.782  34.15   2
       224    896.0119    425.2752 307.5504359  +6.7651453     1533.973     2574.892     3666.185     96.14003     192.3568     385.1356      1.823     5.17     1312.768     67.92695     190.9371        15     1.302     0.818  59.54   3
       225    899.9987    423.2457 307.5488365  +6.7661133     1251.913     2795.741     3935.839     95.83238     192.3568     384.8672      2.553     8.36     1312.351     67.92695     161.8735        21     1.907     1.024 -87.25   3
       226    896.1496    421.5880 307.5505006  +6.7666709     1413.488     2328.897     3422.988     95.83238      192.587     385.0206      1.931     3.96     1312.462     67.92695     191.7129        13     1.094     0.841 -28.01   3
       227    578.6055    423.8528 307.6831763  +6.7553056     2830.679     5873.434     6752.573     95.98634     192.4336     384.9822      2.182     7.24     1318.814     67.92695     333.0265        28     1.814     1.228  63.82   3
       228    584.3074    422.8234 307.6808269  +6.7559178     2933.297     6714.236     8511.178     96.59967     192.5103      385.174      2.463     8.78     1318.662     67.92695     320.2332        37     2.221     1.107 -67.73   3
       229    580.1617    420.2121 307.6826468  +6.7568586     2789.553     5349.279      6695.89     96.14003     192.5103     385.0206      2.124     6.17     1318.381     67.92695     329.2554        22     1.560     1.008 -13.77   3
       230    701.9429    421.6547 307.6316882  +6.7602681     844.2897     1557.457     3503.831      96.7524     192.8168     385.4039      4.191     5.59     1316.503     67.92695     106.0378         8     1.007     0.874 -79.63   0
       231    101.3747    416.0272 307.8829355  +6.7427894     873.6759      1780.21     3653.468     95.98633     192.5103     385.2123      2.701     6.26     1331.362     67.92695     120.7693         9     1.325     0.831 -14.01   3
       232    105.5674    418.1734 307.8811112  +6.7420428     1066.637     2451.356     4183.036     95.98634     192.4336     385.1356      2.777     6.90     1331.173     67.92695     165.2161        15     1.931     0.690 -78.36   2
       233    229.7739    414.8600 307.8293007  +6.7475148     1144.977     3014.949     3790.342     96.14003     192.7402     385.2123      2.745     7.62     1325.942     67.92695     172.6538        17     2.116     0.767 -57.90   3
       234    232.3562    418.9903 307.8280834  +6.7458964     1315.392     2779.845     3932.882     95.98633      192.587     385.0206      2.296     7.26     1326.141     67.92695     157.6316        19     1.846     0.799 -12.85   3
       235    234.7106    414.9865 307.8272328  +6.7476257     1562.581     2896.401     4259.837     96.29349     192.4336     385.2123      2.335     6.05     1325.837     67.92695     160.8829        19     1.262     1.164  60.58   3
       236     66.7164    412.5529 307.8975394  +6.7430759     1058.728     2357.766     4554.484     96.59967     192.7402     385.4039      3.122     5.72     1331.549     67.92695     165.9946        10     1.262     0.730  38.17   2
       237    620.1380    414.2305 307.6661337  +6.7606412     695.8174     1301.508     2074.672     96.29349     192.8168     385.3272      2.886     5.67     1317.289     67.92695     119.8054         7     1.135     0.831  56.82   0
       238    267.3249    414.1246 307.8136278  +6.7490582     1039.239     2590.805     4550.164     96.90488     193.0464     385.4805      3.335     8.51     1325.108     67.92695     144.2356        19     2.063     0.981  26.72   2
       239    270.4155    410.2511 307.8124651  +6.7507581     1082.274     2403.058     4049.381     95.83238     192.8168     385.0206      2.700     7.45     1324.786     67.92695     143.3235        12     1.991     0.781  60.05   2
       240    610.7740    405.0087 307.6703549  +6.7641372     735.5031     1449.511     2226.778     96.14003     192.5103      385.174      2.354     4.30     1316.589     67.92695     89.74792         5     1.057     0.497  52.99   0
       241    571.1730    391.6002 307.6873563  +6.7683653     1062.561     2985.178     4998.394     96.14003     192.3568     385.1356      3.317    12.91     1315.611     67.92695     145.1816        24     2.961     1.566  21.02   3
       242    570.0000    402.0172 307.6875002  +6.7640297     4327.063     9120.061     10202.52     95.98634     192.1264     384.9439      2.193     8.23     1316.626     67.92695     485.8947        26     1.871     1.012  65.03   3
       243    575.6183    400.2551 307.6852100  +6.7649414     4628.142      10251.3     14218.94     95.98634     192.7402     385.0973      2.708    10.75     1316.377     67.92695     535.7212        47     2.739     1.176 -70.92   3
       244    571.4692    398.3134 307.6870092  +6.7656059     5026.595     11310.53     14504.24      96.7524     193.0464     385.4039      2.509     5.80     1316.215     67.92695     551.9011        35     1.755     1.388 -14.60   3
       245    525.4679    399.1519 307.7062123  +6.7637458     3913.134     20932.05     33786.08     96.59967     192.6636     385.3656      3.599    12.12     1317.086     67.92695     573.3794       102     2.666     2.490 -56.33   0
       246    449.7621    395.7891 307.7379731  +6.7626393     1926.781     7540.701      10978.2     95.83238     192.5103     384.9822      3.250    13.21     1318.429     67.92695     275.4708        59     2.665     1.915 -88.16   3
       247    454.3474    395.5512 307.7360641  +6.7628885     2467.369     4540.076     5666.927      96.7524      192.587     385.3656      2.204     5.92     1318.376     67.92695     303.3215        23     1.851     0.848 -81.09   3
       248    383.1342    389.5886 307.7660333  +6.7630006      719.812     2589.113      4293.62     95.98634     192.5103     385.2123      3.606     8.56     1319.575     67.92695     131.8019        11     2.408     0.850  87.68   2
       249    358.0407    379.4403 307.7768619  +6.7663591     2492.787     8919.703     13871.97     96.29349     192.7402     385.2123      3.333    12.57     1319.479     67.92695     362.3104        69     2.788     2.170 -20.91   2
       250    356.3758    374.9915 307.7777062  +6.7681393     2506.627     4314.826     5296.003     96.14003     192.5103      385.174      1.951     6.72     1319.209     67.92695     310.4171        18     1.616     0.783  13.49   3
       251    656.6175    380.6619 307.6519989  +6.7756881     580.6788     1346.821     1847.156     96.14004     192.6636      385.174      2.228     4.16     1313.662     67.92695     98.30225         5     1.052     0.470   3.09   0
       252    523.6868    380.2323 307.7075865  +6.7714915     716.5298     1632.675     3982.491     96.59967     192.5103     385.3656      4.204     5.21     1315.192     67.92695     103.2985         5     1.045     0.733  13.50   0
       253    819.6359    370.4447 307.5841849  +6.7852579     5013.546      11101.6     13109.84     96.29349     192.6636     385.2506      2.337     6.77     1311.024     67.92695      564.698        39     2.133     1.160  85.82   3
       254    814.7626    372.0279 307.5861698  +6.7844449     5312.069     11525.17     13008.89     95.98633     192.3568     385.1356      2.196     9.00     1311.337     67.92695     589.3411        32     1.988     1.137  44.14   3
       255    815.5115    368.5341 307.5859726  +6.7859107     5091.229      7108.26     7890.664     96.59967     192.9699     385.3272      1.562     3.73     1311.058     67.92695     635.3634        18     1.133     1.001  52.85   3
       256    965.0315    361.1757 307.5237049  +6.7938497      2064.38     5480.937     6647.841     95.98634      192.587     385.1356      2.635     8.58     1306.606     67.92695     286.7809        35     2.289     1.330  86.63   3
       257    968.6245    359.8826 307.5222455  +6.7945009     1771.276      3142.01     4094.396      96.4467     192.4336     385.2889      2.049     5.13     1306.497     67.92695     223.8135        17     1.437     0.897  76.85   3
       258    646.7116    362.7599 307.6567353  +6.7827471     718.5585         1870     3026.227     96.59967     192.6636     385.4039      3.163     7.91     1312.196     67.92695     109.3064        12     1.701     1.029 -75.44   0
       259   1006.9807    361.7758 307.5061466  +6.7949765     1069.739     2727.062     4334.962     96.29349     192.5103     385.2889      3.194     7.81     1306.189     67.92695     153.0581        15     1.369     1.248  41.65   2
       260    377.2326    354.3471 307.7696751  +6.7773430     693.1627     1755.729     2794.505      96.4467     192.7402     385.2506      2.814     3.67     1317.045     67.92695     123.1776         5     0.989     0.391  85.47   2
       261    797.4197    353.8668 307.5940231  +6.7913672     1084.555     2866.226      3928.26     96.14003     192.7402     385.2506      2.849    10.15     1310.313     67.92695     171.9102        23     2.819     1.020 -82.58   2
       262    800.6715    355.6828 307.5926033  +6.7907248     1010.965     1521.565     2208.224     96.90488     193.1229     385.4039      1.854     4.93     1310.424     67.92695     143.5515         8     1.104     0.623 -47.36   3
       263    802.7554    352.7689 307.5918288  +6.7919953     1042.379     1990.057     2905.531     96.14004     192.8168     385.2123      2.204     8.26     1310.116     67.92695     137.7948        17     1.977     0.963  60.53   3
       264    752.7923    347.4018 307.6128957  +6.7925687     1162.451      2590.37     3113.332     95.83238     192.3568     385.1356      2.352     8.10     1310.321     67.92695     155.5408        16     1.596     1.265 -70.25   3
       265    748.0796    349.0497 307.6148112  +6.7917341     1296.224     2475.301     4287.685     96.59967     192.8168     385.3656      2.453     6.47     1310.563     67.92695     175.3818        15     1.704     0.690  48.99   3
       266    747.9907    345.5313 307.6149652  +6.7931825     1124.352     2335.024     3938.208     95.98633     192.5103     385.2123      2.580     5.74     1310.304     67.92695      139.774        10     1.328     0.698 -43.06   3
       267    105.6437    338.3998 307.8837458  +6.7749510     4716.668     29371.61     46714.79     95.67819     192.2801     384.9055      3.598    11.57     1329.339     67.92695     1032.891       114     2.706     2.552 -67.59   0
       268      3.4675    333.3704 307.9266279  +6.7736441     1030.457     2466.853     2775.797     96.29349     185.3995     329.3385      2.546     6.79     1333.852     67.92695     132.9355        14     1.698     0.761  54.47  26
       269    685.8790    332.8778 307.6413534  +6.7963613     810.7327     1826.687     2872.732     96.90488     193.0464     385.5188      2.729     6.33     1309.349     67.92695      98.1488        10     1.485     0.758  12.35   0
       270    657.2302    327.4784 307.6535104  +6.7976467     1014.727     2476.735     4054.227      96.4467     192.8168     385.3272      3.449     7.81     1308.761     67.92695     133.1958        14     1.576     1.084   2.35   2
       271    660.1110    323.6139 307.6524345  +6.7993356     980.1879     1801.557      3230.84     96.29349     192.5103     385.2123      2.129     5.24     1308.465     67.92695     140.2235        10     1.342     0.772 -69.39   3
       272    655.9045    322.0000 307.6542468  +6.7998630     919.2595         2147     3378.429     95.98634     192.2801     384.8672      2.643     4.73     1308.268     67.92695     147.1963         7     1.056     0.601  -1.90   3
       273    741.3062    318.4077 307.6186607  +6.8041516     983.9127     3843.862     5408.502     96.14004     192.3568     385.0973      3.274    11.51     1307.993     67.92695     192.1099        29     2.465     1.496 -76.79   2
       274     39.2117    320.6813 307.9121099  +6.7800615     2506.918     2896.572      3142.55     96.14004     192.4336      385.174      1.127     4.04     1332.857     67.92695     601.8497        11     1.186     0.506  -5.09   0
       275    319.3935    303.8761 307.7955386  +6.7962540      2867.89     17893.09     30920.14     96.14003     192.1264      385.174      3.749    11.58     1316.224     67.92695     643.3075       105     2.697     2.625 -20.25   0
       276     86.6154    302.1416 307.8929128  +6.7892776     719.8839     1894.593     2713.869     95.83238     192.6636     385.0589      2.838     8.72      1330.53     67.92695     119.5763        15     2.835     0.748 -44.51   0
       277    412.0521    296.7916 307.7570365  +6.8022327     3743.377     21873.07     37328.31     95.98633      192.587     385.0206      3.704    12.15     1312.499     67.92695     684.9989       116     2.838     2.547 -47.50   0
       278   1008.6255    295.2819 307.5076609  +6.8224600     774.4567     1936.167     3014.625      96.4467     192.4336     385.3656      2.599     4.21     1299.898     67.92695     127.0247         5     1.048     0.482 -87.49   0
       279    142.5827    285.9895 307.8700550  +6.7977913      10874.6     64069.31     105610.6     96.29349     192.3568     385.2123      3.650    11.06     1327.252     67.92695     2158.059       140     2.790     2.627 -58.83   0
       280     22.5713    285.1940 307.9202537  +6.7941486     4292.025     24535.43      38597.4     95.98634     192.5103     385.1356      3.537    10.88     1335.615     67.92695     909.0583       106     2.655     2.513 -67.44   0
       281    631.6081    286.4436 307.6655870  +6.8137312     900.8649      1791.01     4203.616     95.98634     192.5103     385.0589      4.245     5.53     1304.754     67.92695     97.73657         8     1.043     0.825  20.63   0
       282    784.6586    281.9252 307.6017464  +6.8206247     687.0457     2035.856     3161.221      96.7524     192.7402     385.3272      2.491     6.83     1304.313     67.92695     126.5209         8     1.898     0.690  38.09   0
       283    449.9638    274.7395 307.7419209  +6.8125788     808.5217     2275.758     3776.551     96.59967     192.7402     385.3272      2.428     7.27     1307.575     67.92695      137.708        13     2.211     0.670 -16.41   2
       284    449.0244    280.1085 307.7421348  +6.8103331     1078.503     2671.405     3795.193      96.7524     192.5103      385.174      2.775     7.72     1308.114     67.92695     135.7601        17     1.627     1.024  22.93   2
       285    453.6870    277.7442 307.7402642  +6.8114621     1115.108     2044.054     3338.962     96.59967     192.6636     385.5188      2.061     4.97     1307.482     67.92695     136.6987         9     1.355     0.517 -70.00   3
       286    853.3613    275.0152 307.5732505  +6.8257302     2106.927     6823.088     8431.197     96.29349     192.5103     385.0589      2.890    10.35      1302.12     67.92695     238.2563        46     2.297     1.582  78.61   2
       287    857.3403    273.9801 307.5716211  +6.8262877     1646.873     3089.338     3493.853     96.14003      192.587     385.2123      1.898     5.74     1301.968     67.92695     202.6089        17     1.629     0.799  84.03   3
       288    514.1180    273.9762 307.7151239  +6.8150072     1463.618     3742.045      5533.78      96.4467     192.4336     385.2889      3.453    13.16     1304.212     67.92695     189.5039        41     3.245     1.484  64.59   2
       289    517.5742    270.9809 307.7137786  +6.8163566     1447.848     3414.812     4414.589     95.98633     192.5103     385.2506      2.683     9.36     1303.897     67.92695      177.296        23     2.103     1.163  56.93   3
       290    994.2896    269.9031 307.5144956  +6.8324594     767.0291     2054.644     2936.145     96.59967     193.2757     385.3656      2.749     7.11     1298.529     67.92695     106.7281        11     2.014     0.704  82.79   0
       291    114.4765    269.0594 307.8823711  +6.8038453      1414.51     4438.203     6564.191      96.7524     192.8168     385.3272      3.107    12.95     1329.716     67.92695     203.9368        43     2.789     1.674 -37.64   2
       292    112.4866    265.1325 307.8833343  +6.8053992      1291.09     2709.625       3462.6      96.7524     193.0464     385.4039      2.334     7.29      1330.02     67.92695     159.5667        17     1.809     0.867 -14.33   3
       293    885.6373    267.2895 307.5600117  +6.8299759     901.4432     2039.667     3280.353     96.59967     192.6636     385.4039      2.739     7.02     1301.245     67.92695     137.1738        12     2.390     0.578   4.98   2
       294    759.3800    263.1068 307.6129404  +6.8275573     2316.772     3913.844     4622.848      96.4467     192.5103      385.174      1.839     6.16     1303.167     67.92695     271.8433        21     1.684     0.848  33.40   3
       295    761.2556    258.8275 307.6122983  +6.8293842         3023     9317.816        15421     96.14003     192.8168      385.174      3.467     8.88     1302.835     67.92695     330.1453        77     2.657     2.106  56.28   2
       296    148.3858    261.6325 307.8684428  +6.8080302     740.6901     1397.067     2562.255     96.14004     192.4336     385.2506      3.300     5.97     1327.698     67.92695     98.37964         8     1.337     0.750 -33.40   0
       297     96.1791    238.0042 307.8910591  +6.8160498     1905.544     4927.539     6274.956     96.14003     192.4336     385.1356      2.602    10.55     1332.391     67.92695     225.7775        35     2.413     1.285  30.33   3
       298     99.5785    234.6166 307.8897511  +6.8175596     2392.048     5105.852     7861.522     96.29349     192.4336     385.2889      2.838    12.14     1332.239     67.92695     313.4644        42     2.976     1.378  32.69   3
       299     77.8536    235.8777 307.8987917  +6.8163206     653.7454     1308.159     2949.068      96.7524     192.7402     385.4039      2.985     5.42     1333.656     67.92695     105.5795         5     1.165     0.712  12.50   0
       300     81.4089    232.9514 307.8974031  +6.8176453     843.9121     1786.976     3000.706     95.98633     192.5103     384.9822      2.094     4.50     1333.596     67.92695     134.6338         8     1.177     0.489 -87.26   0
       301    627.0864    230.0695 307.6693521  +6.8368369     861.0594     1546.439     2370.135      96.7524     193.0464     385.4039      1.540     4.37     1299.806     67.92695     140.5883         7     1.201     0.452  32.88   2
       302    626.1290    224.9770 307.6699217  +6.8389061     741.8724     1659.674     3337.354     96.14003      192.587     385.3656      3.249     7.28     1299.357     67.92695     126.1958         9     1.803     0.824 -69.36   2
       303    631.0560    226.8223 307.6678003  +6.8383070     894.2541     2022.037     1931.465     96.14003     192.7402     385.1356      2.238     6.25     1299.568     67.92695     148.0424         9     1.383     0.794 -86.19   0
       304    934.2312    224.4776 307.5411128  +6.8492297     879.4193     2539.596     4357.305      96.4467     192.8168     385.3272      3.602     5.20     1298.062     67.92695     116.2606         7     1.063     0.718 -36.67   2
       305    442.2714    222.9441 307.7468627  +6.8336907     770.4971     1536.173     2923.858      96.4467     192.6636     385.3272      2.480     6.48     1303.643     67.92695     103.6406        10     1.484     0.794  -7.61   0
       306    917.0568    219.2085 307.5484687  +6.8508401      834.468     1855.631     2500.922     95.83238     192.6636     385.0589      2.458     4.64     1298.184     67.92695     159.4302         9     1.080     0.800  55.75   0
       307    847.5995    214.7705 307.5776583  +6.8503925      955.907     2433.724     4426.958     95.83238     192.5103     385.1356      3.072     6.14     1299.333     67.92695     152.3846        11     1.732     0.612 -77.92   2
       308    441.6445    217.6157 307.7473023  +6.8358680     680.2233      1686.77     2754.267     95.98634     192.5103     385.1356      2.492     6.16     1303.261     67.92695     109.3047         8     1.845     0.579 -39.31   0
       309    852.2880    215.1306 307.5756859  +6.8503979     1018.321     2595.082     5011.495     96.59967     193.0464     385.3656      2.942     7.09     1299.307     67.92695     146.2611        11     2.169     0.649  57.68   2
       310    177.5728    212.8610 307.8578698  +6.8291127     970.2283     3570.446     5836.114     96.14003     192.8168     385.2123      3.256    11.51     1326.258     67.92695     145.2253        28     2.708     1.362 -58.22   2
       311    858.0126    211.6502 307.5734077  +6.8520214     3665.096     9501.094     13258.45     95.83238     192.6636     384.9822      2.750     9.16     1298.993     67.92695     384.7419        48     2.435     1.378 -89.98   3
       312    862.4080    211.2859 307.5715820  +6.8523159     3064.974      5996.63     6523.538     96.14004     192.3568      385.174      2.053     6.61     1298.865     67.92695     361.3789        27     1.893     0.962 -87.42   3
       313    800.7623    213.3575 307.5972893  +6.8494381     2632.536     7332.702     11261.04     96.29349     192.7402     385.2123      3.166    13.81     1299.535     67.92695     280.3909        58     2.993     1.773 -38.78   2
       314    799.6946    208.6929 307.5978906  +6.8513272     1959.816     2837.507     3602.507     96.59967     193.3521     385.3272      1.676     3.79     1299.318     67.92695     282.2668        13     1.095     0.800 -30.64   3
       315    163.8929    207.6432 307.8637637  +6.8308128     884.1149     2890.311     4834.955     96.59967     192.7402     385.5188      4.131    12.24     1327.886     67.92695     109.1069        22     2.406     1.734  51.77   2
       316    198.7260    206.5000 307.8492383  +6.8324357     2148.114     6872.328     11239.72     95.98634     192.8934     385.2506      3.557    11.80     1324.523     67.92695     271.9647        66     2.788     2.520  -5.55   3
       317    195.9261    202.6173 307.8505386  +6.8339447     1554.615     3279.079     4083.752     95.98633     192.5103     385.2506      2.117     5.65      1325.13     67.92695     238.3339        11     1.584     0.569  30.84   3
       318    213.6208    201.1346 307.8431900  +6.8351411     5503.153     33204.83     55105.75     96.14003     192.7402     385.2506      3.670    11.58     1323.719     67.92695     1070.348       121     2.745     2.618 -52.85   0
       319    183.1505    197.3011 307.8560577  +6.8357154     1207.297     4025.827     6835.225     96.59967     192.6636     385.5954      3.727    11.85     1326.653     67.92695     179.1267        36     2.698     1.448 -38.36   2
       320    323.9879    189.3139 307.7974394  +6.8436618     1308.252     2352.869     3369.606     96.14003     192.4336      385.174      1.521     4.90     1313.047     67.92695     259.3632         8     1.658     0.410 -27.88   3
       321    324.3750    186.3396 307.7973768  +6.8449014     1610.169     2804.521     3457.321     96.14004     192.7402     385.2123      1.811     4.28     1313.077     67.92695     233.4718        10     1.108     0.653 -49.18   3
       322    326.6287    192.4147 307.7962318  +6.8424698     2527.099     4658.483     5435.859     96.14004     192.5103     385.2506      2.007     6.72     1312.804     67.92695     296.2261        25     1.812     0.994  14.90   3
       323    329.8981    188.5749 307.7949930  +6.8441616      2802.25     6844.135     9519.068      96.7524     192.4336     385.2123      2.916     8.19     1312.599     67.92695     311.8705        42     2.092     1.507  61.81   3
       324    896.9725    191.3098 307.5577918  +6.8616900     1377.144     4107.434     6527.485      96.7524     192.4336     385.2123      3.385     9.39     1296.196     67.92695     172.1732        27     1.907     1.289 -15.99   2
       325     39.1152    178.4219 307.9169096  +6.8387380      52608.9     292864.1     465013.8      96.4467     192.3568     385.2889      3.565    10.78     1336.635     67.92695     10622.27       201     2.791     2.642 -55.30   0
       326    817.2007    180.1328 307.5915186  +6.8636831      757.557     1603.214     3000.847     95.67818     192.2033     385.0589      3.342     4.68     1297.279     67.92695     109.4006         5     0.983     0.633  59.14   0
       327     77.6789    175.6758 307.9008782  +6.8411471      1410.23     8551.273     13730.65     96.90488     193.0464     385.4805      3.579     9.73     1334.527     67.92695     327.3719        82     2.678     2.394 -64.23   0
       328   1016.5900    168.6301 307.5085255  +6.8749660     1237.959     2591.678     3749.934     95.98634     192.5103      385.174      2.325     6.60     1290.034     67.92695     143.1005        15     1.561     0.784  76.78  18
       329   1020.4335    168.9124 307.5069090  +6.8749754     821.7735     1787.113     2393.689     96.59967      192.587     346.4248      2.104     4.51     1289.912     67.92695     126.6604         7     1.119     0.517  61.90  19
       330    833.2384    165.3494 307.5853032  +6.8703078     744.3072     1804.961     2864.636     96.29349     192.6636     385.3272      2.613     4.26     1295.679     67.92695     100.8215         6     1.193     0.434 -61.00   2
       331    829.5562    164.8296 307.5868601  +6.8704013     951.7736     1958.917     3062.688     96.14004     192.7402     385.2123      2.329     7.43     1295.797     67.92695     131.8499        16     1.909     0.809  84.77   2
       332    362.0190    165.2513 307.7823406  +6.8548423      4046.66     8952.517     14683.26     95.98634     192.8168     385.0973      3.277    13.92     1308.904     67.92695     460.5408        50     3.563     1.512  57.49   3
       333    365.0000    162.0586 307.7812006  +6.8562576     4228.626      9273.12     12378.85     95.67819     192.2801     384.9439      2.643    10.93     1308.341     67.92695     537.7117        41     2.794     1.261  58.36   3
       334    765.4708    160.3083 307.6138074  +6.8701622      1993.02     6144.141      8411.51      96.4467     192.8934     385.3656      3.020    12.60     1296.665     67.92695     235.9821        51     2.664     1.659 -49.81   2
       335    762.9758    156.8096 307.6149669  +6.8715235     2046.048     3639.841     4420.836     96.14003     192.5103     385.2123      1.922     6.53     1296.482     67.92695     229.7555        17     1.607     0.803 -61.57   3
       336    311.1658    149.9755 307.8041131  +6.8594653     1511.492     3177.648     4114.618     95.98634     192.5103     385.0973      2.496     8.48     1315.733     67.92695     186.3508        23     1.943     1.042  41.69   3
       337    315.8941    147.2011 307.8022286  +6.8607658     1669.016     4090.184     8722.608     95.98633     192.2033     384.9822      5.685    15.35     1315.415     67.92695     180.4244        51     3.214     2.038  31.64   2
       338    846.1531    145.0807 307.5805754  +6.8790925     1059.139     2340.791     3067.662     96.59967     192.7402     385.3656      2.317     6.26     1293.938     67.92695     175.8755        13     1.789     0.616  83.01   2
       339    842.4847    147.5345 307.5820280  +6.8779600     1379.619     2489.061      3096.17      96.7524     193.0464     385.4422      1.892     5.91     1294.259     67.92695     187.3208        15     1.425     0.860  31.73   3
       340    842.2830    143.0359 307.5822616  +6.8798090     1252.866     1906.897     2677.061     96.59967     192.6636     385.2889      1.719     3.59     1293.975     67.92695     164.6765        11     0.966     0.815  -3.35   3
       341     31.8678    134.8375 307.9213982  +6.8564757     1762.907     8629.426     12747.37      96.4467     192.7402     385.5188      3.404    11.36     1335.943     67.92695     326.8615        74     2.534     2.265 -65.19   0
       342    290.4221    121.4122 307.8137398  +6.8705625     7561.422     20208.04     25912.48     96.14004     192.5103     385.2506      2.791    11.76     1321.072     67.92695     784.8447        61     2.406     1.602 -23.85   3
       343    291.0345    127.0000 307.8132973  +6.8682778     8705.875     19466.35     22486.56     95.36905     192.4336     385.0973      2.324     8.51     1320.341     67.92695      997.126        31     2.098     1.067   8.53   3
       344    294.3334    124.1875 307.8120118  +6.8695469     9259.213     17650.56     21675.65     95.98634     192.5103     385.2506      2.135     7.12     1320.253     67.92695     1079.508        39     2.338     0.935 -72.66   3
       345    316.8698    120.5768 307.8027091  +6.8717803     1026.629     2786.812       4400.4     96.14003      192.587     385.3272      3.680     9.70     1317.537     67.92695     131.0703        20     2.484     1.057  -7.27   2
       346    319.5726    125.0978 307.8014280  +6.8700046     1377.918     3319.298     5390.408      96.7524     192.4336     385.3272      3.601     9.25     1316.806     67.92695     167.1718        25     2.490     0.959 -35.14   2
       347    432.6378    117.2867 307.7544116  +6.8769563     932.2717     1917.244     3565.988     96.59967     192.6636     385.3656      3.147     8.42     1299.743     67.92695     134.6788        14     2.265     0.874 -77.38   2
       348    437.8007    119.2782 307.7521864  +6.8763050     1076.913     2806.484     4222.809     95.67819     191.9727     385.0973      3.091     9.88     1299.406     67.92695     142.8293        23     1.835     1.483 -87.93   2
       349   1018.9951    120.5177 307.5091134  +6.8948915     681.3493     1411.255     2519.691     95.98633     192.2801     365.5858      2.122     3.82     1288.003     67.92695     95.47253         6     1.228     0.340 -49.66  16
       350    618.1824    115.7012 307.6768789  +6.8837210     1366.212     4649.113     8226.848     96.59967      192.587     385.0589      3.655    12.92     1294.339     67.92695     198.3833        47     2.514     2.063 -41.21   2
       351    340.1124    113.5412 307.7932252  +6.8754495     1565.714     2801.222     3892.463     96.59967     192.8168     385.4805      2.014     5.12     1315.044     67.92695     212.9325        15     1.299     0.857 -64.60   3
       352    335.6832    115.9776 307.7949959  +6.8742983     1177.689     3293.076     4530.248     96.29349     192.3568     385.2506      2.802     8.81      1315.43     67.92695     202.1385        21     2.104     1.031  35.20   3
       353    336.3767    110.4937 307.7948889  +6.8765832     1218.658     2723.496     3369.095     96.59967     192.5103      385.174      2.228     8.43     1315.886     67.92695     157.0093        20     1.671     1.212  -4.11   3
       354    924.9963    109.6354 307.5487818  +6.8963001     490.9435     720.1297     1543.852     95.52374      192.587     385.0973      1.487     4.16     1290.915     67.92695     85.04321         5     0.805     0.613  89.50   0
       355    459.4390    104.7314 307.7436231  +6.8830187     1146.878     4476.994     6305.555      96.4467     192.7402     385.5188      3.155    12.92     1298.091     67.92695     202.0037        42     2.629     1.768  71.93   2
       356    464.1110    103.0772 307.7417246  +6.8838551     1541.463     2490.942     3493.342     96.59967     193.0464     385.4422      2.065     5.92      1297.76     67.92695     165.8177        19     1.271     1.177  76.84   3
       357    575.2732    100.9577 307.6953122  +6.8883906     1198.683     2477.053     4195.651      96.4467     192.8168     385.4039      2.973     7.09     1294.606     67.92695     138.8285        14     1.916     0.734 -30.19   3
       358    576.1615    105.6112 307.6947859  +6.8865003     1505.002     3167.027     3578.645     95.98634     192.5103     385.0206      2.338     8.22     1294.703     67.92695     168.2728        22     1.760     1.076  38.32   3
       359    580.5643    102.8531 307.6930366  +6.8877829     1429.514     3064.946     3884.104      96.4467     192.7402     385.4039      2.550     8.85     1294.556     67.92695     186.9335        23     1.890     1.158  81.93   3
       360    274.7838     98.7911 307.8210339  +6.8793770      986.317     2529.658     4939.543     96.29349     192.4336     385.2123      4.156     8.11     1324.504     67.92695      123.663        13     1.767     1.040  14.13   3
       361    276.2190    104.7884 307.8202336  +6.8769506     1449.252     3196.419     5302.832     96.14003     192.4336     385.2506      2.882     6.00     1323.933     67.92695     184.9403        16     1.436     0.851  -3.59   3
       362    279.5502    101.1890 307.8189608  +6.8785454     1298.064     2333.028     5261.889     95.83238      192.587     384.9822      5.342     6.67     1323.942     67.92695     191.4344        13     1.380     0.904 -40.70   3
       363    811.9940     91.4280 307.5966404  +6.9001033     2886.793     9125.653     13476.28     95.98633     192.5103     385.1356      3.156    12.03     1291.766     67.92695     343.2615        60     2.755     1.754 -42.18   2
       364    810.4823     87.5356 307.5974017  +6.9016592     2561.765      3996.92     4680.438      96.7524     192.8934     385.4039      1.769     3.34     1291.649     67.92695     321.9089        12     1.001     0.835 -43.26   3
       365    232.2668     93.5897 307.8389856  +6.8801181      619.858     1427.238     2796.509     95.98634     192.5103      385.174      3.093     5.61     1327.819     67.92695     81.87292         7     1.271     0.697 -47.01   0
       366    601.5350     88.6976 307.6847385  +6.8943121     1218.367     2805.311     3724.822     96.59967     192.8168     385.4039      2.343     8.16     1294.009     67.92695     139.4728        18     1.643     1.132  84.16   3
       367    598.2025     92.2743 307.6860131  +6.8927271     1592.531     2946.115     4055.313     95.98634     192.1264     385.2123      2.064     7.07     1294.111     67.92695      177.048        20     1.725     0.812  11.96   3
       368    596.6388     87.6044 307.6868223  +6.8946019     1101.606      2464.23     3534.396     95.52374     192.4336     385.0589      2.597     6.80     1294.085     67.92695      160.505        13     1.587     0.817 -62.89   3
       369    483.7570     88.4439 307.7339971  +6.8905386     4034.958     23265.19     36259.07      96.4467     192.7402     385.2123      3.556    11.66      1297.12     67.92695     743.4218       104     2.673     2.511 -46.51   0
       370    302.4748     89.4880 307.8097656  +6.8841288     5077.554      10717.8     16511.01     96.59967     193.1229     385.4805      3.474    13.89     1321.887     67.92695     546.6483        56     3.701     1.450  54.41   3
       371    305.5990     86.1583 307.8085704  +6.8856054     5478.715     13161.62     18257.17     95.83238     192.3568     384.9822      2.935    12.56     1321.375     67.92695     614.7209        57     2.883     1.524  54.45   3
       372    686.3649     89.1817 307.6492494  +6.8969026     1772.347     4291.686     7013.154     95.98634     192.5103     385.0973      3.356    13.91     1293.062     67.92695     189.0105        44     3.031     1.775 -89.53   2
       373    690.4396     87.1236 307.6476139  +6.8978855     1413.373     2312.027     2995.229      96.4467     192.7402     385.4422      2.000     5.24      1293.03     67.92695     218.2435        11     1.190     0.791 -73.99   3
       374    136.4404     83.4275 307.8793937  +6.8811421     1647.847     4187.249     5181.115     96.14004     192.5103      385.174      2.929    10.73     1330.147     67.92695     197.6367        32     2.044     1.569 -51.66   3
       375    138.0154     89.2449 307.8785406  +6.8787945     2135.688     4684.917     5405.525     95.98633     192.5103     385.0973      2.267     7.41     1330.178     67.92695      240.349        23     1.914     0.932   5.42   3
       376    141.2175     85.4240 307.8773295  +6.8804765     2250.631      4289.25     4940.833     96.29349      192.587     385.2889      2.175     7.10     1329.965     67.92695     263.8948        19     1.774     0.796 -80.91   3
       377    466.5444     84.6659 307.7413205  +6.8915298     1007.623      2131.51     5510.281      96.7524      192.587     385.3656      4.392     7.67     1298.446     67.92695      120.724        14     2.026     0.812 -75.42   2
       378    642.6564     83.7071 307.6677089  +6.8977236     1307.853     3527.345     4902.724      96.4467     192.7402     385.5954      2.742     8.96     1293.414     67.92695     173.9769        24     2.293     0.978 -35.50   3
       379    640.4520     80.5877 307.6687345  +6.8989378     1332.841     4045.399     5499.452     95.83239     192.6636     385.0206      2.957    10.67     1293.418     67.92695     167.8307        32     2.294     1.384 -36.30   3
       380    656.0491     79.4676 307.6622496  +6.8999128     1355.236     3890.928     4997.308      96.4467     192.6636     385.4039      2.669    10.02     1293.215     67.92695     209.6996        31     2.310     1.212 -60.56   3
       381    651.9688     77.8853 307.6640084  +6.9004313     1473.858     3533.216     5405.575     96.59967     192.5103     385.2506      2.732     9.66     1293.251     67.92695      193.457        29     2.430     1.072 -72.06   3
       382     97.8517     74.0409 307.8958429  +6.8837372     24155.75     112412.6       185789     96.59967     192.8168     385.3656      3.678    11.14     1331.542     67.92695     4058.923       216     3.496     2.618 -25.68   0
       383    452.7888     80.6040 307.7472079  +6.8927519     1243.027      2544.17     5271.475     96.14004     192.3568     385.2506      5.865     6.56     1299.776     67.92695     161.6956        14     2.051     0.590  16.80   2
       384    455.4503     77.9393 307.7461837  +6.8939388     1367.033     3400.287      8036.97     96.59967     192.6636     385.4422      5.804     9.05     1299.861     67.92695     172.6952        22     2.066     1.107  69.07   2
       385    705.1656     72.8711 307.6419297  +6.9042487     1665.133     4053.452     5918.814      96.4467     192.6636     385.3656      2.951    12.48      1292.78     67.92695     214.0155        37     3.000     1.445 -88.04   2
       386    709.2402     71.6929 307.6402649  +6.9048686     1468.619     3023.216     4587.716      96.7524     192.6636     385.4805      2.387     7.85      1292.74     67.92695     212.7308        16     1.900     0.907 -76.74   3
       387    834.0000     70.9939 307.5881162  +6.9092547     1712.329     3644.842     4744.604     95.67819     192.2801     385.0973      2.332     7.76     1290.209     67.92695     212.7866        18     2.029     0.831 -85.22   3
       388    831.1456     72.6270 307.5892557  +6.9084874     2202.596     3576.687     5191.564     96.14003     192.8168     385.2123      2.188     6.12     1290.377     67.92695     258.1527        16     1.328     0.987 -55.24   3
       389    829.3697     69.4275 307.5901046  +6.9097489     2129.088     4439.462       5446.5     95.98634     192.4336     385.0973      2.223     7.50      1290.21     67.92695     235.9569        25     1.924     0.950 -63.47   3
       390    284.1784     64.9862 307.8182341  +6.8936314     4352.217     25119.84     42323.39     96.29349     192.5103     385.2889      3.695    11.70     1324.309     67.92695     840.2567       115     2.734     2.608 -41.83   0
       391    851.7577     64.3459 307.5809109  +6.9125798     2764.227      7393.11     10398.61     96.59967     192.7402     385.3656      2.931     9.74     1289.483     67.92695     319.2917        50     2.573     1.670  77.21   2
       392    856.0000     63.9777 307.5791491  +6.9128709     1930.056     3332.641     3801.124     95.98634     192.2801     384.9439      1.872     6.47     1289.402     67.92695      275.921        16     1.791     0.748 -83.21   3
       393     35.0124     61.0190 307.9225539  +6.8870284     797.8184     2339.538     3672.323     96.29349     192.4336     385.2506      3.359     5.96     1332.401     67.92695     111.2053         8     1.124     0.959  71.32   2
       394     40.4892     60.5218 307.9202805  +6.8874148     1234.431     2919.168     4226.447      96.2935     193.0464     385.5188      3.032     6.64     1332.302     67.92695     178.0498        15     1.508     0.965 -88.71   2
       395    744.4031     60.5534 307.6259307  +6.9106192     1505.871     2739.837     4300.937     95.83239     192.4336     384.9439      2.721     7.89       1292.1     67.92695     175.5114        19     2.118     0.822 -80.03   3
       396    740.1949     59.8647 307.6277134  +6.9107650     1590.809     4473.106      6542.55     95.83238     192.3568     385.0973      3.112    10.92     1292.199     67.92695      189.189        37     2.474     1.342  87.68   2
       397    919.8231     55.0129 307.5527564  +6.9186625     1745.735     5088.117     7480.322     96.29349     192.5103     385.2506      3.249     9.69     1287.579     67.92695     227.4098        46     2.281     2.029 -39.96   2
       398    728.5329     58.1398 307.6326475  +6.9110934     752.8068     1525.575     2059.504      96.7524     192.6636     385.3656      2.569     5.03     1292.326     67.92695     106.1713         5     1.028     0.697   6.91   0
       399    671.4175     56.0968 307.6566000  +6.9100586     3860.355     8498.457     13451.62      96.4467     192.5103     385.0973      3.205    14.29     1292.875     67.92695     417.0961        61     3.536     1.605  82.18   2
       400    675.4722     54.0001 307.6549741  +6.9110568     3169.883      6453.51     7229.117     95.67819     192.1264      385.174      2.205     6.75     1292.821     67.92695      413.808        29     2.106     1.047 -88.83   3
       401     86.3974     50.1038 307.9014330  +6.8932317     1005.033     3303.534     6423.142     96.14003     192.3568     384.9822      4.372    11.04     1331.015     67.92695      140.119        28     2.489     1.366 -75.51   0
       402    992.2225     46.8716 307.5227493  +6.9243939     1673.192     4231.025      6553.48     96.14003     192.5103     385.3656      3.140    10.07     1282.946     67.92695     222.4261        31     2.208     1.280 -24.24   2
       403   1023.6358     44.7629 307.5096822  +6.9262928     710.9282     969.9124     856.3448     84.18559     153.5089     290.4098      1.519     4.78     1280.739     67.92695     143.1469         9     1.356     0.478  87.67  24
       404    929.1693     41.3914 307.5492996  +6.9245879     6261.638     24436.52     30391.48     95.98634     192.5103     385.1356      2.936     8.48     1286.388     67.92695     780.6261        80     2.206     2.116 -40.86   0
       405    622.8424     37.4600 307.6775329  +6.9161486     1025.198     2947.182     3521.343     96.59967     192.7402     385.4805      2.765    10.47     1293.074     67.92695     144.8845        26     2.479     1.233 -26.40   0
       406    164.5583     36.7508 307.8691967  +6.9013252     775.4179     1566.299     3166.617     96.59967     192.7402     385.3272      2.297     6.69     1328.368     67.92695     128.0344         9     1.965     0.639 -64.69   0
       407    780.6169   1016.2040 307.5790744  +6.5175929     906.6762      1781.16     1387.266     96.14004     192.2801      385.174      1.977     7.52     1356.992     67.92695     135.5516        12     1.471     1.075  57.94  16
       408    418.9081   1017.2570 307.7301768  +6.5052646      792.319     1635.819     2309.964      96.4467     192.6636      382.095      2.222     6.09      1358.02     67.92695     102.6112         8     1.453     0.717  33.81  16
       409    621.1196     33.7452 307.6783770  +6.9176242     1030.441     2147.432      2761.08     96.59967     192.7402     385.4039      2.515     6.83     1293.051     67.92695     120.3522        11     1.410     0.927   2.80   1
       410    766.1150   1015.2754 307.5851649  +6.5175000     1060.704     2412.502     1861.799      96.7524     193.1229     385.4422      2.147     7.32     1357.466     67.92695     126.7411        14     1.660     0.903 -29.69  16
       411    663.4748   1013.7318 307.6281042  +6.5147657     6926.827     18771.45      22336.5      96.7524     192.8934     385.3656      2.621     6.09     1358.427     67.92695     875.3506        66     2.008     1.810 -36.84  16
       412    895.8433     31.3028 307.5635710  +6.9276565     943.4286     2166.423     3078.844     96.59967     192.6636     385.5954      2.728     5.11     1286.696     67.92695     112.1312         9     1.030     0.716  86.09   0
       413    613.2694     28.7942 307.6818245  +6.9194082     721.1398     1527.806     2321.025     95.98634     192.2801      385.174      3.231     5.33     1293.038     67.92695     94.05798         5     1.235     0.650 -19.66   0
       414    556.8529   1005.0086 307.6729455  +6.5148585     6368.147     20856.35     29749.75     95.98634      192.587     385.0206      3.136     8.10     1358.084     67.92695     759.8712        98     2.718     2.053  25.61   0
       415    359.5482     18.2802 307.7882758  +6.9153849     1292.233     2310.479     4240.195     96.59967     192.7402     385.3656      2.458     6.33     1316.024     67.92695     162.1121        13     1.387     0.813  66.15   3
       416    362.7491     19.2299 307.7869056  +6.9150988     1787.776     3439.517     5749.232     96.14004     192.8934     385.2506      2.606     5.04     1315.569     67.92695     205.6434        13     1.201     0.829 -15.37   3
       417    585.1278   1009.1078 307.6609948  +6.5140975     1307.617     3002.848     4282.291      96.4467     192.8934     385.3656      2.874     6.47     1358.839     67.92695     165.8577        18     1.484     0.883  27.20   0
       418    888.6265   1003.8447 307.5343515  +6.5262342     2170.038     5175.476      5738.01     95.98634     192.8168     385.2506      2.243     6.18     1354.009     67.92695     285.1139        37     1.804     1.485 -36.84   0
       419    141.5542     17.4960 307.8794597  +6.9085067     499.6292     1216.388     2891.253     96.59967     192.6636     385.5571      2.971     5.32     1328.654     67.92695     95.70691         5     1.125     0.710 -66.96   0
       420    328.0710   1000.0657 307.7687039  +6.5093620        11487     36493.63     45031.17     96.59967     192.8168     385.3656      2.833     6.78      1359.08     67.92695     1410.946        85     2.194     2.020 -47.01   0
       421    844.1802    998.4040 307.5531041  +6.5270212      963.314      2291.29     3143.926     96.14003     192.2801     385.1356      2.674     5.83     1354.425     67.92695     178.8058        11     1.668     1.172 -18.76   2
       422     74.3797    999.1666 307.8747323  +6.5013561     988.9658     2739.932     3693.022     95.98634     192.5103      385.174      2.930     9.65     1357.098     67.92695       121.09        20     2.103     1.235  -2.92   0
       423    857.3690    993.7319 307.5477478  +6.5293810     2710.948     6404.479     7038.178      96.4467     192.7402     385.3272      2.358     5.83     1354.007     67.92695     337.3578        39     1.857     1.415 -37.06   0
       424   1011.9842    991.9966 307.4831969  +6.5351633     2850.262     6057.925     6749.336     96.14004     192.2801      385.174      2.187     5.06     1350.587     67.92695      356.754        33     1.576     1.402 -43.76   0
       425    185.5544    990.7659 307.8285616  +6.5084950     5251.425     17558.39     20621.43     96.14004     192.6636     385.2123      2.757     7.18     1358.606     67.92695      665.502        71     2.131     1.957 -40.48   0
       426      8.4611    994.1844 307.9024404  +6.5012310      591.033     1582.784     2219.278     95.98634     192.6636     385.1356      2.720     4.31     1354.856     67.92695     101.7709         5     1.165     0.453  31.82   0
       427   1022.1761    984.0480 307.4792009  +6.5387759     2720.717     4901.039     5850.092     96.14003     177.5897     318.3043      1.955     5.50     1349.794     67.92695     362.3711        28     1.758     1.068 -64.24  24
       428    990.1224    980.5236 307.4927118  +6.5391802     5815.407     12511.62     13457.84     96.90488     193.0464     385.4422      2.198     5.08     1350.423     67.92695     686.0336        45     1.805     1.389 -39.80   0
