#   1 NUMBER                 Running object number                                     
#   2 X_IMAGE                Object position along x                                    [pixel]
#   3 Y_IMAGE                Object position along y                                    [pixel]
#   4 ALPHA_J2000            Right ascension of barycenter (J2000)                      [deg]
#   5 DELTA_J2000            Declination of barycenter (J2000)                          [deg]
#   6 FLUX_APER              Flux vector within fixed circular aperture(s)              [count]
#   9 FLUXERR_APER           RMS error vector for aperture flux(es)                     [count]
#  12 FLUX_RADIUS            Fraction-of-light radii                                    [pixel]
#  13 FWHM_IMAGE             FWHM assuming a gaussian core                              [pixel]
#  14 BACKGROUND             Background at centroid position                            [count]
#  15 THRESHOLD              Detection threshold above background                       [count]
#  16 FLUX_MAX               Peak flux above background                                 [count]
#  17 ISOAREA_IMAGE          Isophotal area above Analysis threshold                    [pixel**2]
#  18 A_IMAGE                Profile RMS along major axis                               [pixel]
#  19 B_IMAGE                Profile RMS along minor axis                               [pixel]
#  20 THETA_IMAGE            Position angle (CCW/x)                                     [deg]
#  21 FLAGS                  Extraction flags                                          
         1    775.3068     25.1235 307.6185034  +6.8044409     1240.195     2986.742      5286.19      95.0175     190.4884     380.2591      3.577    10.38     1260.868     67.02685     149.4463        24     2.080     1.443 -45.51   2
         2     12.4020     21.7662 307.9358303  +6.7804631      823.595     2320.025     2625.257     94.41036     189.9594     380.0322      2.546     8.90     1303.731     67.02685     130.1121        17     1.874     1.179 -80.95   0
         3    352.6196     10.2735 307.7947612  +6.7965580     5763.422     14872.96     23128.84     94.86608     190.1106     380.1835      3.131     9.63     1287.724     67.02685     588.3916        80     3.166     1.814 -21.62  19
         4    351.4889      5.6938 307.7953856  +6.7984160     3857.179     8012.721     10510.08     95.31963     190.7146     357.2575      2.426     7.38     1288.021     67.02685       466.03        33     2.300     0.944  -7.31  19
         5    116.3148      7.3308 307.8931138  +6.7899052     725.2407      1835.67      2748.13     95.47034     190.4884     374.0074      2.839     5.42     1297.905     67.02685     114.4974         8     1.133     0.732  -4.14  18
         6    444.1836      3.0913 307.7569303  +6.8025754     6455.732     16260.52     22178.98      95.0175     178.4879     318.5405      2.766     9.44      1278.35     67.02685     690.4155        70     2.949     1.462  -7.88  24
         7    641.9503    993.4141 307.6414549  +6.3992193     2520.688     6951.393     8448.912     94.56251     190.1106     379.9187      2.822     7.81     1326.533     67.02685     322.3746        55     2.265     1.731 -16.35   0
         8    944.4059   1023.6997 307.5147736  +6.3966890     873.6592     1475.168     1510.653     82.02509     150.0444     285.1534      1.620     5.05     1324.002     67.02685      168.785        10     1.622     0.445  -4.00  24
         9    587.6927    992.1523 307.6640405  +6.3979433     752.2836     1536.772     1908.799     95.16869     190.1106     380.4103      2.495     5.88     1327.252     67.02685     121.2574         9     1.420     0.684 -10.73   0
        10    105.3391    988.7887 307.8645557  +6.3833061     1397.705     3928.646     5635.467     94.56252      190.035     379.9187      3.162    10.35     1326.894     67.02685     167.6788        28     2.203     1.356 -27.13   2
        11    616.1394    988.8890 307.6523308  +6.4002370     901.6293     2592.716     3592.416     95.16869     190.3374     380.2969      3.180     8.44     1326.817     67.02685     125.1331        14     1.882     1.058 -54.27   0
        12    979.3754    987.8992 307.5014405  +6.4126632      1401.46     3325.504     4224.059     95.47033     189.8837     380.0322      2.722     6.51     1322.063     67.02685     151.2546        19     1.482     1.172 -61.07   2
        13    758.7283    985.4515 307.5932016  +6.4063822     9029.752     23627.07     30609.02     95.16869     190.1862     380.2969      2.772     6.99     1324.936     67.02685     951.5137        82     2.506     1.712 -21.88   0
        14    888.6500    984.9260 307.5392368  +6.4108967      1830.91     4428.039     5188.513     95.31963     190.2618     380.2969      2.563     7.59     1323.509     67.02685     209.8026        36     1.887     1.422 -18.74   0
        15    232.5211    979.2674 307.8120380  +6.3914811     2226.276     6813.739     9330.833     95.47034     190.3374     380.2213      3.113     8.85     1327.863     67.02685     236.3263        57     2.285     1.854  -4.58   0
        16    639.1562    978.1764 307.6431269  +6.4054340      2785.25     7486.218     9745.461     94.71442      190.035     380.0322      2.770     8.31     1326.021     67.02685     342.7766        61     2.473     1.647 -17.47   0
        17    711.1985    966.4735 307.6135860  +6.4126645     1714.996     4364.449     5551.477     94.71442     189.5047     380.1078      2.846     8.64     1324.584     67.02685     202.7252        35     2.172     1.237 -27.28   0
        18    977.1301    963.0397 307.5032044  +6.4228794     4772.771     11040.23     13347.59     95.16869     190.1862     380.3347      2.485     6.75     1321.292     67.02685     507.5861        53     2.289     1.325 -22.95   0
        19    915.5612    962.7534 307.5287967  +6.4209641     1199.641     2705.879     2887.194     95.16869     190.1862       380.07      2.581     8.86      1321.98     67.02685     159.4224        20     1.739     1.378 -25.54   0
        20     54.9671    958.7465 307.8864961  +6.3940624     9640.144     28082.69     37084.54     95.16869     190.1106     380.1835      2.933     7.48     1325.923     67.02685     986.1565        92     2.543     1.930 -21.39   0
        21    516.4434    958.7025 307.6947665  +6.4094262     829.3464     2131.617     3058.963     95.31963     190.1106     380.5237      3.287     8.95     1327.759     67.02685     105.0754        16     2.051     1.091 -19.98   0
        22    700.8018    949.9053 307.6184612  +6.4191783     1398.808     3894.627     5025.494     94.71442     189.8079     379.8051      2.872     9.04     1324.305     67.02685     160.7139        31     2.131     1.396 -26.81   0
        23    722.5187    948.4281 307.6094872  +6.4205089     1755.589     4633.638     5064.991     95.16869     189.9594     380.2213      2.678     9.25     1323.986     67.02685      228.642        33     2.035     1.472 -24.04   0
        24    554.3245    947.4267 307.6794058  +6.4153501     1004.597     3232.353     4577.749     95.16869     190.1862     380.2213      3.006     8.89     1326.957     67.02685     136.7755        17     1.813     1.217  61.53   2
        25    995.6264    944.2283 307.4961476  +6.4312769     2435.245     5863.161     7442.148     94.71442     189.9593       380.07      2.634     6.96     1320.615     67.02685     278.2107        43     2.144     1.365 -27.50   0
        26    960.7565    943.4284 307.5106635  +6.4304565     4243.151      10224.7     12095.77     94.86608     190.2618     380.1457      2.515     6.75     1320.706     67.02685     452.8816        50     2.170     1.429 -24.19   0
        27    119.6345    937.5622 307.8603438  +6.4049855     8766.843     26400.55     36682.99     95.01751     189.9594     379.9944      3.091     7.60     1325.724     67.02685     849.3705       101     2.609     2.049 -21.84   0
        28    407.2808    941.3943 307.7407040  +6.4129668     582.5768     1329.999      3042.28     94.86608     189.6564     379.9565      2.617     4.82     1327.783     67.02685      112.134         5     1.367     0.482 -23.94   2
        29    405.6264    937.3380 307.7415278  +6.4145909     943.1013     2557.648     4388.129     94.86608     190.1862     380.1457      3.622     8.77     1327.748     67.02685       145.11        15     2.019     1.063   4.56   2
        30    955.7030    926.2560 307.5133375  +6.4373979     3668.055     8986.688     11387.92     95.16869     190.1862     380.5237      2.713     6.63     1320.017     67.02685     392.8407        56     2.124     1.645 -30.31   0
        31   1011.0355    921.4616 307.4905055  +6.4412097     48498.46     113996.8     139101.2     95.31963     190.1862     380.2213      2.565     6.48     1319.686     67.02685     5401.763       111     2.453     1.636 -24.76  16
        32    549.4950    922.0217 307.6822653  +6.4257058     17770.14     52525.25     72847.58     95.16869     189.9593       380.07      3.048     7.62     1326.522     67.02685     1776.516       112     2.700     1.977 -20.51   0
        33    157.5803    918.5468 307.8452194  +6.4141200     1035.961     2854.556     3809.443     94.71442     190.1862     380.0322      2.911     9.91      1325.62     67.02685     133.5455        23     1.968     1.392 -10.25   0
        34    446.6987    905.9507 307.7255175  +6.4289467     21892.61     66966.83     96477.64     95.31963     190.1106     380.4859      3.178     7.91      1326.51     67.02685     2152.399       128     2.795     2.090 -20.83   0
        35   1022.9971    904.9901 307.4860855  +6.4484227     1207.212     1955.508     1517.141      91.4714     162.5536     299.0329      1.726     4.85     1318.639     67.02685     181.3264        12     1.218     0.825 -59.47  24
        36    718.7358    888.9338 307.6130531  +6.4450103     2015.957     5577.105     7164.908     95.31963     190.1862     380.2969      2.794     8.20     1321.766     67.02685     245.6364        49     2.300     1.566 -17.34   0
        37    772.1046    884.3970 307.5910288  +6.4486548     5475.482     15520.16        20300      95.0175     189.8079     379.8808      2.911     7.37     1321.214     67.02685     583.9821        79     2.513     1.809 -25.43   0
        38    595.5975    882.1738 307.6644467  +6.4437287     992.5139      3031.26     4691.856     94.71442     189.8079     380.0322      3.455    12.22     1322.565     67.02685     134.5995        29     2.395     1.735 -30.12   0
        39   1010.3777    882.6558 307.4920757  +6.4572513     855.4533     1887.072     2048.572     94.86608     190.1862     380.0322      2.448     6.94      1317.23     67.02685     118.6808        12     1.566     0.863 -38.97   2
        40    209.3673    876.1442 307.8251316  +6.4333950     608.4205     1205.557     1082.145     95.16869     190.2618     380.2591      2.162     5.07     1325.289     67.02685     113.2854         5     1.061     0.686 -25.61   0
        41    848.3991    867.6185 307.5598876  +6.4581239     1185.662     3410.121     3710.438     94.86608     189.6564     379.9187      2.663     9.90     1317.842     67.02685       154.24        28     2.083     1.311 -37.27   0
        42    805.8442    865.2714 307.5776494  +6.4576880     980.3447     2799.068       3847.9     95.16869     190.1862     380.2969      2.767     9.53     1319.975     67.02685     131.8575        19     1.736     1.461  19.74   2
        43    236.3258    862.6974 307.8143833  +6.4398579     1740.766     2351.153     3785.186     95.01751     190.4129     380.2591      1.544     3.94     1325.166     67.02685     240.6497         9     0.959     0.708 -14.74   3
        44    235.9573    859.2172 307.8146537  +6.4412862     2664.888     6737.644     10458.38     94.71442      190.035     379.9565      3.388    10.53     1325.129     67.02685     271.7852        61     2.871     1.847 -24.75   2
        45    787.5062    856.2627 307.5855714  +6.4608103     61997.55       172814     237715.7     95.31963     190.1862     380.3347      3.013     7.38     1319.483     67.02685     6446.375       173     2.870     2.006 -23.19   0
        46    169.4143    855.2330 307.8424366  +6.4407204     18788.62     60889.85     89125.44     94.86608     189.8837     380.1457      3.237     8.14     1324.757     67.02685     1801.601       130     2.782     2.197 -19.35   0
        47     93.4460    851.3141 307.8741333  +6.4398121     2088.432     6341.749     8915.654     95.31963      190.035     380.2591      3.082     8.77     1322.974     67.02685     213.3845        56     2.255     1.851 -24.35   0
        48    824.1156    843.1780 307.5707967  +6.4674377     1742.011     4879.103     6074.579     95.16869     189.8079     380.1457      2.815    10.63     1317.153     67.02685     194.3198        44     2.394     1.521 -28.97   0
        49    342.7163    842.1631 307.7708683  +6.4518956     5317.172     17460.27     26335.02     95.31963     190.1106     380.1835      3.297     8.95     1324.903     67.02685      541.821        94     2.784     2.063 -19.73   0
        50    778.5449    838.5221 307.5898895  +6.4678572       1686.6     3699.851     5811.739     95.47034     190.1862     380.2969      3.049     9.44     1317.983     67.02685     186.7075        23     2.442     1.018  -0.42   3
        51    778.2240    835.5035 307.5901239  +6.4690961     1981.098     4270.329     6189.439     95.47034     189.8837     380.1078      2.469     7.18     1317.718     67.02685     248.3079        28     2.160     1.031  -1.52   3
        52    510.2946    838.6707 307.7013529  +6.4589066     1676.349     3704.667     5187.367     95.16869     190.2618     380.2591      2.454     7.62     1322.839     67.02685     222.4208        20     1.620     1.055 -19.64   3
        53    508.7603    835.4103 307.7021000  +6.4602052      1962.11     5016.609     7451.317     94.56252     189.9594     379.9565      2.988    11.21     1322.728     67.02685     249.9146        42     2.797     1.527 -22.76   3
        54    156.4136    830.4396 307.8486742  +6.4505498      2151.65     6953.737     10081.59     94.71442     189.9594     379.9565      3.194     9.88     1323.703     67.02685     236.9952        64     2.470     1.975 -31.28   0
        55    553.4752    832.4655 307.6836184  +6.4629076     716.8843     1478.862     2677.153     95.47034     190.1862     380.1835      3.257     4.46      1321.65     67.02685     85.73108         5     1.179     0.480  83.48   3
        56    552.9135    828.6445 307.6839801  +6.4644706     813.1702     2321.127     3286.299     95.31963      190.035     380.2591      2.929     5.16     1321.522     67.02685     100.3317         8     1.131     0.666 -35.89   2
        57    251.4200    826.7833 307.8093212  +6.4552256     26168.61     87827.88     131823.5     95.01751     189.9593     380.1457      3.320     8.46      1324.86     67.02685     2571.037       144     2.855     2.250 -23.44   0
        58     29.2621    830.0406 307.9015193  +6.4464780     1515.696       3653.1     5440.898     95.31963     190.1862     380.2969      2.950     8.04     1322.368     67.02685     184.2106        25     2.078     1.011 -15.94   3
        59     28.6957    827.2958 307.9018473  +6.4475952     1609.101     3510.554     5369.275     95.31963     190.9407       380.07      2.636     7.38     1322.295     67.02685      204.259        19     1.872     0.815 -13.34   3
        60    774.3010    818.6231 307.5923197  +6.4759537     6182.507     17486.06      23872.8     95.47034     189.8837     380.0322      2.994     7.83     1316.215     67.02685     585.9855        82     2.653     1.806 -27.82   0
        61    478.0959    817.2487 307.7154523  +6.4667051     13434.07     43249.92     67078.77     95.16869      190.035     380.4481      3.382     8.39      1322.94     67.02685     1365.419       132     2.894     2.261 -19.02   0
        62    637.9700    814.3189 307.6491164  +6.4732204     826.8643     1941.231     4005.457     95.16869      190.035     380.2591      5.561     8.57     1318.275     67.02685     96.30054        14     2.217     0.925  -6.03   3
        63    638.0590    811.0384 307.6491895  +6.4745812     1047.314     2444.242      3801.69     95.31963     190.2618     380.3347      3.169     4.95     1318.113     67.02685     184.5229        11     1.357     0.678   7.62   3
        64    190.5034    812.9801 307.8350980  +6.4589117     840.8995      1739.79     2705.758     95.16869     189.9593     379.9944      2.649     3.81     1323.884     67.02685     103.1986         6     0.833     0.500  89.50   0
        65    122.4842    805.2835 307.8636204  +6.4598322     7952.292      26158.3     38587.33     95.01751     190.4129     380.3725      3.272     8.15     1322.454     67.02685     754.2559       110     2.752     2.185 -22.67   0
        66    307.6964    805.2668 307.7866616  +6.4660035     1406.989     3938.558     5980.521     95.31963     190.2618     380.2969      3.230    10.09      1324.44     67.02685     180.0303        31     2.208     1.285 -14.57   2
        67    850.8615    804.3036 307.5609839  +6.4844137     735.7808     1690.321     2038.081      95.0175     190.2618     380.3347      2.368     7.72     1313.551     67.02685     128.0409        11     1.702     0.978  83.33   0
        68     87.5482    802.6384 307.8782259  +6.4597630     1022.239     2607.513      3801.46     95.01751     190.1862     380.2591      3.108    10.28     1322.092     67.02685     112.1024        19     1.726     1.706 -57.86   0
        69    486.7322    803.6329 307.7123211  +6.4726277     583.0416     1463.011     2102.611     95.16869     190.1862     380.2591      2.578     4.46     1322.399     67.02685      102.776         5     1.204     0.471  -5.32   0
        70    947.5070    798.9958 307.5209990  +6.4898052     2337.229     5964.974     7271.184     94.86608     189.8079     379.9187      2.668     7.77     1312.249     67.02685     300.6035        44     2.196     1.411 -35.12   0
        71    520.1838    791.5464 307.6988266  +6.4787407     594.6301     1154.816      1217.16     94.71442     190.1862     379.9187      2.867     4.31     1320.737     67.02685     87.68152         5     0.918     0.576  46.78   0
        72    419.3539    786.0291 307.7409113  +6.4776772     12414.41     42115.05     64416.43     94.71442     190.2618     380.1078      3.355     8.65     1322.157     67.02685      1276.23       129     2.886     2.236 -23.04   0
        73    627.2943    785.4745 307.6545205  +6.4848062     3923.643     11843.51     17071.06     95.01751     190.4129     380.2591      3.127     8.20     1317.218     67.02685     397.3141        77     2.615     1.902 -19.90   0
        74    184.6564    783.9361 307.8385064  +6.4707387     5853.039     18752.01     29333.99     95.47033     190.1106     380.2591      3.406     8.36     1322.522     67.02685     558.9409       102     2.701     2.271 -19.91   0
        75    549.3191    781.5511 307.6870551  +6.4838447     768.5409     2192.861     3062.733     95.31963     190.1862     380.2969      3.013     5.95     1319.479     67.02685     99.83777         6     1.564     0.637  72.91   0
        76    922.9838    780.4803 307.5318094  +6.4966592     1629.948     3604.891     4914.304     94.86608     189.8837       380.07      2.358     8.26     1311.301     67.02685     187.6282        21     2.189     0.871  10.26   3
        77    922.9968    778.0000 307.5318870  +6.4976864     1681.359      3565.58       4773.3     94.41036     189.5806     379.9187      2.300     7.23     1311.132     67.02685     220.4885        20     1.860     0.788   1.06   3
        78    596.1214    777.9026 307.6677287  +6.4869070     1961.809     6417.916     8490.037     95.01751     190.4129     380.2969      3.152    10.47     1318.001     67.02685     230.9565        60     2.515     1.838 -25.91   0
        79    945.8062    770.3558 307.5226637  +6.5016043     1492.062     3661.968     4546.166     94.71442     189.8837     379.8808      2.625     9.67     1310.082     67.02685     195.0232        23     2.062     1.265 -27.77   2
        80    508.6515    770.9957 307.7043092  +6.4868645     1836.487     3027.654     4662.237     94.56251     189.9593     379.7673      1.994     4.67     1319.685     67.02685     234.6243        12     1.212     0.792  63.18   3
        81    508.2431    767.6114 307.7045926  +6.4882518      2074.12     5230.418     8802.838     94.71442     189.9594     379.9187      3.809    11.39     1319.507     67.02685     250.6854        58     3.203     1.922 -29.46   2
        82    353.6518    767.4675 307.7688377  +6.4831771     716.0095     1972.821     3572.871     95.16869     190.1106     380.2213      2.430     5.52     1321.959     67.02685     98.97949         7     1.718     0.501  44.37   2
        83    873.4239    757.9675 307.5531587  +6.5043400     744.5758     1631.471     2869.207     94.56251      190.035     380.0322      4.991     9.80     1310.184     67.02685     105.5092        11     2.604     1.028 -63.11   2
        84    870.2615    758.1146 307.5544680  +6.5041746     707.8723     1748.793      3561.86     95.47033     190.3374     380.2969      3.208     3.51     1310.228     67.02685     106.7946         5     1.195     0.298 -56.69   3
        85    864.3575    764.4111 307.5567108  +6.5013730     1203.716     3567.465     5879.691     94.56252     189.9594     379.9187      4.246    11.92     1310.723     67.02685     128.9674        30     2.155     1.837 -15.07   2
        86    696.4385    757.4927 307.6267253  +6.4986797     904.4663     1653.259     2716.036     95.47034     190.1106     380.3347      2.292     3.70     1313.288     67.02685     119.0619         6     0.991     0.396 -19.61   0
        87    366.9998    754.3162 307.7637335  +6.4890644     1095.471     3301.425     4799.056     94.41035     189.5806      379.843      3.351     9.30     1320.827     67.02685     143.8573        20     1.938     1.246  68.82   2
        88    695.8932    753.8127 307.6270753  +6.5001849     894.9083     2020.885     3435.619      95.0175     189.8837     380.0322      3.287     5.78     1313.144     67.02685     98.72839        10     1.062     0.887 -45.13   1
        89    594.6932    750.1572 307.6692535  +6.4983443     2976.094     9497.806     14251.94     95.31963     190.1862     380.4103      3.364     9.10     1316.107     67.02685     348.8162        82     2.752     2.006 -21.80   0
        90    757.6797    748.6697 307.6015709  +6.5043597     4380.721     8397.079     9999.481      95.6208     190.4884     380.2213      2.062     5.35     1311.681     67.02685     475.8732        24     1.597     1.011 -30.16   3
        91    757.2413    745.1349 307.6018715  +6.5058083     5324.757     12538.43     19285.87     95.31963     190.1106     380.3725      3.125     9.21     1311.449     67.02685     535.1882        70     2.997     1.698 -22.24   3
        92     94.8661    738.0166 307.8773653  +6.4867545     1392.939     4034.664     6293.712     94.71442      190.035     380.1078      3.432    11.18      1319.19     67.02685     167.1545        36     2.207     1.854  83.81   2
        93     99.0000    738.9316 307.8756167  +6.4865136     704.2512     1715.465      2756.73     94.71442     189.5806     379.9944      2.123     3.96     1319.275     67.02685     124.5795         5     1.400     0.320 -78.08   3
        94    996.2593    736.2160 307.5028377  +6.5174025     1867.545     5110.218     6863.597     94.71442     190.1106     379.9565      2.891     8.37      1307.47     67.02685     217.8354        40     2.031     1.466 -31.32   0
        95    732.9865    735.7953 307.6122644  +6.5088713     940.9323     1971.561     2981.336     94.86608     189.8837     380.1078      3.044     6.08     1311.305     67.02685     113.2904        11     1.124     0.926 -12.46   0
        96    331.3302    735.4343 307.7791914  +6.4956943     865.0604     2281.222      4026.25     95.16869     190.1862     380.3347      3.472     4.16     1320.505     67.02685     143.2607         6     1.053     0.469  87.57   0
        97    695.8450    718.4244 307.6282821  +6.5148317     4515.628      14990.5     22787.01     94.71442     190.1862     380.1078      3.369     8.64      1310.76     67.02685     481.2013       100     2.821     2.119 -24.33   0
        98    615.0725    713.2554 307.6620230  +6.5142947     801.3256     2049.283     3698.496     95.16869      190.035     380.2213      3.396     7.10     1312.208     67.02685     117.0923        11     1.711     0.826 -89.83   2
        99    589.0388    709.3534 307.6729731  +6.5150467      4610.18     16206.97     29366.84     95.16869     190.1862       380.07      3.887    16.68     1312.736     67.02685     454.5443       135     3.409     2.517  -4.14   2
       100    597.6320    708.1913 307.6694410  +6.5158127      4685.42     5118.246     6512.543     94.71442     189.9593       380.07      0.954     3.10     1312.297     67.02685     1688.119         6     0.914     0.307  56.53   3
       101    594.5043    704.0095 307.6708811  +6.5174399     5242.045     6187.941     6051.223      95.0175     189.7322     379.9944      1.172     4.12     1312.024     67.02685      1474.71         8     1.138     0.426  75.59   3
       102    602.8461    713.9111 307.6670821  +6.5136179     2368.995     2800.706     4160.561     95.31963      190.035     380.3725      0.812     1.54     1312.675     67.02685     984.9794         9     0.853     0.565  56.44   0
       103    921.5087    707.7047 307.5348573  +6.5267352     1365.527     3829.317     5454.113     95.31963       190.79     380.2213      3.094    10.43       1305.7     67.02685      155.527        32     2.200     1.479 -26.32   0
       104    360.4333    704.5342 307.7681372  +6.5094520     7671.067     27353.77     44103.98     95.16869     190.2618     380.2213      3.503     9.13     1317.587     67.02685      762.344       116     2.872     2.307 -21.48   0
       105    107.8718    705.0977 307.8730715  +6.5008134     794.6266     1990.111     3099.148     95.16869     190.3374     380.2591      2.732     7.78     1317.132     67.02685     95.44592        10     1.878     0.901 -33.69   0
       106    889.9405    698.3762 307.5482892  +6.5295532     2016.812     5567.299      7343.36     94.86608     190.1862       380.07      2.879     9.42     1305.827     67.02685     209.6952        50     2.361     1.567 -24.25   0
       107     39.7364    701.3516 307.9015111  +6.5000927     518.5925     1564.477      2305.19     95.16869      190.035     380.3347      3.004     5.33      1317.53     67.02685     88.41821         6     1.628     0.493  21.20   0
       108    218.8444    697.1599 307.8272244  +6.5077949     3488.137     7868.598     11264.65      95.0175     190.1862     380.1457      2.646     8.01     1317.089     67.02685     334.6969        31     2.286     0.993 -23.67   3
       109    218.3518    693.7054 307.8275455  +6.5092083      3950.16     10071.27     15545.84     95.16869      190.035     380.4103      3.253     9.75     1316.846     67.02685     404.1375        65     3.065     1.530 -15.94   3
       110   1021.6778    685.4330 307.4939713  +6.5392630     3420.652     9064.604     9503.241     95.16869     181.2057     322.5322      2.471     7.34     1303.914     67.02685     399.5751        44     1.969     1.558 -49.62  24
       111    118.4901    686.4737 307.8692874  +6.5088759     979.5189     2292.311     4127.892     95.31963     190.4884     380.2969      2.704     4.98     1315.907     67.02685     173.9562         9     1.432     0.491 -33.84   3
       112    120.2167    682.7597 307.8686952  +6.5104707     1523.346     4268.238     6791.863     94.71442     189.9593     380.0322      3.320    12.48     1315.712     67.02685     164.5321        39     2.663     1.627   0.49   2
       113    140.8098    677.7399 307.8603069  +6.5132346     744.6961     1794.391     3362.797     94.56251      190.035     379.9187      3.605     6.55     1315.455     67.02685     131.5687         8     1.439     0.836 -13.52   0
       114     13.8706    668.0112 307.9133852  +6.5130299     1044.884     2900.505     4071.412     94.71442     189.8079     380.0322      3.201     7.55     1317.059     67.02685     166.3146        13     1.615     0.989  63.04   2
       115    417.9694    670.2698 307.7453795  +6.5255467     1908.628     3847.657     6244.721     95.16869     190.1862     380.2213      2.829     8.89     1314.672     67.02685     227.6631        29     2.234     0.987 -12.39   3
       116    417.6591    666.2788 307.7456426  +6.5271883     1951.164     4971.497     8219.894     95.47034     190.1862     380.1835      3.584    11.18     1314.384     67.02685     218.4689        44     3.001     1.295 -13.68   2
       117    757.3851    664.9970 307.6044976  +6.5389849     3903.953        12750     19836.08     94.86608     189.7322     380.1078      3.535    10.15     1305.723     67.02685     415.0514        90     3.005     1.958 -19.18   0
       118   1001.5710    659.5999 307.5031916  +6.5492924     1542.838       4218.2     4946.911     94.41036     189.8837     380.0322      2.776     9.52     1301.924     67.02685     185.4546        39     2.199     1.527 -38.98   0
       119    465.2919    653.6064 307.7262732  +6.5340157     849.9528     1961.574     4188.703     94.86608     189.8079     380.0322      3.686     7.72     1312.745     67.02685     143.5126         9     2.112     0.789  71.08   2
       120    823.2802    647.8641 307.5776850  +6.5482575     11043.92     33392.36     49103.23      95.6208     190.2618     380.2213      3.228     7.91     1303.886     67.02685     1018.528       112     2.742     2.116 -29.11   0
       121    679.7787    633.9537 307.6377923  +6.5492646     22082.72     74048.28     115898.7     94.86608     190.1862       380.07      3.417     8.61     1305.432     67.02685     2148.582       152     2.979     2.293 -23.35   0
       122    595.5634    638.0289 307.6726561  +6.5447863     695.8607     1717.854     3226.425     94.86608     189.8837     380.0322      2.771     4.72     1307.042     67.02685     78.79346         7     1.138     0.556  63.30   1
       123    541.2898    628.9512 307.6955173  +6.5467436     679.8939     1950.875      3989.57     95.31963     189.9593     380.4481      3.384     6.27     1308.543     67.02685     116.2996         7     1.720     0.642 -24.45   2
       124     80.5243    629.8079 307.8869764  +6.5310652     1501.486     5555.418     8569.008     94.86608     189.5806     380.0322      3.443    13.45     1312.737     67.02685     172.0415        60     2.559     2.169 -34.72   2
       125    525.4850    628.9727 307.7020850  +6.5462103     1676.823     3211.166     4347.167     95.47033     189.8837     380.1078      2.179     6.99     1309.071     67.02685     167.3677        17     1.306     1.106  22.42   3
       126    526.3107    624.9960 307.7018755  +6.5478837     1728.468     4747.963     7510.439     94.71442     189.8079     379.8808      3.262    15.36     1308.813     67.02685     190.8745        57     3.326     1.973 -31.59   2
       127    389.4037    624.2457 307.7587992  +6.5436480     6151.312     15886.15     19626.04     94.56252     189.8079      379.843      2.637     8.49     1311.408     67.02685     623.1721        40     2.229     1.237 -19.38   3
       128    388.4897    620.4788 307.7593058  +6.5451768     6823.487     17610.68     27290.49     95.01751     190.4884     380.3725      3.194    10.35     1311.114     67.02685      695.609        83     3.227     1.809  -9.95   3
       129    253.9823    623.0050 307.8151207  +6.5396582     738.5841     2149.116     4242.874     94.86608     189.7322       380.07      3.709     5.55     1311.906     67.02685     138.3561         8     1.731     0.502  21.44   2
       130    478.4745    614.5005 307.7221091  +6.5506403     1977.375     4758.116     7119.108     94.71442     190.3374     380.1457      2.938     9.34     1309.488     67.02685     215.6785        26     2.123     1.146 -17.14   3
       131    478.3253    610.9095 307.7222918  +6.5521217     2237.797     6273.584     10837.04     95.31963     190.4129     380.2969      3.858    13.81     1309.176     67.02685     212.9183        58     3.298     1.608 -11.86   2
       132    747.3253    611.6754 307.6104659  +6.5607235     716.5149     2012.724     3296.677      95.6208     190.4884     380.3725      2.986     6.35     1302.372     67.02685     94.27295         7     1.933     0.585 -46.57   3
       133    748.6191    608.9990 307.6100179  +6.5618742     736.1251     1766.007     3720.875     94.86608     189.6564     379.9187      4.142    11.07     1302.168     67.02685      109.006         9     2.377     1.435 -82.38   2
       134    745.0280    609.6834 307.6114875  +6.5614720     793.4505     1746.613     2904.489     95.16869     189.9593     380.1835      2.408     4.65     1302.256     67.02685     128.1637         8     1.198     0.512 -38.01   3
       135    367.3567    598.5380 307.7688269  +6.5535562     1847.605     5304.762     9022.408     95.31963     190.1106     380.3725      3.363    10.04     1309.391     67.02685      219.791        48     2.539     1.599  11.33   3
       136    368.7905    594.7183 307.7683596  +6.5551849     1572.265     3755.203     5106.236     94.86608     189.7322       380.07      2.847     9.27      1309.02     67.02685     203.7483        27     2.493     0.963  15.14   3
       137    735.3091    592.4201 307.6161058  +6.5682960     15107.52     50916.55     78826.05     95.16869     189.8837     380.1078      3.390     8.53     1301.106     67.02685     1529.855       134     2.894     2.265 -26.79   0
       138    408.3554    594.0297 307.7519394  +6.5567848     637.5926     1423.509     2463.203     94.86608     190.1862     380.1078      2.218     5.16     1308.809     67.02685     98.40833         8     1.607     0.468 -48.89   0
       139    394.6849    588.4913 307.7578072  +6.5586230     689.2449     1716.944     2361.015     95.01751     190.7146     380.3725      2.578     4.83     1308.267     67.02685     119.1714         5     1.319     0.500 -45.28   0
       140    970.7753    588.1708 307.5183800  +6.5778427     737.8649     1892.978     2390.154     94.71442      190.035       380.07      2.570     6.16     1296.401     67.02685      145.037         9     2.176     0.490  -7.57   0
       141    911.1626    587.5995 307.5431766  +6.5761093     830.7925     1910.938     2841.393     94.25796     189.9593     380.0322      2.895     3.70     1298.325     67.02685     120.4503         7     0.936     0.699 -47.28   0
       142    169.1953    581.7573 307.8517475  +6.5539085     615.4836     1620.915     3864.954     94.56251     189.8079     379.8808      3.841     4.39     1309.513     67.02685     88.91504         5     0.754     0.728  43.13   0
       143    734.3137    579.3561 307.6169575  +6.5736707     1454.006     3766.714     6562.709     95.31963      190.035     380.2591      4.639    10.95     1300.221     67.02685     180.9495        33     2.334     1.430   7.24   3
       144    733.9960    574.7069 307.6172454  +6.5755846     1546.939     3208.194     5500.284     94.86608     189.8079     379.9187      4.316     9.67     1299.939     67.02685     220.9984        28     2.303     1.132   4.54   3
       145    750.1214    576.1214 307.6104957  +6.5755331     906.4521     2457.116     3987.378      95.6208     190.4884     380.3725      3.259     5.24     1299.869     67.02685     134.7844         7     1.016     0.765  70.11   2
       146    988.2431    567.2600 307.5118189  +6.5870755     1813.381     3716.737      6170.36     95.31963     190.1862     380.3725      3.130     8.32     1293.653     67.02685     228.8652        24     2.361     0.888  -0.26   3
       147    988.2491    564.5809 307.5119060  +6.5881847     2299.444     5205.321     7576.879     94.71442     190.2618     380.0322      2.971     7.94     1293.458     67.02685     238.6163        34     2.147     1.240 -12.09   3
       148    230.0493    564.4906 307.8270388  +6.5630818     1375.554     3202.803     6086.852     95.31963     189.9593     380.4481      4.400     8.38     1307.216     67.02685     162.0697        23     1.765     1.112 -24.89   3
       149    228.9566    559.7890 307.8276514  +6.5649914       1465.9     4172.268      7822.34     94.71442     189.9593     379.9187      4.291    12.05     1306.888     67.02685     183.9374        40     2.780     1.725 -15.76   2
       150    705.9909    542.8135 307.6299550  +6.5878588     1287.568     3973.791     6964.846     95.01751     189.8837     380.1457      3.619    12.01     1298.685     67.02685      170.906        32     2.614     1.537 -65.28   2
       151    203.4511    528.0602 307.8393212  +6.5772753     511.5865     1824.476     2646.853     95.31963     190.1106     380.2591      1.976     3.40     1305.246     67.02685     101.5189         5     1.758     0.190  54.49   0
       152    439.9271    518.9111 307.7413443  +6.5889269     5566.384     12429.83      15614.2     95.31963     190.4884     380.2969      2.440     8.78     1301.291     67.02685     601.0917        43     2.407     1.165 -18.41   3
       153    439.8421    514.5798 307.7415253  +6.5907169     5405.642     14181.48     23074.67     94.71442     189.9593       380.07      3.295    10.69     1300.954     67.02685     512.6852        76     3.373     1.597 -12.36   3
       154    765.4318    515.3481 307.6061694  +6.6011961     3765.504     12814.98     20096.23     95.16869     190.2618     380.1835      3.410     9.26     1296.249     67.02685     389.1951        99     2.755     2.237 -28.58   0
       155    128.9902    512.1511 307.8708046  +6.5813799     722.0031     1544.162     2920.853     94.71442     189.9593     379.8808      1.711     3.97      1306.43     67.02685     103.9281         6     1.508     0.299 -59.34   0
       156    563.8057    505.0054 307.6903227  +6.5987952      1035.53     2311.174     3861.979     94.56251     189.9593     380.0322      2.823     7.99     1298.698     67.02685     139.5144        17     1.833     0.975 -17.37   3
       157    563.9855    500.6911 307.6903929  +6.6005870     1147.878     3033.003     4150.491      95.0175     189.9593     380.0322      3.013     8.13     1298.426     67.02685     121.1039        18     1.566     1.181 -18.32   3
       158    870.5753    498.5421 307.5630283  +6.6116316     3249.584     10597.62     15192.75     94.86609     190.1862     380.1078      3.163     8.63     1292.032     67.02685     366.7675        81     2.656     2.023 -28.63   0
       159    924.3935    498.8568 307.5406472  +6.6132806     1073.525     3001.655     3761.006     94.71442      190.035     379.9187      2.678     8.41     1291.679     67.02685     123.4158        20     1.814     1.088  71.71   0
       160    957.1868    496.2997 307.5271016  +6.6154228     3233.832     9785.866     13735.12     95.01751     189.8837     379.9565      3.098     8.15     1290.001     67.02685     363.3774        71     2.553     1.848 -31.09   0
       161      1.4646    495.4018 307.9243708  +6.5840601     3252.754     5008.647      5849.01     84.44319     153.3612     288.3121      1.703     5.02     1307.431     67.02685     555.6494        19     1.822     0.646 -88.57  24
       162    477.3822    492.8043 307.7266544  +6.6009771     609.4622     1531.633     3047.291     94.86608     189.7322       380.07      2.473     4.39     1299.005     67.02685     79.70947         5     1.169     0.470 -83.35   0
       163    721.2456    486.5967 307.6254998  +6.6116340     10424.72     24101.41     29476.64     94.56252     189.8079      379.843      2.514     7.01     1295.909     67.02685      1072.18        45     2.326     1.137 -20.45   3
       164    720.5049    482.9920 307.6259286  +6.6131016     10362.06     26232.09     39487.09      95.0175     189.7322     380.0322      3.090    10.58     1295.747     67.02685     959.7676        81     3.214     1.594 -17.49   3
       165    324.1541    484.5904 307.7906186  +6.5992849     1815.887     6085.382     11523.11     94.71442      190.035     379.8808      3.932    11.54     1300.655     67.02685     215.5325        85     2.836     2.315 -50.43   0
       166    808.9766    486.8711 307.5890239  +6.6144249     634.5714     1747.961     3050.066     94.86608      190.035     380.2213      2.537     4.65     1293.495     67.02685      129.924         5     1.434     0.428  73.12   0
       167    490.0003    486.7145 307.7216144  +6.6039168     684.9393     2142.889     3855.599     94.41035     189.5806      379.843      2.789     5.42     1298.428     67.02685     98.65247         7     1.681     0.493 -87.24   0
       168    888.5772    481.6056 307.5561126  +6.6192375     2331.517      7188.31     10685.71     94.86609     189.8837       380.07      3.243     9.36     1290.196     67.02685     253.3289        68     2.521     1.918 -34.85   0
       169    433.7090    483.5362 307.7451186  +6.6033628     1293.181     2782.463     4407.169     95.31963     190.4129     380.3347      2.901     8.14     1298.353     67.02685      157.174        20     1.863     0.994 -39.49   3
       170    432.0084    479.3540 307.7459661  +6.6050374     1042.176     3053.347     4520.169     94.71442      190.035      379.843      3.019    10.35     1297.856     67.02685     112.2427        22     2.095     1.425 -48.20   3
       171    665.9029    498.7751 307.6480950  +6.6047594     690.3035     2069.836     3784.839     95.47033     189.8837     380.1457      3.761     8.19     1297.374     67.02685     103.7828        11     1.971     0.951 -19.44   2
       172     90.9128    473.8810 307.8879217  +6.5959511     1074.833     3479.193      6367.58     95.01751     190.4884     380.4103      3.636    10.58      1306.65     67.02685     145.2548        28     2.399     1.299 -48.39   2
       173    260.7268    471.7950 307.8174124  +6.6024710     8157.189     18512.91     24411.67     94.86608     189.6564     380.1457      2.654    10.06     1300.983     67.02685     822.6317        55     2.833     1.312 -12.30   3
       174    259.8969    467.0977 307.8179156  +6.6043877     7753.017     19620.23     28372.73     95.31963     190.8654       380.07      2.946    10.08     1300.414     67.02685     738.7865        73     3.135     1.391  -7.93   3
       175    235.8829    471.9011 307.8277348  +6.6016001      1581.42     5075.822     9271.638     95.31963       190.79     380.3725      3.715    13.29     1301.141     67.02685     179.0541        45     2.302     2.135 -71.89   2
       176    384.8587    466.8991 307.7659828  +6.6086260     11694.03     30440.64     50247.89      95.0175     190.1862     380.4103      3.423    12.30     1297.161     67.02685     1220.905       101     3.495     2.029 -34.93   3
       177    383.4987    462.4885 307.7666965  +6.6104064     11333.22     26271.75     33320.04     95.31963     190.7146     380.2591      2.608     6.89     1296.696     67.02685     1079.822        47     2.271     1.358 -10.24   3
       178    140.6340    466.2807 307.8675128  +6.6007542     884.9717     3391.976     5701.732     95.16869     190.2618     380.2969      3.530     3.85     1303.193     67.02685     119.2313         7     0.852     0.615  58.52   2
       179    289.0100    464.8020 307.8058924  +6.6063066      4437.91     11649.31     17317.55     94.71442     189.8079     380.0322      3.213    11.69      1299.94     67.02685      473.104        71     3.188     1.585 -19.40   3
       180    287.9645    460.2662 307.8064798  +6.6081493     4246.251     11169.47     16587.16     95.16869     190.1862     380.3347      3.177     9.70     1299.332     67.02685     452.8678        54     2.960     1.242  -9.65   3
       181    723.0028    458.6979 307.6257052  +6.6232404     8573.736     21205.36     32183.55      95.0175     189.8837     379.8808      3.064     9.99     1293.369     67.02685     844.3694        87     3.199     1.793  -9.41   3
       182     40.4596    458.5397 307.9094091  +6.6006185     2320.965     8581.131     13689.16     95.31963     190.1862     380.2969      3.523    11.23     1306.596     67.02685     283.9554        76     2.469     2.240 -38.29   0
       183    723.5298    462.5222 307.6253579  +6.6216749     8706.095     19181.77     22961.21      95.6208     190.4884     380.2213      2.427     7.30      1293.77     67.02685     894.3228        37     2.146     1.165 -16.19   3
       184    981.8010    441.1076 307.5187163  +6.6390820     712.9103     2079.517     2922.877     94.56251     189.6564     379.9565      3.043     6.35     1284.481     67.02685     104.4546        10     1.432     0.791  39.31   0
       185    258.9696    435.5317 307.8193647  +6.6174224     6697.055     25987.31     45714.21     95.16869     190.1862     380.2213      3.756     9.97     1296.864     67.02685     780.6179       137     3.110     2.489 -23.96   0
       186      4.9825    434.2361 307.9249752  +6.6094943     1242.918     4383.135     6732.788     94.71442     189.9593     347.6723      3.333    12.00     1307.354     67.02685     161.1495        43     2.213     1.810  75.84  26
       187    690.3662    431.7519 307.6401754  +6.6333130     2247.193     7537.421     11649.56     95.01751     190.1862     380.1835      3.434     9.95     1290.855     67.02685     238.0072        79     2.652     2.141 -22.79   0
       188    105.8705    427.8530 307.8832583  +6.6155011     920.0598     2131.676     2958.887     95.16869     190.1106     380.1835      2.353     8.91     1302.943     67.02685     116.0504        14     2.017     1.099 -72.43   3
       189    101.3054    431.8518 307.8850208  +6.6136938     1261.908      2679.02     3653.544     95.16869     190.1106     380.5614      2.785     7.03     1303.496     67.02685     165.3778        16     1.668     0.850 -32.66   3
       190    100.3118    427.1516 307.8855924  +6.6156062     1183.902     2668.483     4706.514     95.31963      190.035     380.3725      4.137     8.01     1303.213     67.02685     134.9613        19     1.528     1.173  19.25   3
       191    372.8577    423.3907 307.7724355  +6.6262361     950.7628     3023.981     5875.794     94.56251     190.1106     379.9187      3.770     9.92     1293.174     67.02685     125.1425        18     2.284     1.201   4.26   2
       192    337.9419    426.5753 307.7868413  +6.6237570     804.7797     1764.433     3016.618     94.86608     190.1862     380.1078      2.596     4.99     1294.642     67.02685     116.1593         7     1.192     0.590 -58.38   0
       193    337.3168    421.4468 307.7872739  +6.6258590     752.4513     1665.097     3153.303     95.31963     190.1862     380.2591      3.147     4.79      1294.08     67.02685     138.6193         7     1.378     0.472   6.87   0
       194    189.0700    415.5742 307.8490912  +6.6233558     1328.795     2767.009     4999.259     94.86608      190.035     380.1835      2.806     8.15     1297.549     67.02685     175.7318        23     2.239     0.829 -20.62   3
       195    187.4866    411.0436 307.8499021  +6.6251783     1295.096     3643.459     5879.284     95.31963      190.035     380.2591      3.361    12.27     1297.462     67.02685     151.9622        38     2.717     1.543 -18.14   2
       196    650.8450    413.3286 307.6572219  +6.6396291     1547.238      3633.38     6685.489     95.16869     190.1862     380.2591      3.408    10.97     1289.172     67.02685     173.3051        39     2.891     1.159 -15.73   3
       197    650.2402    409.2419 307.6576105  +6.6413007     1515.217       3434.9      4745.54     95.01751     190.1862     380.1078      2.725     8.75     1288.789     67.02685     156.7454        27     2.133     1.003  -5.55   3
       198     71.4057    413.0121 307.8980843  +6.6204948     639.9184     2040.824     3389.371     94.86608     189.9593     380.1457      2.252     3.45     1303.911     67.02685     80.14612         5     1.509     0.228 -73.05   0
       199    606.2048    402.8150 307.6761311  +6.6425009     12953.16     32953.28     53405.71     94.86608     189.8079       380.07      3.743     9.37     1288.632     67.02685     1359.549       143     4.274     2.122 -44.98   3
       200    605.4066    398.1982 307.6766180  +6.6443854     11934.66     28350.78     39872.07     94.56252     189.8079     380.0322      2.842     9.64     1288.161     67.02685     1232.581        72     3.121     1.278 -10.37   3
       201    330.4157    407.2097 307.7906218  +6.6315224     1009.948     2996.039     5777.239     95.01751     189.8837     380.1457      3.614    10.45     1293.022     67.02685     135.4108        16     2.675     1.137 -41.79   2
       202    284.2068    394.3867 307.8102612  +6.6352928      859.471     2710.419     4563.079     94.86608     189.9593     380.1078      3.692     6.73      1293.29     67.02685     106.1836        10     1.879     0.676 -23.83   2
       203    671.0942    385.1616 307.6497499  +6.6519594      861.215     2382.838     3505.954     95.47033      190.035     380.4103      2.851     6.92     1286.199     67.02685     123.0544        12     1.826     0.736 -77.38   0
       204    411.2162    378.3672 307.7580063  +6.6461471     948.6045      2566.99     5109.214     94.86608     189.8837     380.1078      3.979     8.04     1288.094     67.02685     134.9204        13     1.639     1.103  -9.98   2
       205    884.4244    372.2589 307.5615005  +6.6643626     1299.445     3188.385     5763.775     94.86608     190.1862       380.07      3.494     7.95     1281.977     67.02685      144.464        21     1.645     1.074 -10.69   2
       206    866.2328    373.4131 307.5690243  +6.6632832     712.7421     1618.717     2307.425     94.71442     189.8837     380.1835      2.383     2.90     1282.406     67.02685     109.1979         5     0.713     0.466  17.14   0
       207    124.0598    366.4694 307.8777696  +6.6415147     1027.982     2736.549     5681.396     95.47033     190.1862     380.2213      4.117     8.17     1298.792     67.02685      120.264        18     1.816     1.027 -14.69   2
       208      5.6820    362.4871 307.9271086  +6.6392148     3133.689     11342.18     18343.95     95.01751     190.4129     357.0965      3.517     9.98     1307.411     67.02685     337.4279        97     2.738     2.363 -48.90  24
       209    807.0732    356.2316 307.5941933  +6.6684379     1745.748     5815.594     9072.403     95.16869     190.1862     380.2969      3.410    11.74     1282.476     67.02685     207.5415        57     2.187     2.039 -61.65   2
       210    752.3088    358.5392 307.6168820  +6.6656697     1086.472     2745.859     5113.719     95.16869     190.2618     380.3347      4.100    11.45     1282.924     67.02685     157.4071        20     2.126     1.718  16.08   2
       211     44.4544    356.3731 307.9111992  +6.6430391     773.9318     2096.565      3586.13     94.86608     190.2618     380.1078      2.797     4.59     1304.325     67.02685     118.5033         6     1.221     0.490  45.19   2
       212     73.8490    340.6078 307.8995135  +6.6505448     2597.062     6589.305     9687.271     94.71442     189.9593      379.843      3.167    11.03     1301.844     67.02685     300.2816        56     3.034     1.460 -22.24   3
       213     73.2622    336.5116 307.8998957  +6.6522207     2229.053     5465.216     8392.997     95.31963     190.4129     380.3347      3.071     8.45     1301.948     67.02685     239.7919        41     2.420     1.361  -8.27   3
       214    615.7641    330.2330 307.6745949  +6.6728615     4329.162     16023.63     27107.91     94.86608     189.8837     379.9565      3.645     9.77      1281.33     67.02685     466.2207       113     2.894     2.412 -28.16   0
       215    515.6479    326.2052 307.7163493  +6.6712068     1156.474     4305.402     7392.193     94.56252     189.9593     379.8808      3.725    14.31     1281.792     67.02685     143.8655        55     2.550     2.234   2.68   0
       216    242.0873    325.2165 307.8301003  +6.6625214     2268.069      5589.02     9506.888      95.0175     189.8837     380.1457      3.618    11.30     1291.991     67.02685     267.6768        45     2.834     1.255 -23.29   3
       217    241.7620    319.8106 307.8304178  +6.6647481     1787.583     5158.369      8292.47     94.56251     189.9593     379.9187      4.756    12.88     1291.744     67.02685       185.91        51     3.242     1.424 -28.84   3
       218    601.3737    320.5343 307.6809029  +6.6763988     854.6014     2777.399     4803.643     94.86608     190.1106     380.1457      3.828     9.16     1280.453     67.02685     104.9153        15     2.077     1.127  87.71   0
       219    421.1449    322.0428 307.7557744  +6.6697908     4901.633     18799.39     34207.88     95.16869     190.1862     380.2591      3.824    10.43     1284.367     67.02685     618.7271       130     3.083     2.532 -21.36   0
       220    160.4219    306.4448 307.8646804  +6.6675712     2620.551     6609.898     10085.79     94.71442      190.035     380.0322      3.008    10.33     1295.877     67.02685      276.358        51     2.912     1.302 -20.09   3
       221    159.8529    302.0284 307.8650659  +6.6693802     2342.076     5787.001     8394.211     95.01751     190.3374     380.1457      2.807     8.33     1295.877     67.02685     235.7129        37     2.312     1.110  -5.37   3
       222    904.8219    301.6863 307.5553841  +6.6942494     1293.756     4108.153     5979.844     95.31963     189.9593     380.1078      3.206    11.08     1276.015     67.02685     171.1652        43     2.044     1.872 -45.68   0
       223    968.9297    298.0512 307.5288537  +6.6978730     618.9374     1801.367      2626.31     95.16869     190.1106     380.2969      2.614     6.20     1273.983     67.02685     100.7567         7     1.982     0.544  60.90   0
       224    689.7892    296.8438 307.6449423  +6.6891362      1872.08     4160.579     6374.474     94.71442      190.035     379.9187      2.764     8.63     1278.091     67.02685     243.4355        28     2.078     1.040 -15.36   3
       225    688.7914    292.9588 307.6454875  +6.6907112     1921.844     5168.568     8227.649     94.56251     189.9593     379.9565      3.128    11.28     1277.754     67.02685     240.4272        47     2.842     1.437  -3.50   3
       226    608.4525    295.9809 307.6787849  +6.6867968     937.0556     2992.467     4859.691     94.71442     190.2618     380.0322      3.453     9.39     1277.755     67.02685     126.1664        19     1.621     1.518 -39.36   2
       227     10.7375    290.7712 307.9274305  +6.6690669     1931.238     7586.759     12199.59     95.01751     190.1862     380.1835      3.475    10.81     1308.067     67.02685     274.2755        74     2.652     2.194 -33.45  16
       228    409.4874    292.5133 307.7616142  +6.6816262     1554.551     3958.021     6597.873     95.01751     190.4884     380.3725      3.560     9.68     1283.136     67.02685     166.2883        27     2.108     1.240 -28.07   3
       229    408.6161    288.1910 307.7621219  +6.6833863     1415.652     3434.826     6845.759     95.01751     189.8837     380.1078      4.299    10.39     1282.836     67.02685     169.2245        28     2.506     1.200 -11.71   2
       230    307.0010    287.7682 307.8043781  +6.6801822     3261.039      8268.12     12126.23     94.56251     189.9593     379.9944      2.998    10.67     1285.826     67.02685     339.1835        51     2.675     1.409 -14.74   3
       231    305.9684    282.7878 307.8049752  +6.6822093     2945.672     7631.088     11139.15     94.71442     189.9593     380.1457      3.070    10.46     1285.748     67.02685     284.6737        57     2.935     1.489  -7.52   3
       232    372.1588    286.1900 307.7773449  +6.6830026     657.3373     1687.405     2781.204     94.56251     189.9593     379.9565      2.804     4.33     1283.945     67.02685     92.25842         5     0.841     0.636  35.05   0
       233    624.2844    272.0982 307.6730053  +6.6972075     2033.722     4951.924     8033.922     95.31963     190.6393     380.3347      4.104    10.91      1275.48     67.02685     221.1619        37     2.786     1.191 -17.78   3
       234    625.9932    275.8669 307.6721683  +6.6957042     2364.517     7340.579     13412.07     94.71442     189.8837     380.0322      4.435    15.68     1275.875     67.02685     249.5277        75     4.168     1.640 -24.10   3
       235    632.9970    280.7840 307.6690915  +6.6939012     2599.919     6245.921     8641.457     94.86608     189.7322       380.07      2.801    10.19     1276.396     67.02685     273.7811        47     2.796     1.213 -12.94   3
       236    633.3456    276.4774 307.6690912  +6.6956953     2481.888      6189.27     10148.76     95.47034     190.1862     380.2591      3.565    10.06     1275.918     67.02685      251.433        39     2.528     1.270 -11.67   3
       237    371.4114    280.8459 307.7778355  +6.6851898     714.2034     1635.461     2769.366     94.71442     189.9593     379.9187      2.546     2.71     1283.747     67.02685     116.8203         5     0.714     0.463 -72.01   0
       238    237.7979    273.6201 307.8336228  +6.6837350     908.2433      1642.96     2613.758     94.86608     189.7322     379.9565      2.146     5.67     1290.495     67.02685     125.4709         9     1.619     0.560  58.86   3
       239    233.6278    278.1783 307.8352027  +6.6817094     1621.149     4500.709     7117.152     94.71442     189.9593     380.1835      3.307    11.60     1290.853     67.02685     195.0985        42     2.638     1.420 -12.66   3
       240    234.3980    273.7969 307.8350302  +6.6835486     1508.169     2940.713     4885.044     94.56252     189.6564     379.9565      2.803     7.69     1290.844     67.02685     168.6125        17     1.582     1.094 -89.67   3
       241    231.2078    273.3077 307.8363729  +6.6836448     1059.814     2211.414     2628.876     94.86608     189.8079     380.0322      2.748     6.29     1291.104     67.02685     148.8901        13     1.784     0.623 -51.22   3
       242    395.7950    275.6758 307.7678730  +6.6881404     2060.084     5833.447     9985.068     94.86608     189.5806     380.1078      3.612    12.50     1282.459     67.02685      211.672        70     3.073     2.196 -15.72   2
       243    393.7181    271.7074 307.7688700  +6.6897140     1455.379     2593.406     3788.283     95.01751     190.5638     380.3347      2.354     5.42     1282.284     67.02685     185.4781        12     1.261     0.983  79.15   3
       244    656.3406    271.6823 307.6596924  +6.6984425     4573.042     16303.68     30759.42     95.47034     190.2618     380.2969      3.954    10.41     1275.675     67.02685     441.9313       137     3.500     2.387 -34.12   0
       245     43.6724    266.9231 307.9145458  +6.6800367     818.5089     2390.225     4362.958      95.6208     190.4884     380.2591      3.639     4.98     1304.977     67.02685     126.5652         8     1.013     0.694  81.87   2
       246    132.5758    266.8589 307.8775915  +6.6830280     1291.667      4012.65     7284.243     94.86608     190.1862       380.07      3.536    12.94     1298.269     67.02685     143.2554        43     2.831     1.646 -34.72   2
       247    867.0030    262.7303 307.5724119  +6.7091239     671.3749      1400.74     2845.378     94.71442     189.7322     380.0322      3.500     5.65     1273.498     67.02685     91.34106         7     1.478     0.608 -72.42   2
       248    865.9974    258.5528 307.5729699  +6.7108199     566.0452     1502.565     2616.944     94.56251     189.8079     379.7673      2.741     5.48      1273.22     67.02685     104.0966         7     1.776     0.477   4.69   2
       249    774.2777    254.1666 307.6112491  +6.7096001     847.0114     2090.274     3665.182     95.16869     190.1862     380.2213      2.336     4.41     1274.189     67.02685     126.7319         6     1.425     0.397 -57.51   0
       250    600.1533    249.1290 307.6838089  +6.7059147      3213.03     7295.965     10171.86     95.31963     190.1862     380.2591      2.667     8.94     1273.202     67.02685     415.6965        46     2.588     1.268 -11.20   3
       251    599.5120    244.4795 307.6842317  +6.7078179     2874.808     6384.588     10085.18     95.01751     190.4884     380.4103      2.933     9.74     1272.726     67.02685     293.7203        51     2.952     1.268  -3.84   3
       252    739.0524    243.8193 307.6262409  +6.7127166     1214.634     2034.586     3686.912     94.71442     190.2618     380.0322      2.429     4.77     1273.274     67.02685     158.4487        10     1.168     0.640 -30.31   3
       253    739.7072    240.2621 307.6260881  +6.7142107     1405.631     4413.623     7960.861     95.31963     190.1862     380.3347      4.125    12.54     1272.906     67.02685      176.158        45     2.661     1.645  -4.35   2
       254    230.3662    235.4774 307.8379983  +6.6992751     1732.177     3101.275     3222.695     95.16869     190.1862     380.2213      1.962     7.47     1291.141     67.02685     244.9376        18     1.797     0.870  68.66   3
       255    226.3076    239.8501 307.8395381  +6.6973301     2742.292     6488.931     8594.999     95.16869      190.035     380.4859      2.614     8.83     1291.532     67.02685     260.4283        42     2.303     1.445  -3.39   3
       256    225.6535    235.1344 307.8399690  +6.6992602     2396.979     5628.778     8312.673     95.31963     190.1106     380.2213      2.719     7.68     1291.531     67.02685      231.229        31     1.971     1.180  -5.23   3
       257      2.5431    236.7643 307.9326618  +6.6911469      5442.05     10638.15     13394.38     95.16869     171.0013      309.057      2.278     9.16         1307     67.02685     600.4137        46     2.753     1.266 -45.79  27
       258      1.9679    232.6090 307.9330414  +6.6928476      3755.92     6181.213     7001.379     90.84055     161.9333     298.3109      1.745     5.61     1306.902     67.02685     405.5787        19     1.299     1.116 -28.99  27
       259    477.5211    228.6186 307.7354809  +6.7103339     2094.476     5675.311     9132.368     94.86609     189.8079     380.1835      3.093    12.50     1271.737     67.02685     231.5024        54     3.062     1.420 -36.69   3
       260    476.1535    224.3719 307.7361923  +6.7120462     1835.179      4333.24     5692.295     94.86608     190.2618     380.1457      2.724    10.02     1271.518     67.02685     207.0142        31     2.395     1.170 -33.16   3
       261    185.5145    224.1891 307.8570245  +6.7024535     2558.555     7169.285     11720.49     94.86608     189.8837       380.07      3.528    12.08     1294.862     67.02685     262.1882        71     2.955     2.446 -36.71   2
       262    184.9620    219.3672 307.8574169  +6.7044309     1968.784     3660.056     5160.921     94.86608     189.9593     379.9944      2.419     8.05      1295.22     67.02685     241.0265        22     2.715     0.667 -22.71   3
       263    324.3927    221.0990 307.7993942  +6.7083561     852.3011     2441.468     6082.499      95.0175     189.7322     380.0322      5.326     7.71     1283.944     67.02685     124.6923        12     1.699     0.979 -47.94   0
       264    826.5357    212.2059 307.5909295  +6.7286986     629.4046      1930.35     4042.828     94.56252     189.8837     379.9944      2.745     3.81     1270.664     67.02685     122.8517         5     1.353     0.308 -30.82   2
       265    828.0930    216.7269 307.5901304  +6.7268788     1097.767     2729.412     5080.974     95.16869     190.3374     380.2969      3.742     6.61     1270.863     67.02685     147.0039        13     1.502     0.817  53.11   2
       266    291.7976    214.3271 307.8131730  +6.7100745     855.4192     1881.667     2658.962     94.71442     189.6564       380.07      2.518     4.89     1285.919     67.02685     110.0087         7     1.076     0.630  19.64   0
       267    773.8493    212.2754 307.6128321  +6.7269258     1688.206     4251.285     6528.687     95.16869     190.2618     380.2591      4.066    14.55     1271.126     67.02685     190.5961        49     3.135     1.878 -36.11   2
       268    772.7803    208.2175 307.6134126  +6.7285701       1344.5     2786.092     3919.739      95.0175     189.9593     380.1457      3.533     7.94     1271.009     67.02685     169.2042        18     2.261     0.779 -22.05   3
       269    295.0001    211.1161 307.8119499  +6.7115102     641.5552     1876.347     2517.339     94.41036     189.5806      379.843      2.796     5.36     1285.963     67.02685     101.7064         7     1.324     0.612  13.01   0
       270    387.9732    208.4705 307.7733872  +6.7156977     958.3428     2958.178     5944.357     94.86608      190.035     380.1835      3.950     7.80     1279.082     67.02685     132.9641        16     1.698     1.003 -11.38   2
       271    806.9358    209.1872 307.5991796  +6.7292995     530.7515     1483.484     3395.592     94.71442     189.9593       380.07      3.392     4.43     1270.819     67.02685     88.48242         5     1.433     0.390   0.36   0
       272     57.1887    204.4583 307.9110372  +6.7063419     645.9786     1196.748      2414.08     94.56252     190.1106     379.9187      3.354     4.35     1304.543     67.02685     91.97046         5     0.913     0.590 -45.23   0
       273    876.8488    193.0937 307.5706514  +6.7382743     890.0056     2299.073     3970.499     95.16869      190.035     380.4103      5.092    11.58     1268.987     67.02685     124.8593        15     2.422     1.542 -73.91   3
       274    876.1260    202.2474 307.5706452  +6.7344614     1266.623     3448.267     5436.374     95.16869     190.2618     380.2591      3.358    10.53     1269.465     67.02685     140.3577        29     2.438     1.268 -22.34   2
       275    875.6306    198.2224 307.5709860  +6.7361111     1214.811     2750.794     6307.355     94.71442     189.9593       380.07      3.962     6.92     1269.262     67.02685     147.1986        16     1.573     0.853 -21.56   3
       276    509.3612    199.2000 307.7232331  +6.7235681     5667.519     14929.95     21538.21     94.10532     189.8837     379.9187      2.925    10.09     1270.245     67.02685     600.6575        70     3.001     1.523 -17.19   3
       277    508.9440    194.9882 307.7235482  +6.7252977     4615.554     11670.17     16010.08     94.56251     190.1106     379.8808      2.871     9.80     1270.125     67.02685      484.921        51     2.901     1.193  -7.47   3
       278    651.0738    195.9620 307.6644245  +6.7296104     681.8888     1521.066     3052.067     95.16869     190.2618     380.3347      3.873     5.49     1270.159     67.02685     88.21313         6     1.069     0.795  17.64   0
       279    804.0546    189.3268 307.6010433  +6.7374249     12613.49     42579.47     69086.22     95.16869      190.035     380.1835      3.500     8.58     1270.076     67.02685     1342.503       143     2.968     2.389 -16.37   0
       280    812.0190    173.0172 307.5982787  +6.7444395     1128.936     2724.894     4859.561     95.01751     189.8837     380.1835      3.641     7.68     1269.297     67.02685     146.6495        17     1.635     1.009 -24.36   2
       281    973.4739    167.9832 307.5313176  +6.7518626     14361.73     43715.97     61807.48     94.71442     189.8837     380.1078      3.134     7.59      1265.91     67.02685     1554.432       118     2.712     2.102 -24.94   0
       282    206.6399    171.7008 307.8500128  +6.7248826     4149.427      11110.7      19190.6     95.31963      190.035     380.5237      3.563    12.39     1296.794     67.02685     446.3351        88     3.132     2.499 -32.68   2
       283    205.4920    166.4896 307.8506658  +6.7270013     2926.095     4767.617      5645.49     95.31963       190.79     380.3347      1.851     4.15       1297.3     67.02685     333.5658        16     1.177     0.899  -2.22   3
       284    256.0133    166.8242 307.8296509  +6.7285453     1356.921     3838.943     7723.941     95.01751     189.9593     380.1835      3.929    10.25     1293.151     67.02685     152.3767        29     2.173     1.349 -38.38   2
       285    258.1177    170.9188 307.8286380  +6.7269206     1679.312     3689.572     6223.548     95.31963     190.4884     380.3725      3.098     7.48     1292.626     67.02685     220.8353        21     1.793     0.873 -44.62   3
       286    847.1711    169.0069 307.5837977  +6.7472627     2347.236     5281.981     7871.552     94.71442     189.9593     380.0322      2.680     9.52     1268.453     67.02685     249.9238        42     2.591     1.201 -27.88   3
       287    845.9963    165.3346 307.5844093  +6.7487440     2095.763     5364.466     7183.661     94.41035     189.8837     379.9944      2.799     9.83     1268.293     67.02685     216.1909        33     2.459     1.096 -23.30   3
       288    710.9772    168.0899 307.6404545  +6.7431329     764.7463     1955.791     3715.894     95.31963     189.9593     380.1078      3.219     3.38     1270.012     67.02685     133.1741         5     0.797     0.503  60.89   0
       289    997.4508    162.8821 307.5215190  +6.7547663     1353.986     3450.904     4659.357     95.31963     190.2618     380.2969      3.094     8.27     1265.469     67.02685     179.1859        23     1.931     1.237 -54.25   2
       290      3.0215    161.2856 307.9350140  +6.7224034     2978.563     8793.746     11055.27     95.31963     177.5997     317.5913      2.784    11.31      1306.57     67.02685     372.7535        53     2.349     1.592 -76.83  24
       291    282.7992    159.9637 307.8187462  +6.7322766       4475.3     12998.19     21472.96     94.25796     189.9593     380.0322      3.451    10.88     1290.891     67.02685      494.865        90     3.341     1.952 -32.61   3
       292    280.8086    156.0209 307.8197067  +6.7338423     3634.873     8650.132     11182.91     94.86608     189.9593     379.9944      2.696     6.42     1291.329     67.02685     402.2428        32     2.118     1.231 -16.93   3
       293    702.3100    156.5737 307.6444446  +6.7476125     1743.375     3965.866     5979.602     95.47034     189.8837       380.07      2.713     9.62     1269.439     67.02685     192.4458        30     2.402     1.075  -6.60   3
       294    702.6841    152.3867 307.6444296  +6.7493580     1545.071     3547.626     4852.888     94.86608     189.9594       380.07      2.844     9.97     1269.142     67.02685     170.3572        30     2.195     1.263   1.25   3
       295    880.7225    144.9339 307.5706543  +6.7583372     868.9926     2227.268     3089.104     95.47033     190.2618     380.2213      2.881     6.51     1266.474     67.02685     102.3574        11     1.540     0.773  42.10   0
       296    758.0536    131.3293 307.6221146  +6.7599085     1049.162     3188.581     5213.134     95.16869     190.1106     380.1457      3.263     9.88     1267.822     67.02685     129.4421        22     2.181     1.248  76.87   0
       297    613.9783    127.1918 307.6821575  +6.7568457     2889.998        10614     17947.36     94.86608     189.9593     379.9944      3.557     9.72     1267.728     67.02685     377.8094        99     2.824     2.346 -29.74   0
       298    930.1096    129.2882 307.5506436  +6.7664465     1635.934     4364.894     6731.264     95.16869       190.79     380.3725      3.299     6.23     1264.516     67.02685     171.2527        23     1.672     1.097 -50.24   2
       299    731.9673    128.3554 307.6330607  +6.7602754     755.9614     2010.364     3788.033     94.86608     190.2618     380.1078      3.161     6.51     1267.876     67.02685     115.2678         7     1.775     0.671  43.81   2
       300    135.6082    122.4341 307.8812059  +6.7429072     883.8266      3076.62     5508.451     94.71442     189.9594     380.0322      3.707     8.10      1300.64     67.02685     156.0013        14     1.725     1.064  53.57   2
       301    265.2551    122.0374 307.8273186  +6.7473906     1674.113      5060.76     9789.745     95.31963     190.2618     380.2969      3.906    13.95     1294.448     67.02685     189.4641        54     2.786     1.943 -15.95   2
       302      1.2194    120.8762 307.9371291  +6.7390686     750.0485     1355.739     1197.868     80.96666     148.8902     283.9914      1.792     4.66     1306.708     67.02685     153.0518         8     1.509     0.409 -87.51  24
       303    100.0004    119.2818 307.8961160  +6.7430246     625.9141     1782.824     3733.544     94.41035     189.5806      379.843      4.204     6.81     1302.389     67.02685     118.0564         7     1.287     1.011 -68.56   2
       304    300.0518    115.9712 307.8130561  +6.7510598     1115.535     4332.988     7985.442     95.01751     190.3374     380.1457      4.061    13.76     1291.662     67.02685     155.8593        52     2.812     1.873 -45.78   0
       305    605.5607    107.7998 307.6863089  +6.7645932     4813.227     10896.43     13240.95     94.10532     189.8837     379.9565      2.557     8.35      1267.36     67.02685     526.6898        53     2.809     1.195  -6.52   3
       306    605.0973    103.0110 307.6866625  +6.7665601     4666.344     12686.23     22682.65     95.01751     189.7322     380.0322      3.636     9.79     1267.264     67.02685     442.2479        86     2.865     2.259   2.08   3
       307    557.9580    103.7974 307.7062358  +6.7646704     5102.087     19698.87     34130.82     94.56251     189.8079     379.9187      3.673    10.00     1268.117     67.02685      641.313       119     3.021     2.389 -26.61   0
       308    483.9941    100.0906 307.7371132  +6.7637488     2172.867     8031.562     14029.54     94.86608     189.8079     379.9565      3.670    10.74     1269.117     67.02685     318.5745        87     2.793     2.328 -11.84   0
       309    414.5803     96.6991 307.7660881  +6.7628460     656.8874     1654.557     3225.875     95.31963      190.035     379.9944      3.305     4.90     1273.722     67.02685     110.9938         5     1.324     0.513 -43.46   0
       310    390.6769     84.2795 307.7764447  +6.7671920      3214.41     8402.328     13440.14      95.6208     190.4884     380.4481      3.258    11.13     1279.151     67.02685     355.2637        67     3.150     1.737 -24.27   3
       311    389.5809     79.8201 307.7770505  +6.7690013     2566.313     6308.792     8415.878     95.01751     190.1106     380.1835      2.768     9.20      1279.57     67.02685      266.786        35     2.372     1.130 -19.56   3
       312    690.7689     83.8198 307.6516854  +6.7773445     853.4882     1970.951     3505.642     94.71442     189.9593     380.1078      3.236     5.01     1265.161     67.02685     121.0889         6     1.245     0.571  72.37   0
       313    849.5847     75.4710 307.5859291  +6.7860597     5933.361      19368.5     29138.22     94.71442     190.1106     380.1457      3.337     8.44     1263.239     67.02685      658.097        98     2.680     2.152 -22.59   0
       314    677.7941     68.6861 307.6575885  +6.7831785     865.6088     2031.106     3608.546     94.71442     189.8079     379.9187      3.155     5.22     1264.614     67.02685     134.4741         7     1.119     0.688  61.70   3
       315    674.5298     68.8497 307.6589402  +6.7830026     614.8129     1426.394     3389.194     95.31963     190.1106     380.2969      3.096     4.40     1264.632     67.02685     107.7247         5     1.086     0.507  53.54   2
       316    999.0398     65.3863 307.5241211  +6.7951753     2191.594     6525.728     9002.585     94.71442     189.9593     379.9565      3.146     8.81     1258.677     67.02685     266.4058        60     2.306     1.894 -26.24   0
       317    409.0677     63.4377 307.7694999  +6.7764301     719.1176     1767.476     3886.333     95.16869     190.1862     380.4103      2.854     4.52     1277.548     67.02685     120.0183         7     1.311     0.442 -25.89   2
       318    832.1343     59.2441 307.5937292  +6.7921989     1419.244     3791.397     6355.872     95.31963     190.1106     380.2969      3.418    12.06       1262.3     67.02685     152.9686        33     2.207     1.836   8.08   2
       319     22.7697     53.3154 307.9304534  +6.7677512     955.3478     2733.568     3832.237     95.31963     189.9593     380.1078      2.996    10.22     1304.194     67.02685     118.0771        19     2.179     1.335 -33.98   0
       320    783.2874     52.0077 307.6142831  +6.7935772     1408.822     4494.568     6444.287     94.86608     189.8079     379.9565      3.097     9.29     1262.368     67.02685     170.1694        40     1.982     1.623 -83.70   0
       321    138.0739     42.9178 307.8828653  +6.7759014      7146.31     27719.39     47783.97      95.6208     190.5638     380.3347      3.686     9.81     1298.611     67.02685      930.822       138     3.053     2.512 -24.31   0
       322     34.8209     40.3168 307.9258823  +6.7735335     1017.445     2582.764     4148.903     95.01751     189.8079     380.1835      3.151     7.29     1303.101     67.02685     125.7673        15     1.764     0.845 -25.08   0
       323    720.9518     34.8496 307.6407790  +6.7986145     800.0428     2515.045     3605.116     95.31963      190.035     380.2591      3.263    10.13     1262.725     67.02685     97.23901        13     1.934     1.479 -66.84   2
       324    689.5043     31.3968 307.6539713  +6.7990015     1181.243     3342.536     5732.659     95.01751     189.8079     379.8808      3.710    11.59     1262.969     67.02685     126.0476        30     2.964     1.262 -37.43   2
       325   1017.5872   1019.0179 307.4845236  +6.4010434     4294.989     9724.406     11267.61      95.0175     189.8079     354.5917      2.405     6.25     1322.192     67.02685     511.5707        50     2.152     1.344 -19.47  16
       326    985.9755   1018.4361 307.4976776  +6.4002407     986.4395      2191.82     2789.658     94.86608     189.9593     366.6706      2.437     7.83     1322.858     67.02685     151.9039        15     1.441     1.189 -45.71  16
       327    871.6494   1013.5465 307.5453429  +6.3984876     799.7698     1702.902     2573.673     95.47034     190.1862     380.2969      2.930     5.99     1325.063     67.02685     125.5454        10     1.871     0.540 -10.96  18
       328     29.7429   1007.8126 307.8953198  +6.3729128     746.6066     2056.589     3881.203     94.56251      190.035     379.8808      3.373     7.92     1327.514     67.02685     124.1299        12     1.682     1.042 -57.87   2
       329    830.4042   1005.7572 307.5627407  +6.4003482     585.6812     1491.421     1478.637     94.56252     189.8079     379.9187      2.552     4.97     1325.854     67.02685     88.21582         5     1.084     0.644 -27.12   0
