#   1 NUMBER                 Running object number                                     
#   2 X_IMAGE                Object position along x                                    [pixel]
#   3 Y_IMAGE                Object position along y                                    [pixel]
#   4 ALPHA_J2000            Right ascension of barycenter (J2000)                      [deg]
#   5 DELTA_J2000            Declination of barycenter (J2000)                          [deg]
#   6 FLUX_APER              Flux vector within fixed circular aperture(s)              [count]
#   9 FLUXERR_APER           RMS error vector for aperture flux(es)                     [count]
#  12 FLUX_RADIUS            Fraction-of-light radii                                    [pixel]
#  13 FWHM_IMAGE             FWHM assuming a gaussian core                              [pixel]
#  14 BACKGROUND             Background at centroid position                            [count]
#  15 THRESHOLD              Detection threshold above background                       [count]
#  16 FLUX_MAX               Peak flux above background                                 [count]
#  17 ISOAREA_IMAGE          Isophotal area above Analysis threshold                    [pixel**2]
#  18 A_IMAGE                Profile RMS along major axis                               [pixel]
#  19 B_IMAGE                Profile RMS along minor axis                               [pixel]
#  20 THETA_IMAGE            Position angle (CCW/x)                                     [deg]
#  21 FLAGS                  Extraction flags                                          
         1    437.2124     33.4969 307.7561531  +6.6694476     9737.167     27103.81     35316.42     91.63873     182.8406     365.8633      2.852     6.49     1167.855     64.54072      969.175        97     2.369     2.007  48.48   0
         2    175.3088     16.0544 307.8656938  +6.6678741     4760.046     13000.77     16469.87     91.63873     182.9863     366.3003      2.804     6.47      1186.41     64.54072     501.3708        72     2.243     1.880  58.92   0
         3    519.4875     14.5311 307.7225744  +6.6800295     1230.754     3310.887     4287.498     91.78407     183.4229     366.1911      2.916     9.32     1161.431     64.54072     128.9248        28     2.095     1.158  53.61   0
         4    920.8305     13.3396 307.5556554  +6.6939102     2278.697     5062.396     5847.824     91.49316     183.1319     366.1183      2.273     6.72     1150.808     64.54072     227.8439        34     1.780     1.368  42.37   0
         5    721.9117     11.5878 307.6384667  +6.6880046     889.1366     2203.835     2488.272     91.34735     182.8406      366.009      2.524     7.99     1156.531     64.54072     115.0684        13     1.597     1.119  19.01   0
         6    984.9944      9.3629 307.5290973  +6.6976874     1281.206      2616.59     2890.906     90.76178     182.8406     365.8997      2.081     6.82     1145.441     64.54072     162.3726        18     1.506     1.053  36.63  16
         7    704.9674      6.2746 307.6456963  +6.6896330     3560.029      9095.28     10715.16     91.63873     183.1319     350.3794      2.559     6.10     1156.948     64.54072     355.1312        54     2.020     1.631  47.09  16
         8    624.9299      5.5586 307.6790164  +6.6872570     1689.427     4562.757     5320.766     91.63873     183.1319     342.1802      2.780     7.58     1157.855     64.54072     195.5605        37     1.887     1.512  38.92  16
         9    425.6212      2.6949 307.7620254  +6.6817767     2801.203     6036.815     6560.034     91.63873       166.83      300.047      2.240     6.46     1170.463     64.54072     275.3248        38     1.961     1.372  10.31  24
        10     26.8712      2.6865 307.9278959  +6.6684091     3777.012     7939.041     8732.384     91.92918       166.83     300.0914      2.236     5.77     1187.183     64.54072     461.5895        44     2.018     1.343   2.40  24
        11    322.8495      1.4405 307.8048198  +6.6788537     815.7962     1438.303      2161.49     81.80138     147.6728     277.6181      2.325     4.40     1180.604     64.54072     165.3566        10     1.230     0.615   2.44  24
        12    512.2820    998.3979 307.6920686  +6.2735750     838.7012     1617.857     1988.032     91.05504     182.6947     365.8633      2.196     6.01     1220.762     64.54072     104.4183        10     1.163     0.873  36.46   0
        13    713.7928   1021.9330 307.6075077  +6.2705825     4910.334     9653.341     11121.67     91.20131     171.4792     306.2469      2.105     5.08      1219.09     64.54072     569.5419        36     1.695     1.299  38.28  24
        14    580.4279   1023.2964 307.6628961  +6.2655706     20094.29     27772.06      30167.6     85.15462     151.6803     282.4259      1.467     3.97     1221.395     64.54072     3719.259        39     1.684     0.898  -1.07  27
        15    570.0977   1021.1796 307.6672619  +6.2660997     2703.719     5932.683     7365.596     91.63873     179.3071     318.4939      2.462     6.18     1221.136     64.54072     292.0371        39     1.932     1.402  37.38  26
        16    428.5753   1021.9999 307.7260585  +6.2610330     2497.109     4844.812     5818.394     91.20131     170.4657     305.2878      2.168     6.25     1222.824     64.54072     281.2313        32     1.815     1.224  30.13  24
        17    210.0087   1023.5302 307.8168522  +6.2530865     797.4771     1352.662     1258.881     81.47483     147.6728     277.8581      1.510     5.34     1228.142     64.54072     131.6921         9     1.277     0.631   0.82  24
        18    416.9608    995.5962 307.7317853  +6.2715461      756.569     1422.797     1682.993     90.76178     182.8406     365.8269      1.765     3.69     1223.179     64.54072     118.8932         6     1.157     0.338 -50.01   0
        19    907.9876    990.2607 307.5278601  +6.2901274     6396.843     12762.48     13887.18     91.05504     182.9135     365.7905      2.115     4.59     1213.132     64.54072      803.108        48     1.871     1.332  47.19   0
        20    881.6509    986.4340 307.5389376  +6.2908309     9031.782     18493.77     21396.16     91.63873     183.2047     366.0454      2.198     4.84     1213.739     64.54072     1082.508        61     1.937     1.501  43.28   0
        21   1003.2633    985.8212 307.4884056  +6.2951292     3830.244      7439.09      7645.78     91.34735     183.1319      366.009      2.012     4.83     1210.464     64.54072     461.3214        33     1.709     1.142  47.13   0
        22    525.7452    985.5605 307.6869092  +6.2793250      2698.22     5676.439      7282.24     91.78407     183.2047     366.1547      2.501     5.48     1220.719     64.54072     271.6967        36     1.750     1.341  15.32   0
        23    595.4467    986.8425 307.6578928  +6.2811229     637.4003     1390.828     1824.605     91.78407     183.1319     366.0819      2.186     3.93     1220.342     64.54072      112.131         5     1.338     0.330  40.49   0
        24    635.2523    984.5447 307.6414248  +6.2834000     901.0242     1437.313     1019.341     91.78407     183.1319     366.1183      1.840     4.51     1219.548     64.54072     116.7557         8     1.021     0.672  39.60   0
        25     60.8730    983.8549 307.8801935  +6.2644669     602.2272     1298.844     1264.108     91.63873     182.9863     366.0819      1.733     3.91      1225.22     64.54072     117.9991         5     0.812     0.540 -52.25   0
        26    478.8611    981.9666 307.7065197  +6.2792425     1347.291     2917.024     3410.475     91.49316     183.2047     366.0819      2.375     7.35     1221.216     64.54072     139.6642        18     1.437     1.069  35.54   0
        27    913.4104    974.0004 307.5261571  +6.2970215     31439.78     63281.06     71005.34     91.34735     182.7676     365.9362      2.145     4.82     1212.302     64.54072     3434.652        87     2.026     1.497  46.28   0
        28    220.9051    972.2981 307.8140714  +6.2746037      1215.43     2175.357     2125.469     91.78407     183.7859     365.9726      1.923     6.07     1227.049     64.54072     141.6044        12     1.348     0.768  38.66   0
        29    811.3010    967.8846 307.5688103  +6.2961474     1550.729     3119.512     2716.577     91.78407     183.6407     366.2639      2.098     6.24     1215.273     64.54072      198.324        24     1.597     1.097  37.54   0
        30    759.5350    965.6583 307.5904043  +6.2953420      4582.58     9556.178     11132.53     91.92919     183.0591     366.1911      2.248     5.17     1216.087     64.54072     491.5114        41     1.773     1.380  42.71   0
        31    229.4607    965.4586 307.8107486  +6.2777141     783.1435     1575.419     1299.401     91.78407     183.0591     366.1911      1.934     4.92     1226.943     64.54072     139.8278         7     1.380     0.496 -87.86   0
        32     54.1403    962.9519 307.8837063  +6.2728711     1605.219     3677.326     4350.319     91.78407     183.1319     366.2275      2.301     6.78     1225.061     64.54072     187.8187        29     1.841     1.249  45.70   0
        33    947.7579    960.7394 307.5123284  +6.3036394     4839.931      9553.63     10565.44     91.78407     183.1319     366.2639      2.088     4.54     1210.726     64.54072     613.2544        41     1.719     1.333  37.48   0
        34    921.4467    952.7701 307.5235360  +6.3060546     1561.271     3149.494     3430.889     91.20131     183.2047     366.0454      2.114     6.17     1211.152     64.54072     203.3611        25     1.705     1.177  42.13   0
        35    642.2511    948.4834 307.6397410  +6.2985225     2912.945     5996.214     6745.952     91.78407     183.0591     366.2639      2.228     5.30     1217.714     64.54072     323.0686        36     1.753     1.293  42.15   0
        36    254.6845    948.7896 307.8008328  +6.2854410     2579.491     5776.313     6399.751     91.34735     182.8406     365.9726      2.316     5.88     1226.501     64.54072      295.458        33     1.756     1.292  36.35   0
        37    780.5833    948.5624 307.5822350  +6.3031020     954.4713     1601.596     1186.709     91.34735     182.9863     365.8633      1.850     5.50     1214.708     64.54072     126.8116         9     1.203     0.708  35.76   0
        38    464.6914    947.9658 307.7135671  +6.2928071     696.8931     1421.215      1892.31     91.92918     182.9863     366.1547      2.700     5.66     1221.944     64.54072     101.5797         6     1.226     0.736  80.04   0
        39    990.8909    948.1340 307.4948251  +6.3102785     703.9631     1290.948     1247.471     91.78407     183.3502     366.1547      1.719     5.22     1208.912     64.54072     101.7168         6     1.116     0.689  10.47   0
        40     23.2959    946.2888 307.8970963  +6.2787155      1424.27     2776.419     3282.182     91.78407     183.5681     366.1911      2.324     5.82     1225.158     64.54072       189.52        19     1.567     0.976  12.24   0
        41    566.6016    940.8608 307.6714466  +6.2991449     974.8887     2137.644     2067.439     91.05504     182.9135     365.8269      2.102     6.67     1219.639     64.54072     117.1078        13     1.692     0.739  -0.34   0
        42    605.8277    937.5515 307.6552534  +6.3018207     749.2713     1708.421     1871.059     91.34735     183.1319     366.0819      2.354     8.21     1218.022     64.54072     134.1708        10     1.805     1.043  49.05   0
        43    286.1517    935.0638 307.7882210  +6.2921617     883.8967     1976.321     2167.911     91.63873     182.9863     366.1911      2.329     7.80     1226.117     64.54072      98.5354        15     1.495     1.137  25.61   0
        44    890.3338    927.6599 307.5373208  +6.3153870     4935.142     9783.966     11065.17     91.92919     183.0591     366.1547      2.109     4.93     1211.091     64.54072     586.9464        44     1.847     1.317  43.23   0
        45    426.5734    925.2206 307.7301865  +6.3009238     1203.435     2860.298     3245.823     91.34735     182.9135     366.0819      2.388     8.49       1222.6     64.54072     160.1697        22     1.575     1.279  19.65   0
        46    328.0246    923.4148 307.7712128  +6.2983729     5524.365     12504.46     14712.02     91.49316     182.9135     366.0819      2.411     5.30      1225.52     64.54072     595.7427        56     1.957     1.585  48.53   0
        47    248.1783    922.2697 307.8044419  +6.2961724     4057.469     9679.002     11026.43     91.34735     183.0591     366.1183      2.426     5.50     1225.918     64.54072      415.933        49     1.940     1.518  43.45   0
        48    861.8232    911.2612 307.5497289  +6.3212087     646.5842     1195.184     787.1252     91.34735     183.0591     366.0454      1.821     4.96     1211.087     64.54072     108.6967         6     1.213     0.574  27.84   0
        49    972.0164    908.2003 307.5040241  +6.3261391     651.7669     1077.895     1594.726     91.34735     182.6217     365.7905      1.718     3.83     1207.282     64.54072     87.00586         5     0.829     0.508 -50.50   0
        50    742.4279    905.8988 307.5995445  +6.3194456     1034.599     2186.409     2889.723     91.92918     182.8406     366.1183      2.403     6.90     1212.996     64.54072     127.9442        12     1.432     0.932   2.11   0
        51    526.6985    900.7667 307.6893979  +6.3143664     780.2115     1492.452     1815.953     91.78407     182.9863     366.3003      2.448     6.41     1219.704     64.54072     119.1749         9     1.254     0.921 -44.10   0
        52    973.1470    901.3274 307.5037869  +6.3290144     866.1475     1690.957     2593.252     91.63873     183.1319     366.1547      1.882     3.82     1206.823     64.54072     142.1423         6     1.043     0.402 -14.60   0
        53    661.1989    898.9916 307.6335464  +6.3195889      1363.52      3517.62     3918.989     91.05504     182.7676     365.8997      2.461     9.00     1214.954     64.54072     163.4344        30     1.831     1.272  26.91   0
        54     58.0194    895.6138 307.8843956  +6.3008027     1830.199      4138.95     5093.153     91.49316     182.8406     366.0454      2.519     6.31     1223.835     64.54072     213.5341        34     1.789     1.413  40.09   0
        55    201.2125    894.7523 307.8249035  +6.3059601     1204.631     2749.512     3058.079     91.05504     182.9863     365.7905      2.381     6.61     1225.135     64.54072     167.3683        18     1.635     1.044  34.42   0
        56     75.1321    894.3488 307.8773256  +6.3018991     933.7389     2171.526     2686.783     91.63873     182.9863     366.0819      2.536     7.50     1223.762     64.54072      151.079        12     1.858     0.960  33.01   0
        57    655.5662    888.3081 307.6362510  +6.3238120     4143.987     9089.017     10388.94     91.92919     182.9863     366.2275      2.333     5.55     1214.533     64.54072     398.0557        46     1.879     1.485  42.75   0
        58    338.8087    881.7487 307.7681504  +6.3159366     9001.176     21486.15     25903.43     91.20131     182.9863     365.7905      2.495     5.41     1225.397     64.54072     1012.852        75     2.173     1.690  55.29   0
        59    893.4413    884.4825 307.5374929  +6.3333178      1963.53     3889.094     4002.891     91.78407     183.1319     366.0819      2.047     5.51     1208.665     64.54072     217.8191        27     1.618     1.188  32.34   0
        60     15.6351    886.6100 307.9023212  +6.3030974     739.7174     1495.615      1607.39     91.20131     182.8406     365.8997      1.596     3.47     1223.518     64.54072     92.19006         5     1.080     0.323 -20.79   0
        61     30.3662    885.1213 307.8962489  +6.3042065     638.4871     1431.554     1184.356     91.63873     183.1319     366.1183      1.968     3.26     1223.459     64.54072     109.4847         5     0.865     0.482 -89.75   0
        62    210.1032    881.2866 307.8216674  +6.3118175     840.6288     1629.191      2384.72     91.78407     183.5681     366.1911      2.484     6.01     1225.217     64.54072     121.5658         9     1.231     0.826 -65.79   0
        63     73.8947    882.1564 307.8782567  +6.3068914     650.9959     1331.508     1362.473     91.78407     183.0591     366.3003      1.872     5.52     1223.466     64.54072     91.59753         5     1.500     0.572  20.77   0
        64    102.1156    872.4785 307.8668567  +6.3118338     926.2245     2157.131     2373.117     91.78407     183.4955     366.3003      2.291     7.16     1223.372     64.54072     142.8771        10     1.456     0.986 -72.28   0
        65    883.3456    865.6898 307.5423271  +6.3407410     1368.272     2454.744     2585.739     91.78407     182.9135     366.3003      2.012     5.40     1208.094     64.54072      165.194        14     1.065     1.009   0.60   2
        66     85.6029    865.8558 307.8739469  +6.3140141     1430.721     3316.291     3497.738     91.05504     182.9135     365.7905      2.335     6.89     1223.161     64.54072     165.5349        22     1.557     1.271  56.31   0
        67    854.2292    865.6533 307.5544328  +6.3397868     1395.642     2627.241     2492.429     91.49316     183.2047     366.0819      1.984     4.75     1208.805     64.54072      178.889        18     1.291     1.013  32.82   0
        68    817.7422    865.0343 307.5696222  +6.3388273     1953.472     4204.197      4572.54     91.63873     183.1319     366.1183      2.242     6.08     1208.834     64.54072     205.5657        29     1.571     1.380  17.30   0
        69    553.8612    856.7775 307.6796029  +6.3334358     186530.3     440293.4     523318.6     91.34735     183.0591     366.0454      2.468     5.33      1216.61     64.54072      19543.2       193     2.301     1.878  50.24   0
        70    397.9854    859.5008 307.7443090  +6.3271019      4318.04     10153.89     11832.72     91.78407     182.8406     365.8633      2.411     5.42         1223     64.54072     431.2675        50     1.858     1.605  53.21   0
        71    341.3071    857.9303 307.7679238  +6.3258541     6918.434     16189.85     19297.24     91.78407     183.2775     366.1547      2.459     5.29     1225.039     64.54072     759.5454        64     2.033     1.670  56.54   0
        72    659.6103    854.0334 307.6357346  +6.3380983      2147.95     4932.304     5653.519     91.20131     182.9135     365.9726      2.372     6.03     1212.487     64.54072     245.3225        38     1.768     1.477  53.21   0
        73    891.9938    852.9880 307.5391625  +6.3462733     3476.664      7385.31     8681.446     91.34735     182.9135     366.0454      2.275     5.29     1207.075     64.54072     399.1895        41     1.852     1.365  34.01   0
        74    313.8650    854.1821 307.7794593  +6.3264832     5136.258     5305.074     5088.208     91.34735     183.1319     365.9726      0.863     2.64     1225.381     64.54072     1528.452         8     0.842     0.448  14.88   0
        75    634.2186    848.3129 307.6464849  +6.3396131     1718.317     4135.986     6142.202     91.49316     182.8406     365.9726      2.970     6.76     1212.866     64.54072     195.6748        34     1.758     1.456  72.11   0
        76   1023.7739    846.5097 307.4845966  +6.3533312     1622.768     2143.389     2094.423     78.47472     143.4605     273.5552      1.172     3.83     1201.662     64.54072      355.418         9     1.214     0.415 -87.50  24
        77    822.5443    847.0056 307.5682376  +6.3464311      946.053     1878.602     1830.465     91.20131     182.9863     365.8269      1.934     6.61     1207.742     64.54072      125.808        10     1.695     0.724  23.92   0
        78    626.9767    842.9716 307.6496770  +6.3415768     1285.742     3265.944     4887.974     91.20131     182.9863     365.9726      3.257     9.35      1212.68     64.54072     162.7826        23     1.675     1.455 -29.77   0
        79    910.7336    840.6870 307.5317888  +6.3519759     2127.277     4459.748     4396.312     91.78407     183.3502     366.1911      2.201     6.02     1205.848     64.54072     245.1772        32     1.655     1.364  33.19   0
        80    369.2945    836.9680 307.7570038  +6.3354454     1545.698     3402.507     4137.338     91.92918     182.9135     366.2639      2.428     6.61     1222.927     64.54072       231.49        25     1.654     1.234  42.51   0
        81    505.5157    826.7250 307.7007236  +6.3442289     1871.029     4243.339     4451.615     91.92919     183.4955     366.2275      2.239     6.24     1216.821     64.54072     218.6071        30     1.634     1.342  37.21   0
        82    552.7813    822.6781 307.6812119  +6.3474786     3245.979     7825.996     10417.19     91.20131     182.7676     366.1183      2.795     8.61     1214.458     64.54072     357.4791        58     2.476     1.704   7.98   0
        83    470.4492    820.7703 307.7155042  +6.3455156     769.5493     1888.776     1850.753     91.34735     183.2047     366.0454      2.345     6.05     1217.948     64.54072     108.2477         9     1.791     0.574 -29.77   2
        84    111.1890    822.3319 307.8647984  +6.3328419     650.7248      1104.15     1795.209     91.20131     182.9135     365.9726      2.238     5.02      1222.98     64.54072     105.8193         6     1.070     0.667  21.44   0
        85    522.8820    816.4940 307.6938523  +6.3490333     10547.72     25685.85     30574.07     91.49316     183.4229     366.2639      2.495     5.52     1215.417     64.54072     1153.724        78     2.132     1.745  46.53   0
        86    936.3807    814.6461 307.5220090  +6.3635812     2490.971     5094.168     5501.015     91.34735     183.0591     365.9726      2.105     6.30     1203.857     64.54072     296.8594        31     1.831     1.252  52.27   0
        87    315.6827    805.4386 307.7803658  +6.3466689     1725.384      4239.93     4600.285     91.78407     183.1319     366.1183      2.429     7.84     1223.973     64.54072     215.7131        33     1.873     1.398  59.18   0
        88     33.7672    807.1320 307.8975018  +6.3365195     773.3517     1751.938     1931.128     91.63873     183.1319     366.1547      2.280     4.90     1222.025     64.54072     99.52246         7     0.984     0.692  85.58   0
        89    781.0060    800.9794 307.5870687  +6.3640509     31520.13     73210.64     85781.84     91.34735     182.7676     365.9362      2.410     5.27     1205.659     64.54072     3179.695       100     2.143     1.718  44.92   0
        90     15.6657    803.5174 307.9051501  +6.3374041      1376.69     3306.663     4031.745     92.07407     183.4229     366.2275      2.644     8.96     1221.772     64.54072     152.8724        28     1.958     1.145  46.22   0
        91    237.9033    777.7331 307.8136452  +6.3555030     782617.8      2465936      3173268     91.78407     183.2047     366.1911      2.906     6.41      1223.87     64.54072     64403.91       651     2.911     2.356  65.94   4
        92    704.2251    792.7935 307.6192677  +6.3648713     40755.38     110717.6     162071.4     91.20131     182.9863     365.9362      3.196     9.38     1207.386     64.54072     4837.163       173     3.580     1.835  31.86   0
        93    906.2274    796.1766 307.5351713  +6.3702037     5237.597     11322.87     13084.46     91.20131     182.9863     365.9726      2.273     5.13     1203.711     64.54072     559.3718        49     1.902     1.403  45.15   1
        94    348.0274    793.1513 307.7673385  +6.3528245     10779.37     26382.82     31825.32     91.34735     183.1319     366.0819      2.540     5.45     1221.307     64.54072     1223.511        80     2.193     1.761  52.17   0
        95    409.8618    790.9868 307.7417062  +6.3557869     11255.24     28189.36     34298.36     91.20131     182.9135     365.8269      2.567     5.68     1218.598     64.54072     1190.656        80     2.155     1.784  46.72   0
        96    398.5323    793.8262 307.7463194  +6.3542356     868.8251     1433.453     2044.698     91.34735     182.9863     366.0454      1.587     4.27     1219.172     64.54072     129.6216         6     1.082     0.481 -34.38   0
        97    946.7274    789.8218 307.5185488  +6.3741751     1357.234      2829.15     2741.284     91.34735     182.9135     366.1183      2.185     7.25     1202.055     64.54072     172.9677        20     1.584     1.009  21.20   0
        98    903.2452    787.5875 307.5367024  +6.3736508     4230.644       9248.7        10113     91.20131     182.9135     365.8633      2.253     5.38     1203.177     64.54072     421.7622        44     1.861     1.378  46.82   1
        99    643.7831    786.6688 307.6446041  +6.3653839     3377.479      8227.58     10089.18     91.20131     182.9863     366.0454      2.489     5.99     1208.349     64.54072     345.9769        47     1.971     1.523  28.22   0
       100    678.7278    776.6156 307.6304178  +6.3707005     1218.791     2916.977     3802.136     91.20131     182.9863     366.0454      2.533     7.44     1207.085     64.54072     139.4419        22     1.463     1.281  27.74   0
       101    412.7681    773.6191 307.7410897  +6.3630547     27138.22     68223.55     83484.17     91.20131     182.9135      366.009      2.605     5.61     1217.829     64.54072     2853.311       110     2.277     1.892  48.51   0
       102    775.6004    769.0469 307.5904001  +6.3770552      6686.34     15414.98      17756.7     90.90853     182.7676     365.6447      2.347     5.41     1203.284     64.54072     647.4121        61     2.016     1.580  44.09   0
       103    447.1683    770.8023 307.7268843  +6.3653680     2377.236     6096.055     8758.185     91.05504     182.9135     365.8997      3.134     7.43     1216.253     64.54072     278.5925        52     2.296     1.587  55.97   2
       104    443.7160    764.1387 307.7285465  +6.3680038     1165.921     2615.583     3183.561     91.92918     183.1319     366.1911      2.199     6.95      1216.08     64.54072      129.525        16     1.426     0.951 -16.00   3
       105    125.6652    752.2666 307.8611745  +6.3622550     1062.923     2698.671     3491.441     91.78407     183.1319     366.1911      2.820     8.30     1221.582     64.54072     129.6256        17     1.628     1.181 -85.45   3
       106    132.8215    761.1132 307.8578972  +6.3588425     5757.804     15105.19     22571.71     91.78407     182.8406      366.009      3.599    10.87     1221.975     64.54072     736.4917       117     4.040     1.796  21.57   2
       107    141.9433    760.9117 307.8541120  +6.3592316     1567.277     3348.357     4930.007     91.78407     182.9863     366.3003      2.488     5.40     1222.156     64.54072     226.0931        18     1.607     0.820  36.63   3
       108    798.2215    763.6062 307.5811800  +6.3800553     671.9951     1505.251     1665.557     91.34735     182.9135     365.9362      2.701     4.62     1202.251     64.54072     104.5712         5     1.210     0.501  61.38   0
       109    921.0118    757.6306 307.5303315  +6.3866109     4103.161      8775.05      9652.02     91.20131     182.8406     366.0454      2.188     5.40      1200.79     64.54072     448.6903        41     1.812     1.330  48.57   0
       110    970.4282    757.9534 307.5097750  +6.3881216     912.2604     1616.158     2376.375     91.34735     183.2047     366.0454      2.056     7.43     1199.394     64.54072     126.0056        11     1.325     1.166  46.23   0
       111    563.7513    754.8578 307.6789587  +6.3758466     1171.729     2928.365     4233.269     91.78407     183.1319     366.2639      2.931     7.79     1209.297     64.54072     147.3964        21     1.570     1.216   2.50   0
       112    676.6106    754.5011 307.6320495  +6.3797606     988.0839     2073.433     3353.365     91.49316     182.6947     365.8997      2.674     5.34      1205.77     64.54072     115.6313        11     0.971     0.856  64.92   0
       113    944.9363    749.1729 307.5206712  +6.3908990     1993.478     4320.595     4316.161     91.34735     183.1319     366.0454      2.207     6.60     1199.653     64.54072     238.2197        29     1.671     1.300  24.10   0
       114    915.1759    749.4872 307.5330339  +6.3897790     1814.695     3813.368     4510.847     91.78407     182.9135      366.009      2.318     5.99     1200.208     64.54072     202.4659        26     1.626     1.173  47.33   0
       115    975.3362    748.6711 307.5080489  +6.3921173     1247.344     2375.322     2502.209     91.78407     183.1319     366.2275      2.048     6.84     1198.789     64.54072      163.734        14     1.319     0.995  46.01   0
       116    530.4890    772.6544 307.6921817  +6.3673878     3698.397     9003.329     10959.67     91.78407     182.9863     366.3003      2.557     5.87     1212.257     64.54072     385.7219        54     2.005     1.620  36.06   0
       117    240.4907    744.2181 307.8137134  +6.3694270     909.2155     2404.078     3347.807     91.49316     182.8406     366.0454      3.098     6.82     1222.102     64.54072     104.7983        12     1.775     0.735  21.32   0
       118    959.6534    736.6841 307.5149756  +6.3965450     1535.404     3284.457     3717.671     91.78407     183.1319     366.3367      2.303     5.99     1198.561     64.54072     158.5837        24     1.405     1.348  88.37   0
       119    906.4453    737.9789 307.5370540  +6.3942401     729.3708     1545.823     1734.468     91.34735     183.0591     365.9726      2.111     4.86     1199.462     64.54072     93.02979         5     1.035     0.646   0.82   0
       120   1001.1165    730.2819 307.4979532  +6.4005673     1184.188     2177.514     2023.841     91.49316     183.4229     366.2275      1.884     4.65     1196.971     64.54072     154.3435        15     1.111     1.056  25.96   0
       121    888.9151    726.2321 307.5447409  +6.3985068     984.3867     1863.562     2806.449     91.78407     182.9135     366.0819      2.559     5.76     1198.881     64.54072     123.8873        11     1.116     0.838   2.14   0
       122    862.6140    721.2805 307.5558441  +6.3996756     546.9305     1178.919     1105.531     91.34735     182.8406     365.9362      2.101     4.14     1198.742     64.54072     86.93274         5     1.208     0.405  76.24   0
       123    845.7700    717.6132 307.5629719  +6.4006289      943.843     2197.008     2441.217     91.20131     182.9135     366.0819      2.314     6.98     1198.761     64.54072     115.0094        14     1.626     0.841  25.53   0
       124     44.9584    716.2346 307.8959578  +6.3744232     1321.948     3339.991     4086.053     91.49316     183.1319     365.9362      2.581     8.54     1218.787     64.54072     164.7736        26     1.876     1.220  62.87   0
       125    657.6297    705.1330 307.6416190  +6.3995106     3067.473      7634.34     9027.142     91.49316     183.1319     366.1183      2.545     6.57     1203.823     64.54072     338.0759        53     2.034     1.733  47.15   0
       126    631.9675    700.4490 307.6524478  +6.4005882     1128.772     2854.972     3420.836     91.49316     183.1319     366.0819      2.573     6.73     1204.566     64.54072      134.962        15     1.402     1.170  -0.58   2
       127    120.8210    701.3597 307.8649278  +6.3831102     1947.956     4964.082     5682.867     91.34735     182.9135     365.9362      2.438     6.67     1218.738     64.54072     258.5784        37     1.771     1.506  54.29   0
       128    994.6243    700.1888 307.5016721  +6.4127766     1584.236      3413.92     3306.516     91.34735     182.9135     366.0454      2.116     7.74     1194.657     64.54072     173.1077        20     1.399     1.198  35.11   0
       129    774.6192    697.1238 307.5932500  +6.4067184     10868.21     26031.32     31234.83     91.34735     182.7676     366.0819      2.495     5.51     1198.788     64.54072     1064.625        76     2.117     1.730  44.65   0
       130    904.4105    696.9323 307.5392920  +6.4111200     2202.033     4938.686      6078.96     91.20131     182.9135     365.9726      2.497     5.39     1197.312     64.54072     242.7986        38     1.731     1.434  47.68   0
       131    474.2988    696.8674 307.7181229  +6.3968010     767.7463     1673.202     2575.828     91.78407     183.2775     366.1547      3.233     4.24     1210.385     64.54072     150.2814         6     1.110     0.770  41.37   0
       132    248.1091    690.8756 307.8123667  +6.3917057      3189.98      7634.03     9514.717     91.78407     183.4229     366.1911      2.555     6.01     1217.523     64.54072     351.9364        49     1.999     1.545  55.27   0
       133    655.1313    689.9307 307.6431745  +6.4057040     3479.681     8826.646      10559.9     91.78407     183.2775     366.1183      2.596     5.75     1203.297     64.54072     390.2345        54     1.968     1.684  33.09   0
       134    915.2440    682.5318 307.5352758  +6.4174264     630.2521     1338.661     1372.721     91.78407     183.0591     366.1911      2.024     4.41     1196.518     64.54072     97.36804         5     1.289     0.429 -31.73   0
       135    726.6986    678.3706 307.6138114  +6.4128640     1918.922     4580.976     5816.351     91.78407     182.8406     366.1911      2.640     7.15      1199.12     64.54072     197.8029        36     1.860     1.420  51.87   0
       136    993.1734    674.7869 307.5031360  +6.4232165     5789.301     12204.71     14102.56     91.49316     182.9135     366.0819      2.279     5.17     1192.696     64.54072     637.6779        53     1.924     1.498  44.28   0
       137    931.1829    675.3091 307.5288935  +6.4209389     1494.291     2809.281     2874.016     91.49316     182.8406     366.0454      1.937     6.77     1195.906     64.54072     200.9456        20     1.543     0.976  18.26   0
       138     70.6761    670.0909 307.8868438  +6.3943375     13193.21     32666.83     40711.86     91.78407     183.4229     366.1911      2.625     5.56      1216.99     64.54072     1449.054        90     2.257     1.839  53.85   0
       139     12.0835    674.5359 307.9110511  +6.3905353     1028.809     2548.121     4028.013     91.92918     183.2775     366.1911      3.114     7.55     1217.177     64.54072     112.7224        19     1.614     0.989  -5.65   0
       140    532.1202    670.2244 307.6949897  +6.4097334     1031.286     2469.472     3031.506     91.49316     182.9135     366.1547      2.878     7.13     1206.235     64.54072     153.2128        17     1.656     1.145  29.12   0
       141    716.2180    662.2801 307.6187157  +6.4191580     1750.294     4360.912     5018.401     91.34735     182.7676     366.0454      2.489     8.15     1199.113     64.54072     217.9917        31     1.685     1.386  49.71   0
       142    738.4835    660.5313 307.6095174  +6.4206224     2134.188     5246.476     5832.183     92.07407     183.4229     366.1911      2.428     7.24     1198.065     64.54072      211.266        35     1.668     1.471  47.08   0
       143    569.9747    658.4322 307.6796520  +6.4158666     1557.449     4012.947     4853.364     91.20131     182.9135     365.9726      2.558     8.61     1204.789     64.54072     175.3502        33     1.823     1.488  58.81   0
       144   1011.4479    656.2960 307.4961640  +6.4314588     3319.154      7073.11     7624.623     91.63873     182.9863     366.3367      2.238     5.24     1190.641     64.54072     383.8169        39     1.753     1.390  49.45   0
       145    976.7466    655.2203 307.5106293  +6.4307490      5217.84     11187.64     12373.32     91.20131     183.1319     365.9362      2.199     5.25     1192.188     64.54072     512.7561        47     1.872     1.371  42.80   0
       146    230.5596    657.5139 307.8208018  +6.4048917     809.0067     1930.624     2449.217     91.78407     183.0591     366.1547      2.698     5.37     1215.154     64.54072      111.623         9     1.401     0.580  16.41   0
       147    422.3448    649.8640 307.7413248  +6.4144704     1418.639     3803.565     4557.587     91.92918     183.0591     366.1547      2.614     9.39     1209.718     64.54072     150.1188        29     1.608     1.530  53.04   0
       148    135.4636    649.0323 307.8606283  +6.4052055     11826.89      30166.9     37783.38     91.49316     183.2047     366.1183      2.692     5.73     1215.638     64.54072      1356.33        92     2.347     1.858  50.63   0
       149    802.9761    648.7668 307.5831014  +6.4276292     686.2526     1284.952     1449.011     91.20131     182.9135     365.9362      1.908     4.95     1195.778     64.54072     97.02722         5     1.512     0.459 -24.42   0
       150    971.6211    638.2252 307.5133365  +6.4375957     4404.193      9909.04     11701.86     91.34735     182.9135     366.0819      2.411     5.67     1191.275     64.54072     462.2848        54     2.064     1.496  47.99   0
       151     16.9203    637.8926 307.9102938  +6.4058263     652.9651     1386.058     1623.096     91.49316     183.4229     366.2275      2.154     5.70     1216.669     64.54072     111.3333         7     1.488     0.615 -51.88   0
       152    565.3081    633.6463 307.6824356  +6.4259443     22353.14     59038.38     74141.75     91.78407     183.0591     366.3003      2.704     5.98     1204.053     64.54072     2272.856       108     2.316     1.965  47.81   0
       153   1023.6511    632.6261 307.4918917  +6.4416375     7264.937     10647.03     11947.55     79.48734     145.6734     275.7392      1.524     4.34     1188.838     64.54072     1777.626        28     2.005     0.618 -89.41  24
       154    173.2102    630.5237 307.8455671  +6.4141128     1329.353     3530.333      4194.97     91.34735     182.6217     365.9362      2.714     8.47     1214.591     64.54072     188.1361        28     1.693     1.591 -31.68   0
       155    462.5778    617.5071 307.7256991  +6.4291751     28488.75     76815.23     96849.45     91.78407     182.9135     365.9726      2.758     6.15     1206.819     64.54072     3029.629       120     2.368     2.006  51.33   0
       156      6.0140    618.4089 307.9154947  +6.4135041     871.0234     2029.907     2896.333     91.49316     182.8406     347.5145      2.697     5.55     1216.735     64.54072     142.3304        11     1.319     1.025  64.84  16
       157    137.6539    613.0591 307.8609469  +6.4201310     882.6385     1835.767     1934.534     91.92918     183.0591     366.1547      2.175     5.06     1213.792     64.54072     114.0239         8     1.183     0.612 -29.53   0
       158    308.9503    607.3387 307.7899216  +6.4282334     983.9725     2598.676     3211.787     91.78407     183.0591     366.2275      2.736     8.34     1209.477     64.54072     105.5292        17     1.685     1.152 -44.66   0
       159    734.4299    600.9906 307.6132255  +6.4450707     2681.544     6499.585     7220.543     91.20131     182.9135     365.9362      2.443     6.21     1196.742     64.54072     312.2351        43     1.900     1.532  46.75   0
       160    788.0767    596.1757 307.5910822  +6.4488468     6933.498     17254.01     20966.37     91.34735     182.9863     366.1183      2.521     5.84     1194.068     64.54072     699.4578        66     2.127     1.667  54.59   0
       161    611.7075    594.2162 307.6644845  +6.4437735     1221.655     3472.512     4096.479     91.49316     182.9135      366.009      2.722     8.84     1200.449     64.54072     154.8436        28     1.835     1.446 -88.28   0
       162    224.8844    588.4197 307.8255203  +6.4332284     568.5979     1372.031     2092.761     91.34735     182.7676     366.1183      2.619     6.52     1211.733     64.54072      100.757         6     1.668     0.715  88.52   0
       163    864.2786    579.2490 307.5599708  +6.4583739     1569.619     3566.112     4469.277     91.78407     183.2047     366.1183      2.447     7.49     1190.833     64.54072     174.1545        30     1.796     1.396  41.37   0
       164    822.5141    576.8264 307.5774195  +6.4579832     1387.833     2988.535     3375.619     91.92918     182.8406      366.009      2.265     7.79     1192.356     64.54072      163.019        22     1.437     1.181 -15.74   0
       165    251.1060    572.0098 307.8151780  +6.4408822     3570.418     9432.459     11399.52     91.34735     182.6947     365.9362      2.675     5.89     1209.216     64.54072     398.5883        58     2.050     1.732  69.58   0
       166    803.3669    568.0750 307.5856784  +6.4609586      79104.6     198835.7       241528     91.63873     183.1319     366.1183      2.577     5.70     1193.042     64.54072     7551.885       182     2.369     2.176  19.76   0
       167    185.1992    566.5448 307.8427678  +6.4409296     26087.78     71530.79     93698.83     91.05504     182.8406     365.7176      2.834     6.07      1210.81     64.54072     3090.147       132     2.452     2.090  50.38   0
       168    108.9946    562.8694 307.8745780  +6.4398911     2867.109     7390.027     9453.255     91.20131     182.6947     365.9726      2.684     6.39     1211.319     64.54072     336.1622        54     2.063     1.706  47.85   0
       169    974.8651    559.7609 307.5146470  +6.4701005     767.3013     1829.455     2178.003     91.78407     183.0591     366.2639      2.214     5.00     1185.671     64.54072     104.4912         6     1.237     0.573 -26.50   2
       170    840.0820    555.3912 307.5708420  +6.4674187     2307.954     5648.773     6453.664     91.34735     182.6947     365.9726      2.496     6.58     1190.641     64.54072     256.0477        41     1.888     1.516  36.59   0
       171    358.5335    553.6524 307.7711364  +6.4520588     7205.128      20185.9      26116.5     91.78407     183.0591     366.0819      2.827     6.47     1204.858     64.54072     763.5276        85     2.350     1.928  51.10   0
       172    161.0298    552.9222 307.8532825  +6.4457434     1086.717     2514.385     2966.291     91.63873     183.2047     366.1547      2.541     7.77     1210.628     64.54072     134.4064        17     1.409     1.249  80.86   0
       173    793.8569    548.4973 307.5902977  +6.4687251     2871.847     6827.327     8087.496     91.63873     183.0591     366.4094      2.444     6.38     1192.997     64.54072     278.2301        44     1.955     1.486  47.67   0
       174    524.6658    548.3858 307.7022367  +6.4597888     2738.341     7688.541     9612.849     91.20131     182.9863     366.0819      2.738     6.87     1201.821     64.54072     271.8738        49     2.011     1.639  52.54   0
       175    570.0294    541.8945 307.6835948  +6.4639843     1110.943     3173.482      4443.62     91.92918     182.8406     366.0454      3.037     9.55     1200.115     64.54072     143.4733        23     1.881     1.353  41.08   0
       176    267.2304    538.2523 307.8096258  +6.4553598     37758.26     104131.4     135710.5     91.49316     183.2775     366.0819      2.844     6.22     1205.855     64.54072     4138.714       142     2.457     2.108  52.45   0
       177     43.5597    540.5094 307.9025493  +6.4469265     2519.201     6232.916     8001.276     91.78407     183.1319     366.1911      2.707     6.26     1211.112     64.54072      306.667        49     1.973     1.684  58.03   0
       178    810.1946    541.4974 307.5837416  +6.4721596     676.5388     1586.127     1818.355     91.49316     182.7676     365.8633      2.328     8.00     1191.982     64.54072     102.7201        10     1.443     1.240  -2.84   0
       179    790.1579    530.3719 307.5924513  +6.4760855      7993.85     19974.24     23960.12     91.34735     183.0591      366.009      2.538     5.64     1192.053     64.54072     840.5157        71     2.046     1.772  50.46   0
       180    172.0236    541.6887 307.8490952  +6.4507501      3012.27     8106.199      9592.25     91.78407     182.9135      366.009      2.594     6.27     1209.503     64.54072     317.6066        52     1.947     1.723  49.53   0
       181    493.9260    528.9103 307.7156820  +6.4668026     18152.47     51309.89     68775.88     91.78407     183.4229     366.1911      2.909     6.40     1201.517     64.54072     1782.538       121     2.508     2.096  41.10   0
       182    966.4517    531.6052 307.5191000  +6.4814458     967.0192     2157.932     1965.416     91.05504     182.8406      365.754      2.045     5.05     1184.016     64.54072     139.8602        10     1.475     0.488  -0.79   0
       183    205.8741    525.5564 307.8355713  +6.4585454     878.3219     2069.822     2667.123     91.63873     183.2047     366.1911      2.609     8.26     1206.621     64.54072     124.6075        14     1.498     1.274  33.97   0
       184    653.4424    524.0123 307.6495180  +6.4741522     1412.137     3705.513     5224.567     91.05504     182.9135     365.8633      3.198     7.86     1197.202     64.54072     160.3915        33     1.826     1.435  59.84   0
       185    715.2166    524.3990 307.6238173  +6.4760533     680.6179     1577.217     2297.364     91.34735     182.6217     365.8269      2.870     4.41     1194.218     64.54072     104.9364         5     1.139     0.485   3.67   0
       186     42.3314    525.1158 307.9035866  +6.4532407     720.6721     1589.078     2006.313     92.07407     183.4229     366.1911      1.955     3.95     1209.835     64.54072      94.8197         6     1.091     0.410 -76.79   0
       187    391.7784    520.3122 307.7584497  +6.4669365     688.2009     1588.729     2053.656     91.78407     182.9135      366.009      2.449     5.97      1201.84     64.54072     108.4565         8     1.676     0.599 -62.85   0
       188    138.2876    516.6512 307.8639780  +6.4599557     11669.16     30976.35     39264.28     91.78407     182.9863     366.2639      2.745     6.06     1207.775     64.54072      1323.83        92     2.319     1.913  53.52   0
       189    323.1593    517.9414 307.7870633  +6.4656186     1644.976      4430.37     5730.333     91.78407     183.1319     366.2275      2.708     7.80     1202.409     64.54072     204.4117        38     1.812     1.666  29.03   0
       190    503.6144    517.5516 307.7120402  +6.4718161     1027.083     2537.811     3274.746     91.05504     183.0591     365.7905      2.715     5.68     1200.582     64.54072     139.1315        11     1.202     0.999 -69.67   0
       191    866.4837    515.6599 307.5612116  +6.4847024     798.0436      1863.97     1945.224     91.92919     183.2047     366.1911      2.495     6.49     1187.191     64.54072     107.0331         8     1.459     0.811   9.37   0
       192    102.0606    515.6760 307.8790744  +6.4591429     895.3345     1823.233     2638.821     92.07407     183.1319     366.1183      2.642     6.88     1208.451     64.54072     123.3915        10     1.446     0.919  49.85   2
       193    104.5036    513.9796 307.8781166  +6.4599253     1136.665     2083.066     2771.761     91.63873     182.9135     365.9362      2.020     6.58     1208.245     64.54072     153.3125        13     1.951     0.623  47.87   2
       194    963.5026    510.8825 307.5210289  +6.4899039     2845.604     6652.584     6995.313     91.78407     183.5681     366.2275      2.353     5.93     1182.564     64.54072     312.6549        42     1.926     1.401  39.98   0
       195      3.2476    501.2277 307.9206546  +6.4617906     11923.34     27656.61     32329.44     91.34735     173.7956      309.408      2.417     6.13     1208.089     64.54072     1353.465        69     2.241     1.578  73.57  24
       196    435.2370    497.6408 307.7411515  +6.4777507      17750.1     49843.49     64630.77     91.49316     183.1319      366.009      2.836     6.37     1199.525     64.54072     1911.214       110     2.388     2.049  44.14   0
       197    643.2419    497.2294 307.6546705  +6.4848699     5332.074     14894.83     18886.99     91.34735     182.9863      366.009      2.761     6.41     1196.801     64.54072     507.9943        75     2.204     1.904  47.91   0
       198    200.5054    495.3643 307.8388348  +6.4708307     8012.638     22721.04     30598.89     91.92919     182.9863     366.2639      2.912     6.40     1203.557     64.54072     890.8201        92     2.474     1.955  50.07   0
       199    562.4590    495.4482 307.6883235  +6.4829082     597.5805     1347.982     2682.688     91.78407     183.1319     366.2275      1.877     3.48     1198.509     64.54072     124.8402         5     0.782     0.448  21.41   3
       200    566.2025    494.0341 307.6868150  +6.4836171     1235.541     2877.559     3946.319     90.90853     182.9135     365.8997      2.736     8.03     1198.395     64.54072     194.0546        18     1.876     0.961 -73.99   2
       201    167.1880    495.2625 307.8526920  +6.4697557     663.7776     1364.444     1682.224     91.20131     182.9135     365.8633      2.018     3.91     1204.797     64.54072     103.3241         5     0.931     0.471  46.82   0
       202    938.7706    490.9875 307.5319883  +6.4972954     2520.143      6044.33     6968.302     91.20131     182.8406     366.0454      2.446     6.20     1182.455     64.54072     267.8402        41     1.822     1.569  44.87   0
       203    612.0502    489.7523 307.6678955  +6.4869159     2664.708     7730.294     9834.812     91.78407     182.9863     366.1547      2.831     8.08     1197.416     64.54072     278.6304        57     2.231     1.746  56.37   0
       204    961.3052    483.0465 307.5228864  +6.5013239     2104.196     4565.478     5489.427     91.63873     183.0591     366.3003      2.347     5.65     1180.671     64.54072     241.4602        35     1.827     1.292  69.57   0
       205    523.0203    482.6887 307.7051579  +6.4868587     2085.209     3808.217     5030.152     91.63873     182.8406      366.009      2.141     6.06     1198.312     64.54072     274.4796        17     1.879     0.708  29.76   3
       206    525.2060    480.4383 307.7043256  +6.4878609     3084.773     7318.311     9910.009     90.76179     182.8406     365.8633      2.779     7.69     1198.096     64.54072     343.7573        42     2.209     1.300  34.80   2
       207    371.1649    480.9026 307.7683649  +6.4825178     1047.304     2733.849     3344.472     91.78407     182.9863     366.3367      2.821     7.02     1198.556     64.54072     136.2335        15     1.384     0.998 -82.64   2
       208    880.3375    476.6194 307.5567753  +6.5012829     1676.218     4294.154     5714.939     91.34735     183.1319      366.009      2.819     8.19      1184.74     64.54072     179.6113        31     1.734     1.359  39.19   0
       209    887.4678    470.6523 307.5540126  +6.5039840     1293.422     2808.225      3552.16     91.63873     183.0591     366.1183      2.382     6.06     1184.036     64.54072     183.1096        20     1.372     1.195 -27.54   0
       210    927.5253    469.4908 307.5373937  +6.5057969     885.5939     1501.974     1735.166     91.78407     183.3502     366.2275      1.826     5.49      1181.71     64.54072     128.4049         9     1.106     0.768  22.46   0
       211    712.9486    466.2773 307.6267357  +6.4999751     1372.346     3288.003     4086.276     91.78407     183.2047     366.1547      2.747     9.86     1192.167     64.54072     147.6617        24     2.129     1.371  74.75   2
       212    383.0729    465.8142 307.7639278  +6.4891459     1488.981      4223.56       5843.4     91.20131     182.8406      366.009      2.946     8.49     1196.639     64.54072     187.0674        43     2.100     1.684  31.81   0
       213    610.7097    461.8640 307.6694018  +6.4983856      4437.83     11873.14      14866.2     91.63873     183.3502     366.1911      2.713     6.30     1195.652     64.54072     473.1437        63     2.045     1.843  55.89   0
       214    774.2335    458.0005 307.6015314  +6.5054357     6941.861     15773.61     21492.44     90.76179     182.9135     365.8633      2.695     5.56     1188.787     64.54072     750.7346        51     2.184     1.484  86.67   3
       215    772.0000    457.9707 307.6024612  +6.5053736      6308.01     13174.91     15921.58     90.90853     182.8406     365.8997      2.241     5.94     1188.864     64.54072     687.7815        32     2.150     1.071  84.69   3
       216    293.2299    458.6168 307.8015328  +6.4891097     1149.395     3016.434     3562.682     91.34735     182.8406     366.0819      2.711     8.48     1196.645     64.54072     148.6541        20     1.546     1.300 -87.57   0
       217     74.5798    466.0866 307.8921967  +6.4786942     1037.439     2393.239     2697.623     91.49316     182.8406      366.009      2.654     7.04     1205.201     64.54072      138.931        13     1.529     0.908  88.44   0
       218    957.7522    452.6539 307.5253944  +6.5137544     1037.378     2066.083     2051.408     91.78407     183.1319     366.1911      1.917     6.05     1179.196     64.54072     115.3761        13     1.417     0.725  88.96   0
       219    110.9404    450.7203 307.8776029  +6.4862587     2069.771     5402.239     7109.907     91.92918     183.1319     366.0819      2.792     7.39     1203.333     64.54072     228.1654        44     2.102     1.497  55.19   0
       220   1012.6848    447.8990 307.5027109  +6.5175446     2561.807     5986.975     6586.486     91.78407     183.6407     366.2275      2.382     5.99     1176.008     64.54072     267.6853        37     1.754     1.382  37.56  16
       221    748.9302    449.3285 307.6123485  +6.5081727     1153.851     2743.841     3291.364     91.78407     183.2775     366.0819      2.459     7.90     1189.283     64.54072     152.2238        19     1.709     1.021  37.71   0
       222    347.4376    445.5380 307.7794377  +6.4963247     1261.465     3683.198      4806.07     91.78407     183.2047     366.1547      2.915    10.22     1194.844     64.54072      203.302        35     2.189     1.769  87.80   0
       223    829.4110    433.1680 307.5794284  +6.5175273     636.3601     1459.191     1450.813     91.20131     182.8406     365.9726      2.503     5.35     1185.329     64.54072     80.86853         6     1.441     0.560  70.14   2
       224    711.7501    430.0184 307.6284665  +6.5149057     6777.398     18400.62     23268.56     91.20131     183.2047     365.8997      2.759     6.15      1190.08     64.54072     694.3062        75     2.218     1.798  47.48   0
       225    813.0557    431.4461 307.5862886  +6.5176933      786.983     2001.151     1921.748     91.78407     183.1319     366.2275      2.286     5.13      1186.21     64.54072     120.9917         7     1.493     0.499  84.48   0
       226    632.9254    424.7333 307.6614264  +6.5144577     1120.685     3013.079     4714.055     91.92918     183.2775     366.1183      3.233     7.14     1192.406     64.54072     140.5996        15     1.510     0.945  64.26   2
       227    605.2484    421.2203 307.6730557  +6.5149842     6964.872     19893.68     29617.72     91.20131     183.2047     365.9362      3.251     7.93     1192.309     64.54072     721.9315       106     2.994     1.913  38.54   0
       228    936.9962    419.7525 307.5351420  +6.5266483     1994.157     4760.214     5358.947     91.05504     182.8406     365.7905      2.434     6.33     1178.485     64.54072     224.6714        34     1.775     1.327  37.03   0
       229    376.2643    416.0818 307.7684550  +6.5094512     11838.52     33785.21     44179.76     91.92918     183.2047     366.1547      2.873     6.46     1190.935     64.54072     1247.153        98     2.384     2.041  53.62   0
       230    122.3130    415.3321 307.8740837  +6.5012507     1038.704     2619.245     3047.612     91.92919     183.4229     366.1911      2.533     8.67     1200.492     64.54072     118.7739        18     1.559     1.346  28.26   0
       231    905.8790    410.2088 307.5484066  +6.5295531     2633.378     6426.356     7654.661     91.34735     182.6217     365.9726      2.474     6.68     1179.726     64.54072     256.0864        47     2.022     1.564  50.11   0
       232     55.6911    412.0073 307.9019008  +6.5003873     736.8621     2005.625     2897.058     91.34735     182.7676     365.9362      3.120     5.16     1202.463     64.54072     116.2716         7     1.196     0.629   5.65   2
       233    233.8797    406.5809 307.8279892  +6.5086051     5958.106      16443.3     21809.69     91.34735     182.7676     366.0819      2.892     6.40     1193.777     64.54072     659.2125        82     2.358     1.937  53.14   0
       234    345.5031    397.6453 307.7818758  +6.5160334     599.1376     1332.899      2064.47     91.78407     182.9863     366.3367      2.737     4.26     1189.208     64.54072     104.7261         5     1.082     0.478   0.35   0
       235    133.9875    395.3573 307.8699119  +6.5098893     2091.781     6185.553     7848.466     91.05504     182.9135     365.8633      2.841     7.69     1199.114     64.54072     251.1511        48     2.030     1.761  52.11   0
       236    156.3965    391.4536 307.8607268  +6.5122527     1226.704     2885.247     3832.434     91.05504     182.8406     365.7176      2.793     8.19     1198.102     64.54072     139.7889        21     1.627     1.196 -40.50   0
       237    379.8191    386.5211 307.7679848  +6.5217749     950.1644     2479.725     3032.882     91.20131     182.7676     366.1183      2.781     7.93     1187.357     64.54072     112.8571        18     1.939     0.907 -15.28   0
       238    967.2289    383.8252 307.5237871  +6.5424880     567.4712      966.304     516.4092     91.20131     182.9135      366.009      1.763     3.83     1174.566     64.54072     87.82837         5     1.214     0.347  78.28   0
       239     30.4409    379.7616 307.9135038  +6.5128523      1629.38     3990.072     5618.331     91.49316     183.2047      366.009      2.745     7.58      1201.88     64.54072     195.4308        23     1.918     1.016  48.83   2
       240    433.3378    379.3004 307.7459746  +6.5265468     2971.397     8525.336     11473.95     91.49316     183.1319     366.2639      2.912     6.92     1186.126     64.54072     319.4659        65     2.146     1.949  54.89   0
       241    773.3911    376.7684 307.6046412  +6.5389469      5866.62     15515.04     21242.65     91.20131     182.9135     365.9726      2.946     6.49     1184.275     64.54072     596.7911        84     2.794     1.988  -6.67   0
       242   1017.6469    371.7337 307.5032285  +6.5491572      2046.79     4734.876     5583.557     91.78407     183.0591     360.2459      2.383     6.51     1169.381     64.54072     221.1895        32     1.706     1.343  51.89  16
       243    482.4722    363.1564 307.7260913  +6.5348553     1281.713     3664.089     4440.532     91.63873     183.2047     366.1911      2.625     7.32     1184.387     64.54072     178.2252        22     1.792     1.095  87.87   2
       244    839.3470    359.5125 307.5777970  +6.5482693     16764.83     42315.49     52521.03     91.78407     182.9863     366.3003      2.640     5.74     1180.377     64.54072     1506.387       101     2.274     1.899  53.29   0
       245    453.9232    362.0471 307.7380018  +6.5343586     916.8988     2487.095     4092.548     91.63873     183.2047     366.1183      3.063     6.31     1184.241     64.54072     113.9575        13     1.453     0.770  -2.93   2
       246    610.0809    353.6945 307.6733438  +6.5430254     1001.438     1808.439     3180.844     91.49316     183.4229     366.2639      2.219     5.82     1185.926     64.54072     139.5956         9     1.633     0.583  37.79   3
       247    611.2957    350.7962 307.6729372  +6.5442626     1285.349     2836.059     4226.017     91.49316     182.7676     365.8269      2.764     8.36     1185.482     64.54072     134.0284        21     1.993     0.979  43.76   2
       248    695.8376    345.5622 307.6379553  +6.5492452     35026.98     95172.19     121080.6     91.49316     182.9863      366.009      2.768     6.19     1184.665     64.54072     3438.579       135     2.425     2.035  46.40   0
       249     95.6947    341.3498 307.8876824  +6.5309018     2849.993     7467.058     9590.407     91.63873     182.9863      366.373      2.712     6.87     1198.775     64.54072     323.6849        53     2.126     1.703  59.01   0
       250    558.6922    340.8783 307.6951518  +6.5466006     1005.977     2714.489     3596.336     91.49316     183.4229     366.1911      2.961    10.63     1183.387     64.54072     133.1127        18     2.174     1.447  87.68   2
       251     76.5658    344.9260 307.8955149  +6.5287832     606.9574     1003.195     1304.444     91.63873     183.1319     366.1183      1.213     3.49     1199.332     64.54072     147.5967         5     0.855     0.412  68.37   0
       252    541.5368    338.4874 307.7023678  +6.5470146     2991.988     8274.363     10637.75     91.78407     183.3502     366.1911      2.762     6.83     1182.716     64.54072      298.551        58     2.128     1.781  60.11   0
       253    404.5320    333.8201 307.7595046  +6.5443606     10311.41     30297.12     40505.64     91.34735     183.0591     366.0819      2.952     6.75     1181.898     64.54072     1090.061       102     2.449     2.053  48.00   0
       254    270.8231    336.6069 307.8150154  +6.5387330     1151.682     3132.785     4267.773     91.20131     182.9135     365.9726      2.894     7.94     1187.098     64.54072     148.8965        21     1.679     1.380  -8.00   0
       255    492.7465    325.7618 307.7230924  +6.5506380     2628.642     5495.154     7267.364     91.78407     183.2047     366.1547      2.425     7.51     1179.816     64.54072     314.0697        34     2.384     1.201  23.65   3
       256    494.2519    323.0141 307.7225600  +6.5518227     3168.968     6589.806     8145.351     91.05504     183.0591     365.8633      2.284     6.52      1179.41     64.54072     333.1256        32     2.028     1.024  30.26   3
       257    762.4924    322.7745 307.6110084  +6.5608766     1551.411     4151.421      5442.38     91.92919     182.8406     365.9726      2.869     8.03     1181.404     64.54072     176.6678        34     1.789     1.529  64.43   0
       258    383.5118    308.5655 307.7691077  +6.5540840     3149.843      8917.47     10935.26     91.78407     183.0591     366.1547      2.842     7.07     1181.134     64.54072     358.6355        61     2.183     1.843  47.64   0
       259    238.9714    310.8489 307.8291412  +6.5483002     725.2313     1908.099     2761.504     91.34735     183.2047     366.0454      3.205     5.86     1187.497     64.54072     110.6069         7     1.474     0.656  32.44   0
       260    751.3008    304.1095 307.6162973  +6.5682099     24608.29     65684.78     82297.11     91.78407     183.6407     366.1183      2.709     6.08     1180.392     64.54072     2286.191       114     2.345     1.954  46.15   0
       261    239.4138    307.3190 307.8290778  +6.5497724     765.6082     1679.704     2701.599     91.34735     182.8406     365.9362      2.438     6.24     1187.218     64.54072     121.4926         8     1.656     0.662  28.70   0
       262    422.7079    303.7198 307.7529718  +6.5573962     1068.729     2791.259     3572.913     91.49316     183.4229     366.2275      2.699     8.60     1178.912     64.54072     129.7563        22     1.546     1.335  63.55   0
       263    986.0870    300.7945 307.5187592  +6.5773974     768.7957     2073.719     1922.332     91.20131     182.7676     365.8269      2.420     8.04      1167.28     64.54072     107.9937        11     1.601     1.128  49.21   0
       264    926.6985    300.5330 307.5434688  +6.5755294     1360.169     2881.031     3839.148     91.78407     183.2775     366.1547      2.634     6.69     1171.807     64.54072      161.103        21     1.569     1.089   9.84   0
       265    408.4441    298.5950 307.7590787  +6.5590348     930.2043     2387.398     3284.997     91.05504     182.6947      365.754      2.766     8.43     1179.257     64.54072     122.9547        16     1.718     1.156 -68.60   0
       266    461.4604    293.7882 307.7371935  +6.5627929     490.9943     1024.399     2341.759     91.05504     182.9863     365.8269      3.642     4.76     1176.218     64.54072     100.3463         6     1.548     0.415 -57.34   2
       267    749.6261    288.7043 307.6175174  +6.5745145     2803.698     7297.505     8917.702     91.92919     182.8406      366.009      2.630     6.50     1179.307     64.54072     306.9406        54     2.050     1.741  34.31   0
       268    186.2769    290.3901 307.8517545  +6.5549802     1099.419     2559.582     3523.645     91.34735     182.6217     365.9362      2.615     8.15     1190.047     64.54072     153.9504        19     1.726     1.131  41.85   0
       269    766.9047    286.6770 307.6103999  +6.5759276     1186.824     3094.681     4640.092     91.49316     183.2775     366.2639      3.075     8.15     1179.056     64.54072     136.5291        19     1.729     1.074  89.01   2
       270    354.9190    280.9633 307.7819407  +6.5645230     941.7133     2397.595     3129.926     91.78407     183.2047     366.1183      2.925     5.68      1181.63     64.54072     123.6343         9     1.316     0.692  73.65   0
       271     69.5613    282.4149 307.9005663  +6.5543563     653.1981     1355.516     1781.239     91.49316     182.9135     365.8633      2.035     4.94     1198.187     64.54072     89.74939         5     1.193     0.579 -30.21   0
       272   1004.1616    277.3661 307.5120359  +6.5876717     3500.958     7993.058     9414.868     91.49316     182.9135     365.8997      2.364     5.56      1164.94     64.54072     369.5587        48     1.898     1.502  43.84   0
       273    482.6707    279.3109 307.7288655  +6.5694794     768.9661     2194.266     3394.516     91.78407     183.4229     366.1547      2.975     6.84     1173.563     64.54072     101.2614        10     2.390     0.548  17.40   0
       274    244.9505    273.1548 307.8279420  +6.5640631     2366.021      7153.86     9817.863     91.78407     182.9863     366.1547      3.090     7.67     1185.575     64.54072     238.6558        57     2.158     1.817  48.58   0
       275    965.3647    261.7992 307.5287005  +6.5928086      713.608     1507.006     1683.896     90.76179     182.9135     365.9362      2.139     5.47     1166.688     64.54072     123.8309         7     1.040     0.813 -17.70   0
       276    722.1229    253.0180 307.6301694  +6.5883314     2345.293     5858.434     7320.274     91.20131     182.8406     366.1183      2.638     7.89     1174.319     64.54072     253.3751        44     2.161     1.547  53.14   0
       277    556.8862    255.6057 307.6988063  +6.5817471     845.8774     2375.169     3198.773     91.20131     182.7676     365.8269      2.934     7.91     1171.315     64.54072     112.7511        14     1.795     0.976  60.02   2
       278    902.3386    254.1278 307.5551752  +6.5938784      1070.28     2364.406     2939.482     91.92918     183.1319     366.2275      2.524     6.48     1170.229     64.54072     143.3563        13     1.328     0.906   0.40   0
       279    662.8918    252.6405 307.6548177  +6.5865111     840.6924     2614.213     3530.971     91.78407     183.0591     366.2275      3.059     9.49      1172.56     64.54072     96.73572        17     1.824     1.378 -68.87   0
       280    221.6336    237.1271 307.8388700  +6.5781560     931.5875     2465.961     2903.788     91.63873     183.0591     366.1547      2.745     7.31     1186.771     64.54072     130.8457        12     1.480     1.011 -21.93   2
       281    754.6887    236.4512 307.6171876  +6.5962575     912.3398      2182.94     3153.888     91.78407     182.9135     366.3003      2.916     8.61     1172.657     64.54072      130.775        16     1.796     1.153  27.25   0
       282    864.0429    236.9733 307.5716859  +6.5996860     965.4791     1853.382     2139.777     91.34735     183.1319     366.0454      2.149     5.18     1171.662     64.54072      122.004         9     0.950     0.799 -80.69   0
       283    455.7035    228.0988 307.7418268  +6.5897216     9219.887     26831.38     36425.63     91.78407     183.7133     365.9726      2.946     6.76      1170.84     64.54072     930.3401       101     2.399     2.157  56.28   0
       284    781.5293    227.1731 307.6063390  +6.6009830     6241.483     16276.23     20583.57     91.34735     182.9863     366.0819      2.728     6.11     1171.528     64.54072     572.8745        73     2.246     1.773  40.53   0
       285    144.1346    220.9164 307.8716557  +6.5822495     1085.166     2548.711     3001.975     91.92918     183.4229     366.2275      2.604     7.51     1192.962     64.54072     109.4041        18     1.412     1.119  79.44   0
       286    918.0271    217.3101 307.5498992  +6.6096020     765.2955     1559.419     1405.226     91.92918     182.8406      366.009      1.911     6.95     1166.303     64.54072     95.15051         9     1.438     0.940  53.01   0
       287    579.2382    213.9325 307.6909286  +6.5996995     2123.746     5580.545     6088.432     91.63873     183.1319     366.2275      2.556     6.40     1167.862     64.54072     283.3567        39     1.799     1.550 -46.75   0
       288    541.6722    213.4632 307.7065693  +6.5986382     747.2288     2091.339     2164.309     91.78407     183.1319     366.2275      2.443     8.63     1167.141     64.54072     103.1886        13     1.615     1.287  19.50   0
       289    940.3477    210.9388 307.5408312  +6.6129755     1423.932     3252.416      3954.65     91.78407     183.0591     366.1547      2.347     8.07      1164.91     64.54072     152.6041        25     1.678     1.220  30.80   0
       290    886.5732    210.2401 307.5632222  +6.6114739     5909.185     14019.73      17618.5     91.34735     182.9135     365.9726      2.570     5.74     1167.724     64.54072     540.2351        64     2.141     1.614  42.72   0
       291     12.9748    207.3147 307.9266697  +6.5834613     11440.05     30728.07     40022.71     91.92918     182.8406     365.9726      2.836     6.22     1200.364     64.54072     1273.846        98     2.399     1.986  56.68  16
       292    973.2519    208.0025 307.5272444  +6.6152827     5347.929     12797.33     14481.11     91.05504     182.7676     365.6811      2.404     5.56     1163.739     64.54072     524.3542        55     2.002     1.544  43.57   0
       293    684.6173    208.3853 307.6472868  +6.6055080     1318.357     3700.947     4853.283     91.49316     182.7676     366.0819      2.866     9.02     1168.627     64.54072      138.621        31     1.806     1.470  34.24   0
       294    824.6204    199.6286 307.5893515  +6.6137916     992.5378     2565.746     2486.395     91.20131     182.9135     366.0819      2.549     8.86      1168.62     64.54072     129.7854        19     1.604     1.466  74.58   0
       295    506.0951    199.3932 307.7218460  +6.6032582     1036.935     2902.017     3309.648     91.49316     182.7676     365.9362      2.660     8.15     1166.477     64.54072     126.3505        21     1.888     0.984 -72.06   2
       296    493.9020    201.6559 307.7268404  +6.6019164     736.2753     1759.573     2283.048     91.63873     183.1319     366.4094      2.708     5.13     1166.789     64.54072     131.8356         7     1.234     0.668  48.80   0
       297    877.0967    199.0218 307.5675447  +6.6157902     1077.319     2597.764     3719.809     91.63873     182.9135     365.9362      2.961     7.53     1167.302     64.54072      131.449        20     1.548     1.204  24.09   0
       298    736.8589    196.3061 307.6259682  +6.6122379     18264.49     48234.29     60639.91     91.63873     183.1319     366.3003      2.714     6.11     1168.821     64.54072     1787.198       108     2.348     1.944  42.37   0
       299    339.9658    195.9208 307.7910617  +6.5991335     3041.208      8440.08     12721.42     91.63873     183.2047     366.2275      3.153     7.47     1178.131     64.54072     305.4227        71     2.405     1.945  84.86   0
       300    970.4545    195.1951 307.5288423  +6.6204775     1602.423     3649.766     4093.604     91.05504     182.8406     365.7905      2.294     7.51     1163.166     64.54072     185.0529        28     1.772     1.240  45.53   0
       301    904.5894    193.3548 307.5563015  +6.6190453     4007.028     9725.528     11268.39     91.20131     182.9863     365.8269      2.523     5.90     1165.397     64.54072     395.2273        53     2.086     1.537  58.81   0
       302    448.2571    192.8548 307.7461253  +6.6040237     2140.641     5845.861      7358.45     91.92918     183.2047     366.1911      2.820     7.41     1168.979     64.54072     236.9417        51     2.080     1.801  66.35   0
       303   1008.1667    193.2689 307.5132211  +6.6225272     1099.315     2137.613     2499.215     91.63873     183.1319     366.1911      2.122     5.98     1161.972     64.54072     143.5291        12     1.330     0.757  18.40   0
       304    105.6603    183.9625 307.8889210  +6.5962150     2002.373     5645.715     7916.758     91.78407     183.2047     366.1547      2.925     7.40     1194.173     64.54072     208.7832        50     2.098     1.722  84.18   0
       305    276.0673    180.7415 307.8181565  +6.6032600     14053.18     40009.41      53736.1     91.92918     183.0591     366.1547      2.938     6.57     1185.292     64.54072     1426.554       113     2.454     2.108  52.33   0
       306    251.0666    181.8192 307.8285180  +6.6019772     2680.787     7690.098     9957.292     91.34735     183.1319     366.0454      2.885     7.21      1186.43     64.54072     292.6143        65     2.241     1.907  51.35   0
       307    400.0674    176.1753 307.7667376  +6.6092977     19908.41     58174.23     77925.82     91.34735     182.9863     366.0454      2.936     6.65       1171.2     64.54072     2110.122       119     2.469     2.111  49.46   0
       308    156.2125    177.5810 307.8681141  +6.6005461     1741.424     5019.742     6750.745     91.49316     182.8406     366.0454      2.981     7.81     1190.161     64.54072     210.3354        46     2.061     1.677  60.98   0
       309    304.5648    173.9057 307.8065372  +6.6070370     7583.694     21310.57     30398.97     91.92918     182.9863     366.2639      3.144     7.04      1182.62     64.54072     739.2826       105     2.714     2.159   6.81   0
       310    739.3121    172.2104 307.6257669  +6.6222683     15180.61     40422.09     50665.97     91.34735     182.8406     365.9726      2.681     6.13     1166.776     64.54072     1398.591       100     2.355     1.896  46.01   0
       311     56.2824    169.7849 307.9099427  +6.6004103       4052.1     10989.17     13893.55     91.34735     182.8406      366.009      2.765     6.19     1197.708     64.54072     487.9115        67     2.085     1.918  43.58   0
       312    997.1918    166.6170 307.5186899  +6.6331663     703.6401     1294.146     1362.331     91.34735     182.8406     365.9726      1.936     6.36     1161.042     64.54072     92.11694         8     1.542     0.736  53.34   0
       313     89.3931    166.9101 307.8962700  +6.6027091     512.5782     1463.035       2395.7     91.20131     182.7676     365.8997      2.704     6.34     1194.724     64.54072     101.5747         7     1.732     0.652  42.98   0
       314    998.3820    152.8607 307.5186613  +6.6388856     1235.899     2994.821     4005.408     91.34735     183.0591     365.9362      2.600     8.87     1160.006     64.54072      181.578        26     1.882     1.167  54.47   0
       315    590.3233    148.4789 307.6885463  +6.6270938     987.7134     2526.059     3424.789     92.07407     183.4229     366.2639      2.884     7.29     1164.635     64.54072      139.085        13     1.666     0.894 -88.40   2
       316    274.9298    146.9885 307.8197823  +6.6171572     12559.12     35957.89     48321.54     91.20131     182.8406     365.9362      2.932     6.54     1185.999     64.54072     1325.401       107     2.442     2.089  49.77   0
       317    441.3720    150.3819 307.7504371  +6.6213290     2701.746     2448.728     1846.885     91.34735     182.9135     366.0454      0.767     0.97     1166.551     64.54072     1373.926         5     0.638     0.348  39.36   0
       318     20.2921    145.7271 307.9257349  +6.6091337     1847.878     5055.084     6290.374     91.63873     183.2775     366.1911      2.802     7.09     1200.793     64.54072     252.0767        45     2.063     1.617  59.64   0
       319    706.4293    143.3927 307.6404245  +6.6330695     3595.177     9772.869     12585.07     91.34735     182.9135     365.8997      2.759     6.43     1164.383     64.54072     359.0112        62     2.121     1.774  58.13   0
       320    117.5697    140.8139 307.8854436  +6.6144289      2082.43     5982.749     7773.403     91.34735     182.8406     366.0819      3.140     7.98     1191.575     64.54072     207.3593        50     2.090     1.731  56.32   0
       321    388.0460    136.5947 307.7730879  +6.6252368     1674.444     4948.743     6559.625     91.05504     182.8406     365.7905      2.882     8.54      1170.83     64.54072     210.1295        42     1.958     1.666  43.39   0
       322    353.9691    135.6557 307.7872939  +6.6244837     1236.909     3141.133     4267.209     91.63873     183.2047     366.1183      2.947     7.69     1174.928     64.54072     148.6382        22     1.737     1.118  30.79   2
       323    999.1501    129.2349 307.5191430  +6.6486658     978.6062     2077.119     2307.329     91.63873     183.1319     366.0454      2.257     7.36     1157.815     64.54072     107.2295        15     1.523     0.996  55.64   0
       324    204.3163    124.5556 307.8499191  +6.6240517      2264.27     6425.528     8635.222     91.78407     183.1319     366.1547      2.860     7.44     1188.017     64.54072     267.2639        51     2.158     1.663  49.97   0
       325    666.0721    123.2061 307.6578982  +6.6400574     2731.791     7433.994     9320.418     91.34735     182.6217     366.0454      2.742     7.06     1163.062     64.54072     258.3258        56     2.210     1.648  51.93   0
       326     87.0063    124.4105 307.8987168  +6.6201751     977.0556     2671.872     3476.554     91.20131     182.9135     366.0454      2.911     9.67     1193.177     64.54072      135.275        24     1.698     1.535 -30.79   0
       327    618.0076    120.4380 307.6779854  +6.6395956     4086.486     11520.69     14306.58     90.90853     182.8406     365.8633      2.686     6.85      1163.25     64.54072     441.3044        61     2.213     1.730  41.83   3
       328    621.7345    112.0582 307.6767204  +6.6431798     23495.82     63814.48     83308.18     91.92918     183.0591     366.1911      2.817     6.33     1162.599     64.54072     2213.158       127     2.453     2.079  50.06   3
       329    345.3520    116.3905 307.7915356  +6.6321491     1764.253     4965.356     6547.403     91.20131     182.9135      365.754      2.932     8.62     1176.348     64.54072     186.7292        42     1.967     1.688  59.80   0
       330    527.8049    115.9362 307.7156594  +6.6384407     638.2333     1686.438      2058.75     91.05504     182.9135     365.9362      2.216     4.60     1162.828     64.54072     108.9652         6     1.658     0.363 -56.87   0
       331    301.2428    105.9382 307.8102394  +6.6349870     1484.771     4330.781     5801.956     91.78407     183.0591     366.2639      2.961     8.52     1183.497     64.54072     160.4833        36     1.836     1.592  85.42   0
       332      1.9886     89.7595 307.9352640  +6.6316250     279398.9     465890.5     524966.6     87.62338     156.2685     287.5707      1.848     6.17     1200.998     64.54072     44348.55       212     2.521     1.432 -88.18  24
       333    685.9318     95.5863 307.6505768  +6.6521236     1534.648     4379.829     5011.695     91.20131     182.9135     366.0454      2.671     9.86     1160.397     64.54072     171.0752        33     1.729     1.575  45.76   0
       334    427.5929     88.3988 307.7582822  +6.6464587     1586.307     3613.272     4299.592     91.05504     182.7676     365.9362      2.444     8.47     1166.057     64.54072     177.2504        26     1.925     1.041   5.38   3
       335    428.7426     85.7632 307.7578938  +6.6475853     1627.896     3316.002     4268.958     91.78407     183.1319     366.1547      2.178     7.33     1166.096     64.54072     182.7992        16     1.888     0.797  18.76   3
       336    881.9133     83.4099 307.5694662  +6.6636842      1050.22     2346.898     2584.471     91.34735     182.7676     365.9726      2.202     7.99     1156.385     64.54072      108.448        18     1.808     0.988  52.32   0
       337    900.3771     82.2545 307.5618248  +6.6647760     2010.523     4835.765     5618.117     91.20131     183.1319     365.9362      2.498     6.35     1155.853     64.54072     232.2999        35     1.718     1.450  35.06   0
       338    592.2767     82.2836 307.6899875  +6.6544891     776.8456     1685.203     2501.984     91.92919     183.4955     366.2639      2.569     7.03     1161.254     64.54072     101.9219         8     1.240     1.117 -40.37   0
       339    390.7476     78.4246 307.7739486  +6.6493436     1007.009     2389.514     2680.076     91.20131     183.1319     366.0454      2.374     6.98     1170.537     64.54072     133.6536        15     1.386     1.151 -58.23   0
       340    137.5499     77.2371 307.8793076  +6.6413475     967.8771         1697     2599.408     91.49316     182.9863      366.009      2.122     8.00     1189.069     64.54072     128.5116        15     2.465     0.727   8.51   2
       341    140.0462     75.0000 307.8783458  +6.6423549     1145.407     2548.418     3508.901     90.90853     182.6947     365.6082      2.481     7.68     1188.947     64.54072     135.1179        18     1.827     0.904  31.82   3
       342     21.1457     73.8190 307.9278418  +6.6388497     5838.772     15450.51     21142.07     91.20131     183.1319     365.9362      2.949     6.23     1196.758     64.54072       640.65        83     2.385     1.901  60.50   0
       343    822.6964     68.1629 307.5946176  +6.6680066     3237.745     7897.836     9265.692     91.78407     182.9863     366.3367      2.474     6.11     1156.604     64.54072      332.761        48     2.015     1.474  54.66   0
       344    767.2313     68.1351 307.6176913  +6.6661693     1749.805     4253.037     5415.103     91.49316     183.2047     366.0819      2.689     7.16     1157.725     64.54072      195.657        35     1.804     1.461  44.45   0
       345     61.5938     65.4460 307.9113045  +6.6436654     1525.995     3826.337     4906.243     91.20132     182.8406      365.754      2.787     7.97     1192.709     64.54072     190.9731        33     2.035     1.413  69.92   0
       346      4.0640     61.0106 307.9353853  +6.6435637     1438.413      3483.19     4600.324     91.20131     180.9352     321.9075      2.814     9.24     1196.035     64.54072     147.6135        28     1.763     1.396  47.46  18
       347    585.6393     60.7691 307.6934811  +6.6631500     581.1207     1166.486     1560.303     91.34735     182.9135     365.9726      2.300     6.07     1160.542     64.54072     109.3705         7     1.292     0.802 -63.89   0
       348    762.9954     56.4380 307.6198510  +6.6708575     1008.453     2835.508     3817.939     90.76178     182.8406     365.8633      2.857     8.03     1157.335     64.54072     106.6183        17     1.497     1.204 -33.45   2
       349    418.6716     49.9423 307.7633047  +6.6620375     1078.916      3154.18     3716.918     91.92918     183.1319     366.1183      2.802    10.38     1168.696     64.54072     128.0063        27     1.817     1.652 -13.67   0
       350     89.3713     50.0953 307.9002758  +6.6509358     4347.685     11381.34     14198.75     91.92918     182.8406     366.0819      2.716     6.04     1190.388     64.54072     453.8774        62     2.140     1.757  55.28   0
       351    631.8772     41.7435 307.6748946  +6.6725494     8510.237     22843.25     28971.81     91.78407     183.0591     366.1183      2.736     6.26     1159.245     64.54072     818.3528        84     2.315     1.861  49.81   0
       352    531.5420     37.7463 307.7167688  +6.6708477     2325.061     6198.162     7270.191     91.92919     183.1319     366.1547      2.710     7.68     1161.196     64.54072     243.5946        47     1.975     1.770  36.09   0
       353    705.9296   1021.0436 307.6108063  +6.2706875     840.8626     1491.311     2756.544     91.63873     180.3448     320.4133      2.275     5.56      1219.26     64.54072     117.0177         9     1.068     0.815  49.47  16
       354    257.8034     34.0077 307.8307651  +6.6632284     3939.879     10929.64     15618.64     91.05504     182.7676      366.009      3.556     6.71     1185.851     64.54072     432.6959        73     2.251     1.970  28.25   0
       355    618.1420     32.3462 307.6809282  +6.6759706     1543.656     4378.769     6429.599     91.92918     183.1319     366.1547      3.432    11.00     1158.868     64.54072     176.6301        40     2.195     1.535  62.83   0
       356    914.7704     33.2242 307.5575015  +6.6854986     1177.865     2583.254     2853.267     91.20131     182.9863     365.9726      2.229     7.64     1152.142     64.54072      123.032        19     1.532     1.065  46.47   0
       357     23.5197     33.5067 307.9282347  +6.6555724     1167.803     2820.734     3518.194     91.49316     183.3502     366.2275      2.750     7.62     1191.208     64.54072     139.3088        22     1.577     1.376 -66.52   0
       358    245.9347     30.9065 307.8358080  +6.6641109     1195.771     3440.468     5126.343     91.78407     183.3502     366.1911      4.629    10.18     1186.014     64.54072     136.5698        31     1.961     1.474  49.93   0
       359    686.5778     22.8378 307.6527829  +6.6821809     901.7017     2012.055     2189.942     91.34735     182.8406     365.8997      2.072     8.05     1158.144     64.54072     123.2549        14     1.879     0.963 -15.05   0
       360    745.4646   1017.3349 307.5944989  +6.2735367     732.4969     1444.155      2072.74     91.78407     183.1319      362.496      2.213     5.34      1218.42     64.54072       95.125         7     1.618     0.497 -88.59  16
       361    953.5009   1011.5667 307.5082191  +6.2828445     5139.289     10138.23     11056.92     91.78407     182.9863     366.3367      2.104     4.89     1212.892     64.54072     605.8635        44     1.818     1.349  54.85   0
       362    712.6732   1009.9675 307.6083794  +6.2754855     1775.453     4201.711      6139.25     91.63873     183.1319     366.1547      3.030     9.24     1218.655     64.54072     204.0735        36     2.198     1.513   1.91  16
       363    729.0613   1008.7960 307.6016071  +6.2765155     810.0541     1290.136      886.718     91.05504     182.8406     365.8269      1.901     5.77     1218.217     64.54072     111.9858         8     1.204     0.778   7.60   0
       364    360.4506   1007.4841 307.7548691  +6.2647480     1059.259     2474.625     3430.719     91.78407     183.0591     366.2639      2.525     7.06     1224.797     64.54072     159.3246        18     1.523     1.141  38.24   0
       365    746.7402    996.8144 307.5946652  +6.2820518      5370.22      11000.2     12389.63     91.20131     182.9863     365.8633      2.172     4.84     1217.602     64.54072     585.8075        45     1.823     1.356  49.28   0
       366    542.2444    997.6201 307.6796408  +6.2748969     2731.519     6048.207     7794.207     91.20131     182.9863     365.9726      2.528     5.13     1220.598     64.54072     287.2698        34     1.613     1.370  19.39   3
       367    539.5022    989.9132 307.6810428  +6.2779873     5115.128     11448.39     14116.91     91.78407     183.6407     366.1911      2.538     5.63     1220.604     64.54072     565.5825        58     2.189     1.494  53.87   3
       368    292.4637    996.3646 307.7835069  +6.2670637     9135.774     20220.45     24708.23     91.63873     183.0591     366.1911      2.423     5.04     1227.672     64.54072     990.9882        70     2.041     1.710  48.30   0
