#   1 NUMBER                 Running object number                                     
#   2 X_IMAGE                Object position along x                                    [pixel]
#   3 Y_IMAGE                Object position along y                                    [pixel]
#   4 ALPHA_J2000            Right ascension of barycenter (J2000)                      [deg]
#   5 DELTA_J2000            Declination of barycenter (J2000)                          [deg]
#   6 FLUX_APER              Flux vector within fixed circular aperture(s)              [count]
#   9 FLUXERR_APER           RMS error vector for aperture flux(es)                     [count]
#  12 FLUX_RADIUS            Fraction-of-light radii                                    [pixel]
#  13 FWHM_IMAGE             FWHM assuming a gaussian core                              [pixel]
#  14 BACKGROUND             Background at centroid position                            [count]
#  15 THRESHOLD              Detection threshold above background                       [count]
#  16 FLUX_MAX               Peak flux above background                                 [count]
#  17 ISOAREA_IMAGE          Isophotal area above Analysis threshold                    [pixel**2]
#  18 A_IMAGE                Profile RMS along major axis                               [pixel]
#  19 B_IMAGE                Profile RMS along minor axis                               [pixel]
#  20 THETA_IMAGE            Position angle (CCW/x)                                     [deg]
#  21 FLAGS                  Extraction flags                                          
         1    177.7490     23.6862 307.8652775  +6.6682271     5703.781     13676.91     16848.64      87.9947     175.4316     351.1075      2.625     6.61     1087.768      61.8761     601.8674        67     2.415     1.502 -27.53   0
         2    522.1104     21.7076 307.7222516  +6.6805404     1671.424     3880.838     4015.089     87.99469     176.1286     351.0726      2.440     6.99      1066.93      61.8761     186.4147        29     1.984     1.157 -30.83   0
         3    923.1990     21.1701 307.5555953  +6.6941005     2481.825     5467.432     5606.222     87.29575     175.3617     350.8282      2.261     6.43     1056.658      61.8761     315.4456        35     1.974     1.130 -24.39   0
         4    986.7479     18.0348 307.5292934  +6.6975031     1244.619     2558.898     2633.506     87.85535     175.5712      350.933      2.117     5.21      1047.99      61.8761     141.4833        13     1.108     0.926 -89.95   2
         5    707.4345     13.9084 307.6455066  +6.6899302     3989.736     9380.298     11007.07     88.13381     175.4316     351.0726      2.476     6.82     1062.012      61.8761     440.9117        52     2.211     1.448 -22.85  16
         6    627.7863     13.1664 307.6786302  +6.6875863     1890.596     4460.005     5078.762     87.43599     175.2918      350.933      2.466     8.04     1064.348      61.8761     252.3413        32     1.973     1.194 -27.63   0
         7     28.9049      9.2984 307.9276193  +6.6691849     4490.126     10568.04     13067.21     87.99469     176.1981     350.8631      2.584     6.74     1092.491      61.8761     503.4414        57     2.323     1.421 -29.66  16
         8    428.0993      9.5010 307.7617354  +6.6824453     3460.706      7727.48     10012.56     87.99469     175.9894     350.8631      2.640     6.82     1071.663      61.8761     372.9601        51     2.357     1.377 -25.50  16
         9    324.5248      4.4880 307.8049466  +6.6810579     6877.747     16506.32      20512.4      87.9947     175.9198     314.7493      2.657     6.65     1081.335      61.8761     799.4844        70     2.462     1.531 -30.12  24
        10     98.1688      4.9451 307.8989886  +6.6733013     1374.245       3340.2     4039.055     87.85535      175.641     320.6496      2.530     8.10     1090.133      61.8761     175.2195        28     1.964     1.113 -25.42  16
        11     88.8037      4.2551 307.9029037  +6.6732727     758.2509     1766.452     2468.908     87.29575     174.5915     311.1476      2.592     7.29     1090.386      61.8761     113.5374         9     1.484     1.001 -14.90  16
        12    390.9143      2.6303 307.7774227  +6.6840411     1079.594     2370.663     2514.157     87.99469     159.0974     286.9344      2.286     7.56     1074.955      61.8761     136.3774        18     2.010     0.797 -27.25  24
        13    541.6701    997.5859 307.6807571  +6.2782999     5329.918     11292.86     13530.88     87.43599     175.4316      350.933      2.285     6.27     1116.158      61.8761     677.1447        49     2.275     1.135 -28.69   0
        14   1005.7284    993.7411 307.4881957  +6.2953009     3471.378     7212.286     7831.802     88.13382     175.5712     351.0377      2.169     6.78     1103.579      61.8761       468.54        36     2.135     0.986 -27.97   0
        15    884.0092    994.2244 307.5387221  +6.2910653     8391.435     17960.37     20590.29       87.576     175.3617      350.898      2.264     7.55     1107.152      61.8761     1203.687        52     2.265     1.084 -26.02   0
        16    597.0680    994.4565 307.6578615  +6.2814356     947.8714     2040.006     2116.417     88.13381     175.5014     350.9679      2.110     7.10     1116.023      61.8761      135.028        14     1.683     0.889 -11.71   0
        17    528.1925    993.4294 307.6864953  +6.2795672     2525.166     5587.897      6623.56       87.576     175.3617     350.7933      2.328     6.44      1115.71      61.8761     314.0389        33     1.964     1.119 -29.11   0
        18    637.6765    993.1244 307.6410452  +6.2833365     989.7103     1745.311     1686.129     88.27272     175.8501     351.1424      2.089     5.40     1114.411      61.8761     142.9424        11     1.348     0.610 -23.28   0
        19    480.9488    989.8467 307.7062344  +6.2794730     1288.281     2871.309     2706.416     88.13381     175.4316     351.1075      2.196     7.10     1114.979      61.8761     178.5021        22     1.934     1.028 -40.44   0
        20    915.6807    981.8195 307.5259931  +6.2972374     30234.94     62707.12     71414.36       87.576     175.2219     350.9679      2.211     7.48     1106.239      61.8761     4070.694        81     2.302     1.184 -27.45   0
        21    222.7220    980.5447 307.8137723  +6.2747006     1092.261      2384.76      2925.77     88.13382     175.5712     351.0726      2.390     7.67     1116.625      61.8761     142.7778        17     1.941     0.848 -34.76   0
        22    622.3299    978.0790 307.6479312  +6.2890376     659.5065     1238.243     621.5959     88.27272     175.8501     351.0028      1.611     6.28     1114.227      61.8761      123.506         9     1.587     0.699 -30.69   0
        23    813.5178    975.7101 307.5686236  +6.2963695     1656.151     3318.681     3581.446     87.71579     175.8501     351.1075      2.045     7.94     1108.322      61.8761     209.3237        24     1.945     0.906 -27.50   0
        24    761.9770    973.4544 307.5901024  +6.2955891     4307.913     9427.587     11354.88     87.43599     175.5712     350.8282      2.316     7.47     1109.594      61.8761     596.3696        44     2.300     1.081 -30.05   0
        25    231.5303    972.6595 307.8103853  +6.2782501     868.5081     1850.732     2447.756     88.13382     175.5712     351.0377      2.753     7.74     1116.547      61.8761       100.92        16     1.576     1.065 -30.89   0
        26    195.4625    971.8715 307.8253880  +6.2773708     636.8937     1461.492      1921.37     88.13381     175.5712     351.1075      2.737     5.61     1116.479      61.8761     100.2023         9     1.761     0.503 -31.66   0
        27     56.2751    970.7021 307.8832193  +6.2732009     1755.651     3859.195     4445.425       87.576     175.7804     351.0377      2.352     7.15     1116.633      61.8761     263.5869        27     2.000     0.915 -29.23   0
        28    950.0762    968.5825 307.5121609  +6.3038432     4824.189     10159.51     11205.91     87.43599     175.2918     350.9679      2.209     7.42     1104.908      61.8761     717.2966        41     2.142     1.028 -27.08   0
        29    923.7754    960.3846 307.5233614  +6.3063556     1450.554     2833.222     2833.516     87.71579     175.3617     350.9679      1.989     7.21     1105.086      61.8761     178.0652        20     2.019     0.721 -27.24   0
        30    644.6016    956.2314 307.6394290  +6.2987983     2901.829     6223.409     6693.661     87.29576     175.3617     350.7933      2.266     7.03     1111.974      61.8761     351.2538        39     2.259     1.061 -27.95   0
        31    256.8633    956.5006 307.8004203  +6.2857671     2693.187     6009.668      6888.88     87.71579      175.641     351.0726      2.325     7.17     1116.395      61.8761     357.1749        37     2.174     1.102 -29.84   0
        32    781.6118    957.2651 307.5825010  +6.3029252     773.3849     1376.517     2008.828     87.43599     175.3617      350.898      2.255     5.10     1108.578      61.8761     119.5939         8     1.028     0.716  68.69   2
        33    465.4716    955.6105 307.7138314  +6.2930919     801.3816     1544.853     1210.302     87.43599      175.152     350.8631      2.019     3.77     1114.432      61.8761      148.319         6     0.955     0.510 -33.67   0
        34     25.8472    954.1415 307.8964215  +6.2790198     1334.608     3027.365     3038.432     87.99469     175.5712     351.1773      2.261     8.60     1116.316      61.8761     213.6301        25     2.151     0.960 -25.02   0
        35    876.5632    952.6594 307.5432294  +6.3079789      587.895     1340.447     952.9687      87.9947      175.641     351.0377      2.227     6.64     1105.788      61.8761     108.5951         8     1.777     0.697 -48.09   0
        36    599.4919    951.8851 307.6583087  +6.2990921     3356.976     4746.992     4532.315     87.71579      176.059     351.1424      1.475     5.14     1112.982      61.8761     683.7729        11     1.493     0.500  89.83   0
        37    947.5481    950.1033 307.5138396  +6.3113887      625.054     1304.988     976.9513     87.85535     175.5712     351.3168      1.913     6.09     1104.258      61.8761     89.39404        10     1.735     0.601 -50.25   0
        38    568.9343    948.9099 307.6710991  +6.2993035     1184.094     2123.387     2395.091     87.85535     175.7107     351.0377      1.945     7.45     1113.281      61.8761     147.2655        19     1.739     0.893 -30.27   0
        39    607.3425    946.1057 307.6552462  +6.3017394     772.8877     1385.254     1803.818     87.85535     175.5712      351.247      2.189     5.43       1112.4      61.8761     132.0804         8     1.509     0.552  -3.97   0
        40    288.1027    943.1128 307.7879077  +6.2923369     962.0813     2050.742     2465.716     87.99469      176.059     351.0726      2.269     6.84     1116.297      61.8761     140.9799        14     1.520     0.863 -24.18   0
        41    755.3543    939.1238 307.5940229  +6.3095428      629.203     1450.102     1345.312     87.85535      175.641     351.0726      2.264     5.90     1108.576      61.8761     106.4907         9     2.224     0.441 -31.47   0
        42    892.7458    935.4973 307.5370939  +6.3156014     4712.396     9892.539     10895.03     87.85535     175.5712     351.2819      2.199     7.22      1104.73      61.8761     604.7748        43     2.208     1.033 -27.65   0
        43    428.3023    933.2513 307.7300301  +6.3010843      1266.45     2925.399     3630.735     87.85535     175.5712     351.2819      2.540     6.34     1114.705      61.8761     140.0071        17     1.417     1.130 -17.22   2
        44    330.4051    931.1213 307.7707532  +6.2986992     5723.055     13209.04     15950.72       87.576      175.012     350.7933      2.445     6.76     1115.652      61.8761     674.5562        53     2.259     1.245 -26.60   0
        45    250.5756    930.0919 307.8039360  +6.2964598     4305.988     9719.126     11700.66     88.13381     175.3617     350.8631      2.448     6.67     1116.182      61.8761     550.0793        49     2.343     1.223 -28.83   0
        46    580.2025    924.4058 307.6672570  +6.3097952     617.2375      1102.43     2188.683     87.29576     175.2219     350.8631      2.343     4.45     1111.659      61.8761     87.44495         5     1.187     0.475   6.65   0
        47    908.2585    920.5772 307.5311601  +6.3222759      727.673     1404.315     1867.396       87.576     175.5712     350.8631      2.783     6.77     1103.739      61.8761     95.95679        12     1.586     0.809 -32.50   0
        48    744.5952    913.7962 307.5993543  +6.3196421     1174.867     2286.321     2720.136     87.29576      175.082     350.8631      2.083     6.95     1107.963      61.8761     151.6046        17     1.804     0.750 -25.04   0
        49    567.7723    914.9824 307.6727405  +6.3132720     564.1039     952.4781     882.4614       87.576     175.3617      350.933      1.524     3.82     1111.728      61.8761     90.79431         5     1.258     0.333 -25.58   0
        50    975.7318    909.6116 307.5035138  +6.3290407     1112.078     2258.865     3053.334     87.43599     175.3617     350.8981      2.177     7.28      1102.49      61.8761     139.7324        16     1.960     0.757 -37.79   0
        51    528.4926    909.8461 307.6892269  +6.3140849     760.8743     1390.385     1548.629      87.9947     175.5014     351.1773      1.954     4.59     1112.498      61.8761     89.10168         6     1.009     0.593  23.55   0
        52    663.1071    907.2078 307.6334178  +6.3196535     1575.766      3568.04     4137.092       87.576     175.2219     350.8282      2.360     7.98     1109.284      61.8761     231.1172        25     2.208     0.806 -22.62   0
        53    203.6713    902.5498 307.8243560  +6.3062640     1259.484     2964.109      3203.31      87.9947     175.5712     351.0726      2.334     7.98     1115.917      61.8761     208.0685        19     1.969     0.905 -30.41   0
        54     59.7332    903.3102 307.8840969  +6.3011386     1982.164     4401.093     4777.451     88.13382     175.7107     351.0028      2.298     6.39      1114.94      61.8761     292.6262        31     1.944     1.134 -32.49   0
        55    940.3701    903.1605 307.5184180  +6.3305317     573.7445     853.7828     834.0054     87.43599     175.2219      350.898      1.877     5.21     1102.277      61.8761     95.61768         5     1.427     0.538 -50.73   0
        56     77.1800    902.4054 307.8768836  +6.3020956      1301.58     2595.605     2538.591       87.576     175.2219     350.8282      2.031     7.70     1115.103      61.8761     164.6317        22     1.814     0.915 -15.22   0
        57    658.0264    896.1807 307.6359039  +6.3240372     4390.922     9593.734     11555.16       87.576     175.3617      350.933      2.383     6.54     1108.962      61.8761     521.5818        43     2.161     1.123 -25.42   0
        58    794.4226    897.2185 307.5792280  +6.3281415     631.1889     1068.723     1362.347     87.71579     175.5014     350.9679      2.132     4.48      1105.92      61.8761     117.5151         7     1.523     0.375 -26.43   0
        59    895.8447    892.2424 307.5372799  +6.3335625     1785.832     3884.141     4601.797     87.85535     175.5712      350.898      2.338     8.50     1102.917      61.8761     241.3719        28     2.353     0.857 -32.72   0
        60     18.0698    894.7953 307.9016888  +6.3032598     671.7889     1607.892     1761.331     87.43599      175.152     350.8631      2.357     5.95     1114.165      61.8761     141.4713         9     1.613     0.618 -23.55   0
        61     31.2363    893.0613 307.8962813  +6.3044163     764.7953     1577.637     2092.546     87.99469     175.5712     351.0028      2.435     7.12     1114.272      61.8761     110.0667        12     1.789     0.794 -17.57   0
        62    341.1296    889.3909 307.7677287  +6.3162852     9666.092     21900.85     26560.78     87.43599      175.152     350.8631      2.420     6.80     1115.143      61.8761     1179.498        66     2.377     1.317 -29.41   0
        63     76.0019    890.3148 307.8777878  +6.3070477     778.9811     1566.097     1477.086     87.29575      175.152     350.7234      2.140     7.21     1114.865      61.8761      125.719        13     1.538     0.946 -11.39   0
        64    211.6347    889.0452 307.8215122  +6.3121053     888.9857     1598.714     1447.081       87.576     175.5014      350.933      1.962     4.84     1115.902      61.8761     138.1022         9     1.131     0.587 -27.43   0
        65    104.4723    880.2034 307.8663131  +6.3121742     1247.025     2552.101     3001.696     87.43599      175.082     350.8631      2.171     7.96     1115.105      61.8761     151.4292        22     1.731     1.023 -32.03   0
        66    418.3212    880.0074 307.7359961  +6.3227334     648.9879     1101.965     983.7709       87.576      175.012     350.7933      1.714     3.39     1113.164      61.8761     142.7826         5     0.818     0.407 -71.15   0
        67     87.8511    873.9615 307.8734289  +6.3141953     1671.945     3464.773     3926.942     87.71579     175.5014     350.9679      2.188     7.46     1114.821      61.8761     216.5074        25     1.864     1.030 -32.75   0
        68    886.1611    874.1730 307.5419167  +6.3407014     1432.421      2607.32     3024.896       87.576     175.3617     350.8631      2.031     7.12     1102.542      61.8761     206.9673        21     1.894     0.750 -30.33   0
        69    855.2247    874.5377 307.5547514  +6.3395242      1408.79     2032.354      2458.69       87.576     175.5014     350.9679      1.608     4.06     1103.522      61.8761     210.5166        12     1.185     0.784 -47.08   3
        70    858.3148    873.3339 307.5535092  +6.3401237     1023.516     1802.166     1907.868     88.13382     175.8501     351.1075      2.132     5.06     1103.386      61.8761     145.3628         9     1.153     0.939 -34.40   3
        71    819.9520    873.0512 307.5694501  +6.3389670     2007.284     4384.945     4995.682     88.13382     175.4316     351.0377      2.298     7.83     1104.142      61.8761     264.1304        28     2.020     0.953 -29.89   0
        72    556.1351    864.5463 307.6792960  +6.3337074     201353.7     444543.1     526193.9     87.99469     175.5014     351.0028      2.395     6.65     1110.759      61.8761     23512.34       192     2.509     1.521 -27.81   0
        73    343.6164    865.5985 307.7675107  +6.3261909     7364.812     16258.22     19517.87       87.576      175.082     350.7933      2.441     6.76     1114.886      61.8761     839.1324        62     2.447     1.270 -30.45   0
        74    400.4095    867.1245 307.7438748  +6.3274550     4660.596     10454.51     12147.28       87.576      175.082     350.8282      2.329     6.29     1113.239      61.8761     535.8447        49     2.244     1.212 -29.06   0
        75    661.8362    861.7797 307.6354960  +6.3383665     2230.635     5229.933     5884.718     87.43599     175.3617     350.7584      2.386     7.19      1107.52      61.8761     283.7008        35     2.176     1.094 -26.25   0
        76    894.2980    860.6350 307.5389986  +6.3465607     3731.102     7457.667      8207.24      87.9947     175.4316     351.2122      2.154     6.69     1101.697      61.8761     471.6404        36     2.037     0.997 -26.69   0
        77    824.4464    855.5058 307.5681815  +6.3463600     1011.451     1966.962      1980.35     87.85535     175.5014     351.1773      1.953     6.44     1103.409      61.8761     148.1517        14     1.439     1.091  -5.30   0
        78    636.6122    855.9849 307.6461687  +6.3399201      1994.78     4388.656     4899.333     87.85535     175.2219     350.9679      2.212     7.69     1108.029      61.8761     253.7546        28     1.964     0.938 -29.35   0
        79    629.5080    850.7211 307.6492986  +6.3418569      1379.16     3611.802     5167.908     87.71579     175.8501     351.1075      3.042     8.13     1108.012      61.8761     177.7626        33     1.984     1.459 -37.86   2
        80    913.0128    848.5427 307.5316383  +6.3521741     2074.406     4009.194     5194.263     87.29575     175.4316     350.6885      2.117     6.56     1100.487      61.8761     266.7549        30     2.019     0.955 -29.50   0
        81    371.0382    844.7469 307.7568373  +6.3357141     1684.427     3647.047     3582.003     87.85535      175.641     351.0377      2.217     6.97     1113.471      61.8761     205.1312        28     1.968     1.009 -25.52   0
        82    507.6461    834.4075 307.7004621  +6.3445357       1976.2     4409.646      5322.05     87.43599     175.3617     350.6536      2.447     7.76     1110.179      61.8761     229.9165        30     2.248     0.923 -26.60   0
        83    851.5671    833.8316 307.5576572  +6.3562088     691.3208     1248.908     1751.012     87.43599     175.2918     350.7234      1.895     6.67     1101.624      61.8761     95.53064        10     1.687     0.740 -24.60   0
        84    554.8505    830.4160 307.6809956  +6.3477555     3450.524     8327.349     10453.17     87.43599      175.641     350.7234      2.708     7.33     1108.999      61.8761     391.0625        53     2.509     1.300 -19.93   2
        85    472.3050    829.1871 307.7153168  +6.3455137     969.2996     1929.808     2689.447     87.71579     175.2918     350.8631      2.488     6.72     1110.649      61.8761     148.5981        13     1.544     0.820 -26.82   0
        86    889.7627    828.8332 307.5419651  +6.3595400      973.615      2056.47     2275.544     87.71579     175.2918     350.7933      2.463     6.83     1100.185      61.8761     140.6378        15     1.511     0.917 -23.85   0
        87    113.1794    828.7574 307.8644629  +6.3337043     812.6862     1552.142      1811.11     87.43599     175.4316     350.8631      1.985     4.11     1113.906      61.8761     122.7025         6     0.751     0.643  68.85   0
        88    525.2216    824.2320 307.6935112  +6.3493221     11480.35     25834.59     30596.87     87.43599     175.3617     350.8282      2.406     6.55     1109.316      61.8761     1245.833        74     2.404     1.359 -28.02   0
        89    938.7749    822.3766 307.5218304  +6.3638316     2570.236     5412.359     6243.926     87.43599     175.4316     351.0028      2.190     6.84     1098.503      61.8761     319.0038        31     2.082     0.951 -28.98   0
        90    317.9619    813.1328 307.7799606  +6.3469953     1773.884     4196.115     4435.162     87.85535     175.5014     351.1424      2.431     7.66      1113.91      61.8761     230.8793        33     2.165     1.081 -25.72   0
        91     34.6258    815.1464 307.8975495  +6.3366959     776.8087     1581.801     2208.928       87.576      175.641      350.933      2.202     3.69      1112.97      61.8761     112.8428         6     0.873     0.535 -45.49   2
        92     37.7338    814.2277 307.8962905  +6.3371791     619.4307     1217.296     1843.078       87.576     175.5014      350.933      2.269     3.47     1112.977      61.8761     95.55518         5     1.079     0.323 -21.39   3
        93     17.5707    811.3555 307.9047618  +6.3376902      1324.09     2739.514     3220.458       87.576      175.641     350.8981      2.303     6.00     1112.872      61.8761     227.0229        21     1.838     1.072 -20.87   0
        94    783.3791    808.7245 307.5868310  +6.3643104     34666.87     74570.32     86350.56       87.576     175.3617     350.9679      2.300     6.58     1103.483      61.8761     4198.585        87     2.377     1.275 -26.85   0
        95    240.2689    785.3145 307.8131774  +6.3558863     774215.2      2287201      2963136     88.13382     175.8501     351.0726      2.900    11.04     1114.284      61.8761     63120.69       608     2.953     2.284 -37.01   4
        96    705.2935    799.8832 307.6195612  +6.3653659     52847.78     117091.1     138486.1     87.71579     175.9894     351.1773      2.393     6.57     1104.566      61.8761     5941.276       102     2.463     1.365 -27.08   3
        97    908.6703    803.9089 307.5349616  +6.3704577     5494.875     11586.65     13473.67     87.85535     175.7107     351.0377      2.262     6.82     1098.535      61.8761     682.0388        45     2.287     1.042 -29.16   0
        98    350.3051    800.8295 307.7669507  +6.3531538     11653.83     26936.38     32134.58     88.13381     175.2918      350.933      2.498     6.36      1112.31      61.8761     1265.301        74     2.394     1.438 -27.34   0
        99    412.1885    798.6923 307.7413250  +6.3560999     12654.96     28628.79     34500.89     87.71579     175.2219     350.8282      2.449     6.43     1111.734      61.8761     1419.908        76     2.397     1.406 -26.02   0
       100    399.1089    801.1472 307.7466727  +6.3546503     833.8384     1646.784     2157.259     87.85535     175.3617     351.1773      2.699     5.41     1111.924      61.8761     112.4662        11     1.878     0.439 -26.47   1
       101    948.9156    797.5604 307.5184636  +6.3744136     1432.697     2948.804     3477.468     87.99469     175.5014     350.9679      2.300     7.19     1096.868      61.8761     206.3596        19     1.695     0.854 -31.83   0
       102    905.4734    795.3332 307.5365813  +6.3738922     4424.085     9391.098     11176.78     88.13382     175.7107     351.0028      2.290     7.03     1098.212      61.8761     601.7937        42     2.258     1.003 -27.22   0
       103    645.9719    794.5197 307.6443802  +6.3656078       3847.7      8539.19     9746.574     87.85535     175.3617     351.0028      2.406     6.83     1105.223      61.8761     448.1814        44     2.206     1.171 -26.98   0
       104    434.8410    792.2529 307.7321381  +6.3595136     1002.096     2426.909      2681.08     87.85535      175.641     351.0726      2.552     7.74     1110.522      61.8761     114.8165        20     1.925     0.871 -25.60   0
       105    873.1893    786.1755 307.5503010  +6.3766019     490.9667     707.6816     824.5476       87.576     175.3617      350.898      1.418     4.63     1098.586      61.8761     76.23621         5     1.326     0.458 -61.24   0
       106    598.4899    786.6337 307.6643685  +6.3672838     631.2376     1264.357     1216.619     88.13382     175.4316     351.0377      2.199     4.91       1105.7      61.8761      126.885         7     1.588     0.431 -20.75   0
       107    681.2346    784.5811 307.6300750  +6.3708837     1582.188     3364.653     3855.503     87.43599     175.3617     350.7933      2.301     8.65     1103.937      61.8761      200.886        27     2.296     0.909 -27.31   0
       108    711.4144    803.4548 307.6168973  +6.3640948     13156.87      28754.3     34979.47     87.29576     175.5014     350.7234      2.388     6.42     1104.627      61.8761     1487.276        66     2.443     1.240 -27.47   3
       109    149.5281    785.7466 307.8508445  +6.3526761     572.0493     1197.608     1539.537     87.85535     175.5014     350.9679      2.352     5.03     1113.322      61.8761        99.87         5     1.329     0.539 -46.62   0
       110    415.0422    781.3464 307.7407334  +6.3633563     30463.62     69609.73     84119.28     87.99469     175.5712     351.0377      2.483     6.57     1110.681      61.8761     3345.353        97     2.473     1.463 -27.40   0
       111    532.8638    780.3354 307.6918379  +6.3676995     4077.111     9248.078     10546.15     87.99469     175.5712     351.0726      2.413     6.73     1106.938      61.8761     458.6429        46     2.233     1.186 -26.60   0
       112    449.5527    779.1392 307.7264771  +6.3654180     2517.976     5866.874     7480.229     87.85535     175.5014     351.1075      2.485     7.48      1109.36      61.8761     313.0812        42     2.230     1.235 -25.16   0
       113    777.9407    776.9248 307.5901738  +6.3772586     7221.714     15490.83     17704.71     88.27272     175.5712     351.0028      2.325     6.52     1101.174      61.8761     827.0172        57     2.279     1.214 -27.71   0
       114    445.9713    772.5321 307.7281905  +6.3680263     1399.763      3010.14      3155.89     87.71579     175.5712     350.9679      2.264     7.21     1109.253      61.8761     191.3904        22     1.980     0.881 -15.91   0
       115      7.6101    773.5153 307.9101978  +6.3529786     714.8763     1482.067     1709.625       87.576     175.2219      347.142      2.015     4.50     1112.455      61.8761     117.5298         5     1.337     0.430 -28.60  16
       116    798.9780    771.2031 307.5816319  +6.3803197     939.1193     1422.643     1574.757       87.576     175.2219     350.7584      1.680     5.76      1100.39      61.8761     140.8547        12     1.270     0.736 -30.10   0
       117    136.9865    769.0150 307.8566267  +6.3591644     6166.538     15049.93     22076.17     87.71579     175.2219     350.9679      3.312     8.78     1112.848      61.8761     766.9784       102     3.844     1.587  -2.64   2
       118    127.8222    766.7833 307.8605090  +6.3597794      1669.16     4430.996     6173.014       87.576     175.3617     350.9679      2.951     9.02     1112.708      61.8761     230.0404        33     2.367     1.149 -34.08   3
       119    923.3071    765.4783 307.5301914  +6.3868098     4255.844     8903.927     10479.23     87.71579     175.7804     351.0726      2.223     6.53     1096.354      61.8761     501.1329        37     2.116     1.007 -28.47   0
       120    972.5882    765.2584 307.5097316  +6.3885349     1029.085     2057.222      2969.57     87.29576     175.5014     350.7234      2.552     6.41      1094.56      61.8761      183.576        16     1.894     0.609 -24.00   0
       121    678.6342    763.3088 307.6318810  +6.3795797     976.0751     1876.068     1867.576     88.13382     175.4316     351.0377      2.018     7.26     1102.494      61.8761     143.8864        15     1.861     0.793 -25.14   0
       122    565.5961    762.4176 307.6788566  +6.3761867     1495.961     3156.884      3821.43       87.576      175.082     350.8631      2.303     7.11     1105.171      61.8761     219.7296        24     1.919     0.964 -30.56   0
       123    124.1164    785.6781 307.8613995  +6.3518549     639.9874     1329.016     1450.995     88.13381     175.9198     351.1424      2.042     3.42     1112.984      61.8761     103.2496         5     0.786     0.430 -16.10   0
       124    414.7538    760.2810 307.7415740  +6.3720436     564.8933     1543.926     1722.906      87.9947     175.5712     351.0377      2.671     5.53     1109.475      61.8761     75.48682         5     1.067     0.807   1.60   2
       125    127.4580    760.2792 307.8608834  +6.3624523     1060.816     2398.084     3260.757      87.9947     175.5014     351.0028      2.870     7.52     1112.577      61.8761     140.1903        18     1.987     0.796 -34.06   0
       126    977.2170    757.0263 307.5080893  +6.3920871     1298.044     2682.784     3186.172       87.576     175.2918      350.933      2.135     8.49     1094.163      61.8761      169.834        23     1.911     1.053 -20.72   0
       127    946.7298    757.1343 307.5207476  +6.3910316     2052.398     4030.939     4366.692     87.99469      175.641     351.0377      2.106     7.41     1095.153      61.8761     270.6155        28     2.204     0.830 -28.37   0
       128    917.6664    757.5107 307.5328054  +6.3899122     1946.712      3980.51     4459.367     88.13382     175.7804     351.0028      2.111     7.77     1096.179      61.8761     247.6112        24     1.978     0.853 -33.09   0
       129    243.2420    751.6359 307.8130971  +6.3698896     1128.503     2658.952     3588.176     87.71579     175.5712     350.8631      2.891     7.67     1113.429      61.8761     129.0448        20     1.750     0.970 -32.92   0
       130    670.5079    756.5961 307.6354850  +6.3820808     793.2679     1905.039     2387.673       87.576     175.2219     350.7933      2.380     5.76     1102.389      61.8761     120.2732        10     1.522     0.614  -7.83   0
       131    908.1553    746.7892 307.5371207  +6.3940232     758.4586     1281.563     1491.723     87.43599     175.4316     350.7234      1.946     4.89      1096.04      61.8761     121.5007         7     1.024     0.662 -65.82   0
       132    962.0954    744.9238 307.5147816  +6.3965824     1570.765     3304.763     4177.208       87.576     175.7107     351.1075      2.293     7.39     1094.204      61.8761      204.326        24     2.062     0.811 -29.81   0
       133   1003.5020    738.1926 307.4978134  +6.4007341     1085.147     2050.937     2367.797     87.71579      175.152     350.8282      2.032     7.05     1092.898      61.8761     144.9104        18     2.044     0.681 -29.18   0
       134    803.2293    737.0702 307.5810299  +6.3945530     846.2474     1239.615     1485.278     87.85535     175.5712     350.9679      2.060     6.35     1097.434      61.8761     107.9232        10     1.205     0.940 -46.53   0
       135    891.4542    734.0427 307.5444912  +6.3987317     1030.572     2322.276     2862.717     87.99469     175.5712     351.0377      2.348     5.87      1096.13      61.8761     137.6223        13     1.869     0.518 -30.01   0
       136    848.4855    725.7844 307.5626186  +6.4007151     967.1262     2095.558     2047.753       87.576     175.2918      350.933      2.245     7.70     1096.719      61.8761     134.1521        21     2.084     0.796 -28.24   0
       137     47.1253    724.7532 307.8954633  +6.3744319      1407.36     3277.312     3965.377     87.85535      175.641     351.0377      2.511     8.25     1111.529      61.8761     153.5686        29     2.022     1.141 -25.86   0
       138    660.0813    712.8393 307.6413091  +6.3997994     3561.788     8137.381     9528.591     87.99469      175.641     350.9679      2.399     6.91     1099.931      61.8761     406.8242        49     2.353     1.220 -22.76   0
       139    606.9527    712.2878 307.6633934  +6.3982596     966.5362     2155.503     2893.685     87.99469     175.4316     351.1075      2.616     7.21     1101.382      61.8761     110.1418        16     1.569     0.928 -26.06   0
       140    123.0123    708.8148 307.8644957  +6.3835503     2127.117     5192.793     6452.092     87.85535     175.2219     350.9679      2.595     7.18     1110.963      61.8761     253.9188        41     2.240     1.256 -29.13   0
       141    995.2219    708.7987 307.5022526  +6.4125954     1449.723     2376.484     2587.287       87.576     175.2219     350.7234      1.649     5.95     1092.336      61.8761     202.4728        13     1.385     0.768 -54.43   2
       142    998.3381    707.3489 307.5010076  +6.4132973     1242.674     2146.828     2236.068      87.9947     175.5014     351.0377      1.807     3.62      1092.24      61.8761     193.7625        10     1.005     0.805 -38.88   3
       143    633.9264    708.1016 307.6523336  +6.4008854     1096.084     2583.432      3461.76       87.576     175.7107     351.0028      2.694     6.92     1100.351      61.8761     146.1564        19     1.627     1.075 -11.79   0
       144    776.9807    704.8741 307.5930294  +6.4069736     11947.22      26802.1     31967.28       87.576     175.5014     350.9679      2.409     6.48     1096.557      61.8761     1341.779        71     2.376     1.331 -29.27   0
       145    906.7536    704.6310 307.5391387  +6.4113823      2540.78     5086.258     5956.646     87.43599     175.5712      350.933      2.177     6.11     1093.765      61.8761     312.9294        31     1.989     0.970 -32.02   0
       146    476.3532    705.5480 307.7178640  +6.3966933     734.1177     1571.746      1104.39     88.13382     175.5014     351.0726      2.209     3.70     1105.806      61.8761     107.3757         5     0.926     0.486  -7.67   0
       147    250.4778    698.7794 307.8119039  +6.3919529      3300.95     7583.618     8817.329       87.576     175.2918     351.0028      2.467     6.39     1109.771      61.8761     411.1288        46     2.236     1.264 -33.44   0
       148    657.5687    697.6705 307.6428705  +6.4059784     4129.929     9246.996     10787.17     87.85535     175.5712     351.0028      2.429     6.48     1099.044      61.8761     448.7616        49     2.200     1.270 -31.61   0
       149    917.2159    690.2041 307.5352846  +6.4176857     792.6161     1550.323     1795.247       87.576      175.152     350.8631      1.995     5.71     1092.649      61.8761     126.6582        10     1.762     0.522 -33.17   0
       150    729.1240    686.2222 307.6135421  +6.4130840     2152.135     5150.041     6397.847       87.576     175.3617     350.9679      2.533     7.00     1096.744      61.8761     240.2568        37     2.010     1.250 -31.84   0
       151    639.8607    698.9072 307.6501829  +6.4048788     631.7256     1361.734      2087.12     87.85535     175.5712     351.1424      2.983     5.56     1099.605      61.8761     105.4235         8     1.356     0.642 -47.04   0
       152    995.5779    682.6688 307.5029939  +6.4233953     5639.829     11918.88      13648.8       87.576     175.5014     351.0028      2.288     7.09     1091.624      61.8761     668.5659        53     2.288     1.169 -27.95   0
       153     14.6310    682.9758 307.9103927  +6.3905916     1116.405     2734.128     4454.451     87.43599     175.4316     350.8282      2.915     8.94     1110.215      61.8761     151.4824        21     2.171     1.029 -24.14   0
       154    933.9243    683.0548 307.5285883  +6.4211916     1572.447     3191.643     3651.372     87.85535     175.5712     351.0377      2.173     7.23      1091.99      61.8761     195.8594        25     1.943     0.861 -24.09   0
       155     72.9742    677.7505 307.8863426  +6.3947013     14124.44     33450.77     41185.23       87.576      175.641      350.933      2.558     6.40     1110.058      61.8761     1621.712        84     2.490     1.498 -28.59   0
       156    534.4820    677.8905 307.6946676  +6.4100482     1113.695     2468.889     2899.014     87.71579     175.8501     351.1424      2.395     6.77     1102.417      61.8761     138.0704        14     1.340     0.961 -29.22   2
       157    503.1413    675.5641 307.7077638  +6.4099648     723.3374     1611.645     1084.299     87.99469     175.5712     351.0377      2.242     5.84     1103.446      61.8761     121.5023         8     1.444     0.666 -66.57   0
       158    923.8553    674.7833 307.5330521  +6.4242726     724.1116      1275.19     850.4699     87.43599     175.5014     350.7584      1.932     6.15     1091.709      61.8761     125.2961        10     1.605     0.662 -17.42   0
       159    718.8538    669.7342 307.6183703  +6.4195499     1919.669     4270.215     4772.775     87.99469     175.5014     351.0028      2.413     7.43     1096.355      61.8761     235.9691        29     1.988     1.017 -28.20   0
       160    740.9847    668.0956 307.6092343  +6.4209619     2342.005     5436.044     6371.684     87.71579     175.2918     350.8282      2.475     7.75     1095.937      61.8761     264.7202        35     2.168     1.086 -26.72   0
       161    572.4235    666.1449 307.6793108  +6.4161607     1791.853     4229.336     5195.373       87.576     175.5712     350.8282      2.482     8.20      1100.15      61.8761     193.7269        32     2.081     1.167 -34.07   0
       162   1013.7982    664.1457 307.4960564  +6.4316468     3066.742     7026.185     7040.099     87.29575     175.3617     350.6186      2.303     8.34     1090.325      61.8761     443.0087        36     2.174     0.992 -30.40  16
       163    979.1290    663.0637 307.5104932  +6.4309443     5102.796     11048.82     12158.31     87.99469     175.5712     351.0726      2.302     7.39     1090.552      61.8761     621.3503        45     2.233     1.090 -28.99   0
       164    315.7669    665.8787 307.7859161  +6.4077155     726.2224     1485.217     2040.295     87.85535     175.5712     351.0377      2.445     4.87      1106.92      61.8761     98.68787         7     0.975     0.689  76.10   0
       165    232.7581    665.5191 307.8204033  +6.4050924      979.913     2211.824     3027.373      87.9947     175.5712     351.0028      2.798     6.54     1107.579      61.8761     137.2966        12     1.328     0.903  11.48   0
       166    698.3516    662.5898 307.6271295  +6.4218179     683.4929     1147.531     1949.929     87.43599     175.3617     350.6885      3.539     5.28      1096.24      61.8761     108.3402         6     1.148     0.686  -9.74   0
       167    424.0479    657.7734 307.7412220  +6.4146738     1386.928     3405.855     4343.217       87.576      175.641     350.9679      2.902     9.92     1104.011      61.8761     157.9789        32     2.444     1.124 -33.90   0
       168    137.7578    656.6724 307.8601614  +6.4055699     13131.92     30715.08     37843.76     87.85535     175.5712     351.0726      2.564     6.39     1108.616      61.8761     1505.369        80     2.440     1.488 -28.53   0
       169    805.2315    657.5447 307.5829096  +6.4274524     661.2339     1248.282     1323.691     87.85535      175.641     351.0028      1.770     3.75     1094.198      61.8761     102.3337         5     1.517     0.266 -40.13   0
       170    973.8771    646.0395 307.5132541  +6.4377988     4375.162     9926.559     12309.33     87.85535     175.5712     351.0726      2.516     6.46     1089.222      61.8761     493.1057        50     2.179     1.345 -22.10   0
       171     16.8729    646.7527 307.9107062  +6.4056209     609.7939     1297.875     2182.142     87.99469      175.641     351.0377      2.518     3.49     1109.333      61.8761     90.85059         5     1.030     0.342 -44.13   0
       172    567.6535    641.3730 307.6821385  +6.4262291     26118.72     61275.55     74898.28     87.71579     175.7107     350.9679      2.551     6.66     1098.916      61.8761     2783.419        97     2.493     1.511 -26.87   0
       173    931.8270    643.3720 307.5308107  +6.4375056     501.1517     748.4885     568.8471     87.43599     175.3617     350.8631      1.757     5.58     1089.979      61.8761     77.97876         6     1.391     0.631 -45.96   0
       174   1023.7212    642.7717 307.4926620  +6.4408002     747.2192     898.5809     1134.766     75.72179     138.6025     263.1008      1.187     3.78     1087.788      61.8761     167.9957         6     1.041     0.394 -77.16  24
       175    210.4167    643.5952 307.8304337  +6.4133972     515.3647     975.5281     2061.552       87.576     175.2219     350.8631      3.025     4.20     1107.302      61.8761     75.41187         5     1.032     0.488  -3.20   0
       176    174.9975    638.2169 307.8453284  +6.4144339     1409.596     3530.072     4718.821       87.576      175.082     350.8282      2.738     9.10     1107.587      61.8761     158.7914        32     1.992     1.315 -30.17   0
       177     66.8577    633.4355 307.8904046  +6.4127915     726.2183     1302.569     1781.696     87.85535     175.5712     351.0726      2.492     5.51     1108.411      61.8761     91.84387         7     1.054     0.812 -25.75   0
       178    464.9120    625.1938 307.7253645  +6.4294865     33101.36     79333.42     98444.02     87.43599     175.2219     350.7584      2.594     6.56     1102.247      61.8761     3535.202       108     2.543     1.587 -26.39   0
       179      7.9193    627.9232 307.9150716  +6.4130946     1136.691     2015.531      2786.97     88.27272     175.8501     349.0777      2.158     4.78     1109.042      61.8761     166.2784        12     1.109     0.847  -6.01   2
       180    138.4205    620.1550 307.8611393  +6.4206679     752.8787     1520.108     1281.284       87.576     175.4316     350.8282      2.537     4.43     1107.313      61.8761     105.1223         6     0.953     0.612 -61.79   0
       181    310.6653    614.0164 307.7898117  +6.4289565       943.76     2418.854      3222.18     87.43599     175.4316      350.933      2.756     6.43     1103.864      61.8761     167.6132        16     1.712     0.987 -10.72   0
       182    736.9173    608.5426 307.6129556  +6.4454138     2990.212     6761.306       7459.2     87.99469     175.5712     351.1075      2.473     6.71     1092.365      61.8761     326.8236        43     2.309     1.208 -34.02   0
       183    790.5182    603.8484 307.5908519  +6.4491328     8046.457     17918.31     21249.95     87.99469     175.5712     351.0726      2.410     6.50     1091.475      61.8761     837.8074        61     2.307     1.318 -28.11   0
       184   1007.3167    604.6653 307.5007726  +6.4559893     787.1261     1722.127     2410.126     88.13382     175.8501     351.1075      2.529     6.67     1084.456      61.8761     127.2589        10     1.840     0.677 -10.09   0
       185    614.0834    602.0564 307.6641972  +6.4440066     1524.713     3682.622     4174.688     87.99469     175.5712     351.1424      2.455     7.64     1095.711      61.8761      177.267        32     1.953     1.263 -29.74   0
       186    534.1797    602.6891 307.6973640  +6.4410853     715.7336     1662.893     2324.398     87.85535     175.2918     350.8631      2.019     4.26     1097.818      61.8761     103.9479         6     1.466     0.353  45.34   0
       187    930.8626    598.1084 307.5327528  +6.4561613     792.4647     1389.899     1543.778     87.99469     175.7107     351.1424      2.119     6.11     1087.641      61.8761     106.5491        12     1.280     0.820 -30.55   0
       188    228.0095    596.2712 307.8247498  +6.4335223     588.8496     1606.018     1537.814     87.43599      175.152     350.8631      2.418     4.83     1105.118      61.8761     105.1675         5     1.501     0.441 -23.93   0
       189    866.3152    587.2224 307.5599349  +6.4585139     1685.908     3793.626     4310.857     87.85535     175.2219      350.933      2.397     8.57     1090.087      61.8761     185.0516        28     2.044     1.003 -31.20   0
       190    825.0926    584.5293 307.5771495  +6.4582572     1420.601     3204.008     3453.235     87.99469     175.7107     351.0726      2.297     8.61     1090.416      61.8761      143.869        29     2.041     1.014 -33.04   0
       191    253.3611    579.6897 307.8147888  +6.4412147     4124.684     10028.81      12538.4      87.9947     175.5014     351.0726      2.683     6.93     1103.192      61.8761     482.6702        60     2.385     1.490 -26.22   0
       192    805.7531    575.8406 307.5854789  +6.4612021     90274.74     204329.5     245529.8     87.85535     175.5712     350.8282      2.475     6.53     1090.258      61.8761     9663.086       167     2.780     1.512 -27.70   0
       193    187.5821    574.2202 307.8422971  +6.4412751     30399.16     73685.27     93670.12     87.71579     175.4316      350.933      2.666     6.63     1104.687      61.8761     3578.355       120     2.644     1.642 -30.20   0
       194    111.5443    570.5797 307.8740034  +6.4402358     3168.475      7916.54     9880.343     87.43599     175.5712     350.8282      2.696     7.13     1105.472      61.8761     395.2725        55     2.383     1.427 -28.91   0
       195    976.5269    567.4321 307.5148294  +6.4703408     919.5894      2216.91     2924.773     87.85535     175.5712     351.0377      2.764     7.82     1083.935      61.8761     103.9712        16     1.750     0.978  -9.34   0
       196    842.2546    563.2408 307.5707465  +6.4676162     2597.747     5941.243     7190.084     87.85535     175.5712     351.0377      2.414     6.54     1089.285      61.8761     302.4941        40     2.151     1.175 -32.75   0
       197    360.9289    561.3568 307.7707388  +6.4523742     8589.096     21214.87     26566.17     87.85535     175.5712     351.0726      2.657     6.71     1099.278      61.8761      921.813        77     2.491     1.553 -27.96   0
       198    162.8486    560.0984 307.8530545  +6.4462784     1016.182     2702.459     3204.572     87.99469     175.5014      351.247      2.638     8.02     1104.898      61.8761     120.7396        17     1.609     1.118 -29.13   2
       199    796.2543    556.4517 307.5900857  +6.4688916     3274.955     7356.505     8363.125     88.13382     175.5014     351.0726      2.328     6.64     1089.669      61.8761      354.024        41     2.203     1.144 -28.89   0
       200    527.1424    556.2504 307.7018748  +6.4600233     3527.502     8171.869     9532.771     87.99469     175.5712     351.0377      2.530     6.83     1095.463      61.8761     352.5721        52     2.250     1.403 -25.54   0
       201    101.1962    557.4009 307.8787538  +6.4453304     567.1217     1266.677     1042.663     87.29576      175.082     350.7584      1.922     4.91     1104.954      61.8761      99.7793         5     1.429     0.477   4.73   0
       202    384.3289    552.2491 307.7613313  +6.4569149     620.3677     1218.486     1476.783      87.9947     175.5014     351.0726      1.975     3.35     1097.828      61.8761     112.0522         5     1.171     0.278 -34.29   0
       203    174.4424    549.5293 307.8486017  +6.4510293     3443.707     8240.186      10408.5     87.85535     175.5712     351.1075      2.669     7.26     1103.991      61.8761     411.9856        57     2.474     1.429 -23.55   0
       204     45.9426    548.2153 307.9020182  +6.4472737     2598.232     6137.765     7712.107     87.29575     175.5014     350.7234      2.525     6.92     1106.243      61.8761      319.088        45     2.304     1.308 -33.63   0
       205    269.5845    545.8485 307.8092106  +6.4557277     43991.31       107443     136917.5     87.43599     175.5712     350.7584      2.679     6.67      1100.61      61.8761     4967.679       126     2.618     1.688 -29.28   0
       206    812.7736    548.7698 307.5834858  +6.4726118     675.0405     1675.272     1885.721     87.43599     175.3617     350.8631      2.695     6.96     1089.132      61.8761     104.3912         9     2.065     0.657 -44.25   0
       207    968.5978    539.5579 307.5190720  +6.4815862     1233.096     2137.029     2022.434     87.29576     175.2219     350.7234      1.800     5.98     1082.891      61.8761     161.4175        15     1.546     0.739 -38.10   0
       208    792.5041    538.2252 307.5922651  +6.4762920     9063.058     20761.24     24618.45     88.13382     175.2918     350.8981      2.481     6.82     1088.918      61.8761     921.9083        68     2.454     1.306 -27.53   0
       209    496.2426    536.6672 307.7153794  +6.4670788     21866.02     53702.09     69071.85      87.9947     175.5014     351.1075      2.721     6.72     1094.874      61.8761     2254.601       108     2.635     1.683 -24.98   0
       210    571.9210    549.3801 307.6835100  +6.4643508     1430.269     3350.857     4579.293       87.576     175.2219     351.0028      2.809     7.66     1093.154      61.8761     158.6256        28     2.000     1.051 -29.79   0
       211    209.3422    533.0157 307.8346726  +6.4590132      989.972     2433.574     2959.081     87.29575     175.5014     350.7234      2.496     7.66     1101.389      61.8761     131.0032        18     1.840     0.892 -24.61   0
       212    655.7715    531.4893 307.6492916  +6.4745277     1469.239     3638.194     4739.774     88.13382     175.2918      350.933      3.232     8.43     1089.747      61.8761     169.2733        32     2.072     1.204 -27.03   0
       213    667.0974    531.1555 307.6445984  +6.4750422     753.3726     1512.656     2303.155     87.99469     175.5014      351.247      1.858     4.70     1089.553      61.8761      94.0481         7     1.011     0.619 -75.00   0
       214    505.6500    525.0130 307.7118704  +6.4722037     1005.862     2459.399     2769.679     87.29575     175.5014     350.7234      2.373     9.67     1093.775      61.8761     115.9708        24     1.914     1.363 -25.05   0
       215    394.3779    527.1183 307.7580178  +6.4676253     921.6282     2051.217     2415.452     87.71579     175.2219     350.9679      2.415     7.08     1095.871      61.8761     106.2017        14     1.310     1.073 -40.43   0
       216    140.7048    524.2426 307.8634824  +6.4603408     13521.32      32320.8     40296.92      87.9947     175.5014     351.1773      2.640     6.44     1103.414      61.8761     1584.693        89     2.502     1.605 -29.40   0
       217    325.5154    525.5463 307.7866749  +6.4659767      1909.87     4628.089     5575.339      87.9947     175.5712     351.2122      2.504     8.26     1097.613      61.8761     212.5016        35     2.075     1.245 -23.08   0
       218    870.5378    523.3554 307.5603575  +6.4850223     816.3484     1558.149     2199.447      87.9947     175.5014     351.1424      2.229     5.20     1086.558      61.8761     116.4187         8     1.220     0.627  14.47   2
       219    106.0027    522.4369 307.8779580  +6.4599256     1289.834     3454.192     4427.722     87.01461     175.3617     350.8282      2.814     7.57     1103.969      61.8761     168.3739        30     2.199     1.203 -23.03   0
       220    966.0687    518.6152 307.5208356  +6.4901488     3067.759     6715.343     7714.548     87.43599     175.5014      350.933      2.265     6.92      1082.07      61.8761     380.2426        36     2.127     1.011 -27.09   0
       221    538.5286    512.6754 307.6986353  +6.4783926     668.3682     1323.971     1862.256     88.27272     175.7804     351.0377      2.677     5.82     1092.323      61.8761     105.4357         6     1.232     0.775 -56.88   0
       222      5.0703    508.6025 307.9203554  +6.4622590      13182.6     31794.34     39270.74     87.43599      175.152      321.946      2.600     6.48      1105.23      61.8761     1579.329        85     2.497     1.584 -33.18  24
       223    437.6281    505.3672 307.7407974  +6.4780475     21512.79     52410.79     65786.57     87.43599     175.2918     350.7933      2.653     6.65     1093.581      61.8761     2384.788       100     2.572     1.609 -27.72   0
       224    645.6143    504.9894 307.6544159  +6.4851303     6353.513     15285.64      18838.1     87.71579     175.2918      350.933      2.594     6.92     1089.136      61.8761     659.7339        67     2.428     1.428 -27.77   0
       225    285.4143    506.7318 307.8039763  +6.4724054     587.1837      1223.56     1005.796     87.43599     175.4316      350.933      1.861     5.00     1096.789      61.8761     84.94983         6     1.347     0.525  38.09   0
       226    202.8477    502.9798 307.8384004  +6.4711963     9655.269     24383.65     30747.25       87.576     175.5712     350.8282      2.724     6.59     1099.954      61.8761     1034.239        92     2.553     1.714 -23.66   0
       227    167.9753    504.8819 307.8528198  +6.4692454     851.4679     1736.361     1772.278     87.71579     175.2918     351.0028      1.995     5.06     1101.583      61.8761     134.0894         8     1.465     0.494 -33.86   0
       228    567.3243    502.0430 307.6870374  +6.4837411     1458.466     3711.478     4423.232     87.85535      175.641     351.0726      2.621     8.73     1090.999      61.8761     206.0529        35     2.297     1.208 -30.00   0
       229    978.7711    503.1183 307.5160866  +6.4969680     747.5535      1384.79      2159.38     87.85535     175.3617     350.9679      2.178     3.82     1080.943      61.8761     120.9552         6     1.181     0.354 -27.00   0
       230    908.2996    502.2018 307.5453921  +6.4950090     575.8792     1186.495     1135.349     87.43599     175.2918     350.7234      1.800     3.76     1083.546      61.8761      86.3208         5     1.223     0.331 -11.11   0
       231    941.1885    498.8259 307.5318449  +6.4974939      2936.28     6278.691     7357.294       87.576     175.3617     350.9679      2.323     7.46     1081.972      61.8761     316.0104        38     2.304     1.008 -28.08   0
       232    614.3374    497.3032 307.6676706  +6.4872629     3365.436     8048.803     9790.426     87.71579     175.7107     351.1075      2.590     6.88     1089.878      61.8761     374.3746        51     2.375     1.329 -26.56   0
       233    963.7389    491.1346 307.5227392  +6.5014172     1894.966     4407.676     4747.699     87.99469     175.5014     351.0726      2.352     7.74     1080.889      61.8761     258.8187        28     2.022     1.060 -24.92   0
       234    526.7750    488.6955 307.7043375  +6.4879012     3676.828     8808.981     11658.59     88.13382     175.2918      350.898      2.837     6.99      1090.81      61.8761      405.259        58     2.514     1.404 -28.73   0
       235    372.5918    488.9398 307.7683746  +6.4826605      1311.04     3446.143     4258.312     87.29575     175.3617     350.7584      2.621     7.50      1094.08      61.8761     200.1332        27     2.041     1.216 -31.76   0
       236    883.2459    484.0893 307.5564167  +6.5016555     1870.059     4112.276     5606.096     87.99469     175.4316     351.1773      2.519     8.14      1083.82      61.8761      241.495        31     2.177     0.937 -29.68   3
       237    889.1786    479.1852 307.5541193  +6.5038772     1257.449     2450.901     3189.149     87.71579     175.2918      350.933      2.205     5.74     1083.248      61.8761     181.9059        16     1.467     0.895  -5.39   3
       238    892.5040    477.5004 307.5527954  +6.5046831     761.4047     1031.966     1178.992      87.9947     176.1286     350.8631      1.471     3.42     1082.998      61.8761     109.6737         5     0.758     0.449  69.08   3
       239    930.4353    477.7951 307.5370282  +6.5058200     825.2697     1871.084     1755.676     87.01461     175.3617     350.7933      2.346     3.50     1081.277      61.8761     113.8269         5     0.776     0.455 -71.74   2
       240    714.1741    474.6328 307.6269729  +6.4999435     1588.529     3787.759     4064.791     87.43599     175.3617     350.8631      2.380     8.86     1086.575      61.8761     184.9083        29     1.929     1.182 -29.24   0
       241     75.7841    473.8390 307.8921784  +6.4789777     984.1049     2248.524     2501.869       87.576     175.3617     350.7933      2.693     8.22     1103.138      61.8761     152.2671        17     1.924     0.982 -54.61   0
       242    385.2666    473.1443 307.7636506  +6.4896044     1845.753     4450.095     5689.306     88.13381     175.4316     351.0028      2.650     9.19     1092.759      61.8761     218.3538        34     2.173     1.197 -23.84   0
       243    613.0645    469.5335 307.6691482  +6.4986854     5048.572     12295.77     15386.57     87.99469     175.5712     351.0726      2.657     7.07     1089.015      61.8761     582.9126        61     2.389     1.446 -31.69   0
       244    775.8828    465.8997 307.6016366  +6.5056000     8781.199     20960.16     26351.97     87.99469     176.1286     351.1424      2.588     7.04     1085.114      61.8761     943.0939        76     2.514     1.458 -31.80   0
       245    378.0954    463.6772 307.7669537  +6.4932737     866.0693     2185.079     3270.473     87.71579     175.7107     351.1075      3.192     7.92     1092.235      61.8761      94.9165        16     1.366     1.286  52.68   0
       246    960.2635    461.3312 307.5251978  +6.5136066     1306.044     2817.714     3167.893      87.9947      175.641     351.1075      2.450     8.49       1079.3      61.8761     153.4132        25     1.915     1.051 -42.21   0
       247    295.8557    466.4789 307.8010189  +6.4893723     1300.271     3280.374     3661.206     88.13381     175.5712     351.0726      2.641     8.84     1093.347      61.8761     136.4972        27     1.926     1.181 -36.47   0
       248    113.1745    458.1915 307.8771850  +6.4866885     2296.104     5672.521     6745.935       87.576     175.3617     350.8631      2.616     7.37     1101.536      61.8761     267.9318        42     2.115     1.379 -36.22   0
       249    750.9840    457.1254 307.6122793  +6.5083951     1179.953      3018.21     3724.396     87.43599     175.2918      350.898      2.525     8.31     1085.015      61.8761     171.2932        27     2.027     1.263 -23.78   0
       250   1014.8342    455.7166 307.5027191  +6.5177340     2680.825     5857.708      6620.63     87.99469     175.5712     351.0028      2.321     6.36     1076.964      61.8761     283.5234        36     2.003     1.138 -23.24  16
       251    271.1716    455.2316 307.8116579  +6.4931914     839.0317     2053.832     2445.428     87.43599     175.2918     350.7933      2.614     7.39     1093.831      61.8761     117.6909        14     1.745     0.876 -23.97   0
       252    349.2623    452.7318 307.7793056  +6.4968304     1443.542       3513.1      4555.26      87.9947     175.5014     351.0726      2.779     9.35      1091.99      61.8761     171.4553        32     2.244     1.278 -34.70   0
       253    704.4252    450.6339 307.6318419  +6.5095274     1035.506     2292.613     2938.018     87.29576     175.3617     350.8282      2.513     7.15     1085.333      61.8761     114.2294        16     1.485     0.965 -52.85   0
       254    546.0237    444.0105 307.6978697  +6.5069906     643.6171     1425.016     1940.468       87.576     175.3617      350.898      2.572     3.84     1087.809      61.8761     108.1874         5     1.029     0.410 -28.88   0
       255    467.9093    442.5428 307.7303689  +6.5049940     729.5446      1498.25      1665.11     87.85535     175.5014     351.1424      2.245     5.26     1088.436      61.8761      104.824         8     1.335     0.584 -49.34   0
       256    714.2714    437.7747 307.6281907  +6.5151638     7907.548     18859.52     23274.51       87.576     175.4316     350.9679      2.534     6.79     1084.445      61.8761     875.0052        69     2.462     1.405 -27.18   0
       257    830.2022    440.7642 307.5799288  +6.5177817     796.2254     1469.972     2077.286     87.01461     175.3617     350.8282      2.031     4.95     1082.725      61.8761     135.1289         9     1.210     0.774  18.65   0
       258    817.6563    440.0487 307.5851650  +6.5176605     991.2203      2263.93     2773.444     87.99469     175.5712     351.1424      2.526     5.88     1082.973      61.8761     137.6521        11     1.420     0.817 -22.80   2
       259    634.5903    433.9089 307.6614235  +6.5141095     1343.051     3206.159     4390.948     87.71579     175.2219     350.7584      2.732     8.91     1086.207      61.8761     145.0522        30     1.980     1.279 -16.54   0
       260    607.7017    428.9807 307.6727618  +6.5152492     7394.844     20752.62     29966.21     87.99469     175.4316     350.7584      3.147     7.18      1086.87      61.8761     808.4817       106     2.742     2.042   3.59   0
       261    939.4636    427.7416 307.5349826  +6.5267846     2289.069     4806.747     5226.143     88.13382     175.5014     351.0726      2.175     7.44     1078.169      61.8761     252.6449        31     2.026     1.018 -27.66   0
       262    378.7092    423.7343 307.7680667  +6.5097844     14378.94     35233.08     44650.66     87.85535     175.7804     351.0377      2.715     6.80     1089.287      61.8761     1611.594        94     2.574     1.635 -28.71   0
       263    124.6057    423.4986 307.8736279  +6.5013934     1265.721     2917.548     3512.514     87.71579      175.152     350.7584      2.370     7.68     1099.334      61.8761     132.3972        25     1.614     1.299 -19.20   0
       264    895.3438    423.1357 307.5534683  +6.5272223     867.4328     2030.188     2582.309     88.13381     175.5014     351.0377      2.572     6.86     1079.569      61.8761     128.0846        13     1.886     0.701  -6.29   0
       265    908.2598    417.8595 307.5482823  +6.5298293     2842.361     6452.722     7436.115     87.99469     175.5712     351.0726      2.376     6.87     1078.813      61.8761     343.4612        42     2.211     1.179 -26.77   0
       266     57.8633    419.5450 307.9014874  +6.5007924     841.0566       1888.3     2858.377     88.13381     175.5014     351.0028      3.128     8.65     1100.873      61.8761     106.4884        13     1.509     1.386 -18.90   0
       267    236.2713    414.3738 307.8275562  +6.5088934     6946.537     16898.76     21497.44       87.576     175.4316     350.9679      2.673     6.58     1093.461      61.8761      798.288        71     2.460     1.554 -28.66   0
       268    729.9474    407.9987 307.6226949  +6.5279782      526.874     1071.474     1166.161     87.29575     175.2219     350.5487      2.048     4.80     1082.495      61.8761     76.63135         5     1.472     0.444 -18.70   0
       269    699.0007    407.4434 307.6355700  +6.5271785     610.6442     1096.902     1249.027     87.29575     175.2219     350.6186      1.592     4.15     1082.866      61.8761     90.92041         6     1.273     0.385 -72.48   0
       270    958.8715    406.4175 307.5276462  +6.5362322     729.9522     1658.606     1831.485     87.43599     175.5014     350.9679      2.489     7.74     1075.842      61.8761      101.627        12     1.549     1.082 -33.93   0
       271    136.6565    402.9358 307.8693281  +6.5102856     2602.696     6317.422     7591.095     88.13381     175.5014     351.0377      2.613     7.15     1097.966      61.8761     316.0769        48     2.335     1.316 -32.80   0
       272    158.2512    399.1210 307.8604887  +6.5125826     1379.793     3177.163     4180.946     87.99469      175.641     351.0377      2.591     9.97     1096.921      61.8761      154.245        27     2.036     1.362 -35.07   0
       273    382.0678    393.3750 307.7677114  +6.5224302     1052.202     2499.715     3329.795       87.576     175.4316      350.933      2.642     8.10     1086.851      61.8761     121.2837        20     1.865     0.984 -50.09   0
       274    969.5841    393.2497 307.5236442  +6.5420240     587.5587     1360.854     1775.147     87.43599      175.641     350.6885      2.344     4.45     1074.278      61.8761     75.90405         5     1.188     0.474 -82.82   0
       275    435.7138    387.1647 307.7456386  +6.5267834     3695.339     8933.376     11483.96     87.99469     175.4316     351.0377      2.697     6.77     1085.021      61.8761     390.6949        59     2.335     1.537 -29.10   0
       276     32.6264    388.0265 307.9130534  +6.5129595     1693.349     4422.708     5548.259     87.43599     175.3617     350.8981      2.688     8.52      1100.67      61.8761      182.585        35     2.221     1.196 -31.29   0
       277    776.3718    384.4289 307.6042131  +6.5392520     6903.989     16155.69     21164.82     87.43599     175.2918     350.7584      2.771     6.62     1080.194      61.8761     720.5466        72     2.638     1.418 -19.01   2
       278   1019.9884    379.5291 307.5031711  +6.5493597     2333.534     5109.074     5726.529     87.43599     175.2219     321.5272      2.265     6.81     1069.761      61.8761     273.6105        29     2.066     0.983 -32.08  24
       279    483.9758    370.7616 307.7261509  +6.5351643     1637.788     3981.949     4433.483       87.576     175.3617     350.8282      2.585     7.12     1082.175      61.8761     195.0808        32     1.977     1.200 -37.05   0
       280    456.0616    371.6027 307.7377184  +6.5338865     1066.044     3125.733     4037.236     87.29575     175.3617     350.7234      2.901     9.05     1083.133      61.8761     412.2604        26     2.275     1.005 -37.24   0
       281    841.7392    367.2635 307.5776423  +6.5485102     18500.32     43300.15     52445.82      87.9947     175.5712     351.0726      2.528     6.56     1077.821      61.8761     1829.179        88     2.481     1.481 -30.23   0
       282    613.2488    359.7602 307.6728229  +6.5440118     1381.031     3291.058      4377.08     87.85535     175.5712      350.933      2.610     7.55     1080.924      61.8761     209.0271        28     1.899     1.256 -25.13   0
       283    698.2518    353.2838 307.6377305  +6.5495136     41515.14      99122.1     122487.2      87.9947     175.5014     351.1424      2.601     6.78     1079.568      61.8761     4358.349       114     2.556     1.582 -27.55   0
       284    856.0875    354.3010 307.5721232  +6.5543383     726.6378     1357.831     696.0796     87.99469      176.059     351.0726      1.736     2.84     1076.953      61.8761     137.8733         5     1.068     0.591  81.38   0
       285    560.7018    350.1901 307.6949801  +6.5462133     1454.669     3554.886     4336.361     87.71579      175.152     350.8282      2.621     8.91     1080.152      61.8761     181.4862        31     2.110     1.142 -29.20   0
       286     98.0363    349.0159 307.8872225  +6.5312537     3189.488     7503.688      9363.57       87.576     175.3617     350.7933      2.552     6.60       1097.8      61.8761     364.8795        50     2.243     1.358 -29.50   0
       287    766.2817    348.8502 307.6096190  +6.5536056     400.1501     884.0212     1468.441     87.99469      175.641     351.0726      1.791     4.52     1078.153      61.8761     91.41345         5     1.660     0.350  44.57   0
       288    544.0018    346.5007 307.7020441  +6.5471803     3643.114     8608.929      10611.3     87.43599     175.2918     350.7234      2.554     6.89     1079.898      61.8761     422.4824        53     2.377     1.336 -26.09   0
       289    272.8597    344.0684 307.8147680  +6.5391406     1409.173     3356.958      4210.54     88.13381     175.5014     351.0377      2.589     7.95     1088.615      61.8761        176.6        27     2.317     1.106 -18.97   0
       290    406.9051    341.4811 307.7591706  +6.5446829     12963.98     31862.92     40595.01     87.71579     175.8501     351.1424      2.726     6.81     1082.699      61.8761     1477.026        90     2.561     1.648 -28.17   0
       291    514.9904    339.8054 307.7143255  +6.5489780     824.5365      1960.41     2195.723     87.43599     175.2918     350.8631      2.486     6.01     1079.402      61.8761     123.8202        10     1.344     0.755 -47.45   0
       292    495.8959    331.9381 307.7225273  +6.5515897     4266.402     10488.62     13958.14     87.71579      175.641     351.1075      2.922     7.22      1078.87      61.8761     485.6284        65     2.501     1.532 -29.01   0
       293    764.8805    330.6157 307.6108234  +6.5610873     1762.248     4176.988     5212.599       87.576     175.2918     350.8282      2.578     7.22     1077.005      61.8761     183.1869        34     2.003     1.201 -33.75   0
       294    157.7877    323.2955 307.8632841  +6.5438707     572.5322      782.593     981.1525     87.71579     175.2918     350.7933      1.227     4.91     1093.052      61.8761     90.08569         5     1.073     0.637 -65.47   0
       295    385.9219    315.9524 307.7687621  +6.5545224     3559.913     8848.855     11147.15     87.99469      175.641     350.9679      2.721     7.02     1082.355      61.8761     424.5596        56     2.382     1.440 -28.35   0
       296    241.5226    316.9620 307.8287159  +6.5492844     1083.333     2744.981     3649.325     87.85535      175.641     351.0377      3.046     8.63     1088.749      61.8761     144.0239        19     1.804     1.154   3.88   0
       297    753.7388    311.8506 307.6160928  +6.5684642      28488.1     67352.51     82463.65     87.99469     175.5014     351.0726      2.559     6.79     1076.049      61.8761     3138.571        99     2.503     1.517 -27.80   0
       298    425.0468    311.8233 307.7526495  +6.5575321       1086.7     2627.532      3326.28       87.576     175.5712      350.898      2.828     8.36     1080.555      61.8761     119.0258        18     1.776     1.099  -5.27   2
       299    988.1088    309.0471 307.5188155  +6.5774021     890.4237     2090.401     2457.388     87.99469     175.5014     351.1773      2.447     8.82     1068.492      61.8761     133.8832        16     2.249     0.966 -29.55   0
       300    929.3029    308.1686 307.5432775  +6.5758144     1494.783     3312.235      3772.29     88.13381     175.3617     351.1424      2.367     7.14     1071.282      61.8761     170.5145        29     2.011     1.106 -21.03   0
       301    412.0319    306.8562 307.7582265  +6.5591487     1129.138     2552.101     3388.913     87.85535     175.5712     351.0028      2.548     6.07     1080.954      61.8761     176.0236        17     1.532     0.945 -50.35   0
       302    832.8387    301.6411 307.5835779  +6.5753073     800.2715     1793.834     1635.054     87.71579      175.641      350.898      2.203     6.35     1074.021      61.8761     108.7059        10     1.324     1.037   9.73   0
       303    752.1220    296.4064 307.6172916  +6.5747867      3286.59     7651.028     9481.222       87.576      175.012     350.7933      2.633     7.02      1074.99      61.8761      340.717        49     2.304     1.316 -26.35   0
       304    188.2292    298.4104 307.8514921  +6.5551621     1259.065      2822.13     3585.712     87.43599     175.3617     350.8631      2.542     6.86     1090.428      61.8761     129.0934        22     1.636     1.102  -6.20   0
       305     83.5919    296.9236 307.8950123  +6.5522759     564.4097     1468.908     1828.128       87.576      175.012     350.7933      2.591     5.81     1098.171      61.8761     105.3055         6     1.664     0.570  -7.87   0
       306    769.6434    293.9048 307.6100975  +6.5764018     1313.486     3056.695     4238.799     87.99469     175.5014     351.1773      2.731     7.12     1074.459      61.8761     154.0747        18     1.485     1.030 -22.15   2
       307    356.6131    290.1403 307.7818226  +6.5642008     863.8591     2332.054       3503.9     87.29575     175.5014     350.6885      3.171     7.05     1082.859      61.8761     112.2703        12     1.817     0.766 -47.86   2
       308   1006.6211    285.2172 307.5119355  +6.5878543     3581.594     8001.456      8822.29     87.71579     175.3617      350.933      2.288     6.64     1067.052      61.8761     399.6119        41     2.184     1.078 -27.16   0
       309    484.8260    285.4532 307.7287170  +6.5704120      1085.18     2561.446     2962.985     87.71579     175.7107      350.933      2.554     7.38     1075.397      61.8761     128.1194        16     1.667     0.914 -29.42   2
       310    247.6482    280.9012 307.8274081  +6.5643764     2829.287     6783.263     8897.369     87.99469     175.5014      351.247      2.716     7.17     1087.266      61.8761     354.1532        49     2.419     1.302 -27.94   0
       311    381.6034    271.9818 307.7720625  +6.5725313     923.6708     2232.217     2284.896       87.576      175.082     350.8282      2.489     6.94     1080.632      61.8761      107.984        12     1.258     1.072   1.08   0
       312    151.7405    267.6787 307.8677057  +6.5666291     894.7718     2150.916      2601.07     88.13382     175.5712     350.9679      2.467     7.72     1091.941      61.8761     131.8802        13     1.721     0.968 -21.55   0
       313    561.1868    263.2251 307.6977525  +6.5821330     1206.347     2470.342     2555.844     87.71579     175.3617     350.9679      2.251     6.91     1073.304      61.8761     134.6708        16     1.210     1.107  -2.69   0
       314    904.9966    262.3645 307.5549372  +6.5939184     898.9024     1995.282     2301.814     87.01461     175.3617     350.7933      2.529     7.24       1069.6      61.8761     141.2708        12     1.816     0.808 -32.49   0
       315    724.5850    260.6470 307.6299532  +6.5886347     2586.692     6396.947     7652.721     87.29576     175.3617     350.7584      2.555     7.50     1073.605      61.8761     260.5443        44     2.376     1.207 -31.04   0
       316    665.9017    260.3333 307.6543454  +6.5868125     1157.514     2861.644     3637.676     87.99469     175.7107     351.0377      2.637     9.29     1073.031      61.8761     154.1224        26     1.938     1.242 -27.24   0
       317    920.6525    252.6554 307.5487633  +6.5984464     813.2545     1440.541     1841.285      87.9947     175.5712     351.0028      2.062     5.14     1068.325      61.8761     114.0583        10     1.290     0.578 -35.92   0
       318    224.0797    245.9892 307.8383972  +6.5780019     1060.294     2708.891     3093.426       87.576     175.2918     350.8631      2.429     8.28     1088.381      61.8761     110.7422        21     1.729     1.109 -11.63   0
       319    866.4602    244.8971 307.5715440  +6.5998508     920.5119     1940.652     2267.958     87.71579     175.5712     351.1424      2.545     6.81     1070.719      61.8761     116.9629        15     1.608     0.809 -31.07   0
       320    756.9254    244.2664 307.6170757  +6.5964726     911.3766     2124.027      2475.68     88.13381      175.641     351.0028      2.365     8.24     1072.966      61.8761      111.979        17     1.942     0.977 -43.29   0
       321    458.3147    235.5977 307.7414379  +6.5901108     11260.39     27900.29     36764.19     87.29576      175.152     350.7234      2.797     7.13     1073.988      61.8761     1292.578        99     2.907     1.599 -32.86   0
       322    784.0176    234.8916 307.6061392  +6.6012434     7148.461     17226.63     21248.71     87.71579     175.2918      350.898      2.587     6.87      1072.58      61.8761      752.525        67     2.431     1.446 -28.10   0
       323    145.5864    229.7460 307.8715648  +6.5820832     1016.753     2434.342     3578.619     87.29576     175.5014     350.7584      2.812     6.89     1091.957      61.8761     143.0428        14     1.673     0.796 -60.21   2
       324    920.1089    225.2013 307.5499248  +6.6097630     858.7731     1824.436     2047.635      87.1553      175.152     350.7933      2.435     7.04     1066.954      61.8761      112.582        13     1.766     0.787 -32.70   0
       325    582.0022    221.6082 307.6905273  +6.6000076     2345.607     5603.827     6259.979     87.29575     175.2219     350.7933      2.520     7.25      1071.88      61.8761     275.8473        45     2.240     1.358 -29.47   0
       326    544.7600    221.3658 307.7060090  +6.5988673     997.4282     2364.373      2718.12     87.71579     175.4316     350.8282      2.411     8.34     1071.569      61.8761     124.6338        21     1.745     1.114 -20.56   0
       327    889.0836    218.0128 307.5630607  +6.6117012     6323.522     14338.26      16551.9       87.576     175.4316     350.8631      2.419     6.67     1068.129      61.8761     725.1248        61     2.411     1.302 -26.87   0
       328    387.2625    220.6234 307.7714708  +6.5939231     818.9977     1856.951     2315.789       87.576     175.5712      350.933      2.586     5.73     1077.495      61.8761     116.8237         7     1.217     0.759 -45.39   0
       329    942.6893    218.6141 307.5407671  +6.6132318     1468.999     3436.933     3996.799     87.71579     175.3617     350.8981      2.580     8.21     1065.539      61.8761     184.1053        24     2.008     0.938 -34.97   0
       330    975.7036    215.7867 307.5271460  +6.6154941     5756.416     12640.75     14845.34     87.85535     175.2918     350.7933      2.340     6.72     1064.059      61.8761     674.6757        51     2.286     1.190 -27.66   0
       331    687.0623    215.7517 307.6470765  +6.6059219      1484.98     3773.337     4685.257     87.85535     175.5014     351.1075      2.632     8.27     1071.783      61.8761     178.2128        35     2.100     1.257 -34.68   0
       332     15.3730    214.8188 307.9261747  +6.5838874     13438.47      32757.4     41471.99       87.576     175.3617      350.933      2.652     6.57     1100.255      61.8761     1528.504        89     2.544     1.601 -28.49  16
       333    495.8206    211.1459 307.7266921  +6.6014559     913.8016     2232.837     2631.951     87.43599     175.5712     350.8282      2.840     8.59     1071.402      61.8761     138.5084        16     2.046     1.007 -19.54   0
       334    827.4825    207.5987 307.5890111  +6.6139553     989.9561     2277.847     2630.627      87.1553      175.082     350.7234      2.339     7.59     1070.096      61.8761     142.8801        16     2.090     0.771 -27.23   0
       335    739.2630    203.9716 307.6257898  +6.6125212     21071.55     50417.01     61720.95       87.576     175.5712     350.9679      2.548     6.62     1070.892      61.8761     2262.367       100     2.500     1.557 -28.11   0
       336    507.7103    207.0392 307.7218926  +6.6035476     1353.628      3013.79     3270.769     87.99469     175.5014     351.0726      2.362     8.31     1071.168      61.8761     163.3687        24     1.805     1.122 -33.62   0
       337    342.3298    203.4805 307.7907265  +6.5995008     3467.437     9339.367     12831.77     88.27272     175.9198     351.0726      2.965     7.66     1080.557      61.8761     354.5164        72     2.581     1.742 -43.38   0
       338    880.0396    206.3990 307.5672145  +6.6161958     1217.423     2628.451     2936.233     87.01461     175.2918     350.6885      2.311     8.43     1067.924      61.8761     140.8094        26     1.995     0.996 -20.23   0
       339    972.9590    202.6337 307.5287344  +6.6208334     1808.895     3842.158     4858.644     87.71579     175.5712     350.8631      2.377     8.14     1063.812      61.8761     223.7253        26     2.065     0.897 -26.93   0
       340    907.2116    201.0851 307.5561056  +6.6192915     4280.558     9943.016      11802.5       87.576     175.2918     350.8631      2.416     7.10     1066.212      61.8761     486.0138        49     2.248     1.217 -31.21   0
       341   1011.0785    201.1133 307.5129472  +6.6227250     920.4904      1988.58     1922.675     87.85535     175.9198     351.1773      2.144     6.81     1062.642      61.8761     145.1851        13     1.789     0.727 -30.34   0
       342    450.5625    200.2628 307.7458685  +6.6044402     2552.314     5866.117     6884.589      87.9947      175.641     351.0377      2.616     6.24     1072.589      61.8761     288.3278        45     2.071     1.426 -21.28   0
       343    108.1550    191.8606 307.8884171  +6.5964713     2553.918     6203.406     8505.145     87.85535     175.5014     351.1424      2.790     7.22     1093.196      61.8761     273.2435        45     2.215     1.370 -27.86   0
       344    278.4497    188.3394 307.8177861  +6.6036185     17082.46     41954.82     53779.45      87.9947     175.5014     351.1075      2.725     6.68     1086.774      61.8761     1940.086        96     2.609     1.636 -30.28   0
       345    253.7687    189.4819 307.8280012  +6.6023223     3268.933     8004.591     10096.42     87.85535     175.4316     351.0377      2.724     7.06     1087.441      61.8761      368.583        54     2.337     1.447 -27.76   0
       346    402.5081    183.7839 307.7663986  +6.6096406     25243.04     61982.25     79004.45     87.71579     175.3617     350.8631      2.715     6.83     1074.578      61.8761      2745.89       109     2.605     1.675 -29.71   0
       347    158.5936    185.1021 307.8676939  +6.6009488     1981.844     5101.394     6040.994     87.71579      175.152     350.7933      2.639     8.27     1090.127      61.8761     236.2233        41     2.293     1.253 -29.70   0
       348    420.9070    184.6901 307.7587231  +6.6098803     726.6932     1783.371     1739.411     87.99469     176.1286     351.0726      2.610     7.17     1073.206      61.8761     96.83337        10     1.737     0.830 -35.53   0
       349    307.2156    181.5379 307.8060678  +6.6073872     8890.487     22026.43     31184.92     87.43599     175.5014     350.8282      3.029     7.62     1084.511      61.8761     1015.867       105     3.222     1.714 -14.01   0
       350    741.7001    179.8874 307.6255995  +6.6225455     17547.25      41518.8     50997.47     87.99469     176.1286     351.0726      2.564     6.65     1069.179      61.8761     1994.558        91     2.506     1.508 -27.61   0
       351    788.6841    181.4744 307.6060232  +6.6234519     677.2661     1174.847     1518.381     88.13382     175.9198     351.1075      2.003     4.37     1068.891      61.8761     108.8164         5     0.984     0.552 -39.04   0
       352     58.5774    177.4177 307.9095109  +6.6007744     4780.333      11670.2     14339.88     87.71579     175.4316     350.9679      2.621     6.43     1096.872      61.8761      543.999        66     2.370     1.559 -29.21   0
       353     92.8195    175.2165 307.8953603  +6.6028294     851.2333     1987.236     2571.002     87.71579     175.2918      350.933      2.480     7.75     1093.589      61.8761     125.2465        12     2.039     0.824 -28.17   0
       354   1000.4457    174.1639 307.5182831  +6.6334988     737.4083     1612.706     2158.757     87.71579     175.5014      350.933      2.582     6.38     1062.733      61.8761     112.3538         9     1.299     0.879 -24.14   0
       355   1000.9780    160.5525 307.5185255  +6.6391360     1265.487     2697.585     3387.317       87.576     175.5712      350.898      2.316     7.62     1062.622      61.8761     168.4677        20     1.927     0.843 -33.95   0
       356    591.5278    156.8415 307.6887842  +6.6270636     1027.321     2672.475     4027.838     87.85535     175.5712     351.0726      3.602     9.52     1068.608      61.8761     143.4188        26     2.278     1.109 -23.32   0
       357    277.3048    154.6336 307.8194178  +6.6174953     15663.44     38048.54     48464.52     88.13382     175.4316     351.1424      2.706     6.67     1087.503      61.8761     1759.703        97     2.574     1.656 -28.89   0
       358     22.7204    153.2158 307.9252402  +6.6095649     2316.346     5692.904     6566.398       87.576     175.2918     350.8282      2.605     6.95     1100.262      61.8761     289.8945        42     2.163     1.314 -27.79   0
       359    708.9103    151.1715 307.6402045  +6.6333106     4395.323     10280.44     13117.61     88.13381     175.2918      350.933      2.594     6.99     1067.554      61.8761     464.8656        55     2.376     1.336 -27.88   0
       360    119.8309    148.3441 307.8850610  +6.6148270     2526.944     6218.479     7888.079     87.85535      175.641     351.0028      2.688     7.18     1091.395      61.8761     301.4739        52     2.334     1.525 -34.00   0
       361    390.4242    144.3501 307.7727703  +6.6255174     2028.227     4883.083      6310.18       87.576      175.641      350.933      2.722     8.19     1074.785      61.8761     206.5067        38     2.238     1.311 -34.05   0
       362    354.8841    143.4459 307.7875680  +6.6247046     1812.098     4088.906     4763.851     87.99469     175.5712     351.0726      2.475     7.22     1078.424      61.8761     201.8955        32     1.919     1.214 -26.68   0
       363    109.3320    143.6216 307.8895853  +6.6164253     948.2847     2162.421     2739.012       87.576     175.5014     350.9679      2.563     6.53     1091.902      61.8761     118.8708        12     1.187     1.008 -26.22   0
       364   1001.1755    137.2684 307.5192364  +6.6487555     876.4665     1819.777     1834.093       87.576     175.4316     350.9679      2.138     6.80     1060.429      61.8761      116.874        15     2.078     0.625 -33.12   0
       365    206.7083    132.4038 307.8495124  +6.6243134     2720.544     6566.633     8219.092       87.576     175.2219     350.7933      2.670     7.24     1088.465      61.8761     334.4512        49     2.400     1.336 -25.97   0
       366    668.4700    131.0061 307.6576970  +6.6402906     3293.691      7861.75     10209.95     87.43599      175.152     350.8631      2.742     7.09     1067.008      61.8761      382.885        50     2.426     1.309 -24.64   0
       367     89.4742    132.4464 307.8982197  +6.6203742     1089.339      2536.73     2821.179     87.85535      175.641     351.0377      2.467     5.72     1093.148      61.8761     165.7371        14     1.459     0.812 -47.30   0
       368    620.7142    128.3340 307.6776316  +6.6398045     4805.752     11497.41        14374     88.13382     175.7804     351.1075      2.683     7.10     1067.575      61.8761     542.0905        56     2.411     1.340 -27.68   3
       369    624.2237    119.6859 307.6764690  +6.6434916     27885.15     66600.44     83683.05      87.9947     175.3617      350.898      2.648     6.67     1067.267      61.8761      3051.08       115     2.624     1.644 -29.36   3
       370    818.0154    130.3430 307.5955804  +6.6455361     582.4554     1241.233     1396.342     87.29575     175.5014     350.7584      2.050     4.03     1064.396      61.8761     88.55981         6     1.417     0.328 -28.39   0
       371    347.3057    124.8259 307.7913550  +6.6321386     1914.076     4674.696     6499.316     88.13381     175.2918     350.8631      2.824     8.60     1079.448      61.8761     226.4626        30     1.953     1.331 -52.57   2
       372    529.8051    123.2603 307.7155791  +6.6388715     988.4467     2527.946     2758.387     87.43599     175.4316     350.7933      2.517     7.51     1067.946      61.8761     127.4644        17     1.806     0.873 -15.42   0
       373    303.4632    113.5258 307.8099590  +6.6353399     1903.242     4756.196     6421.156     88.27272     175.5712     351.0028      2.871     9.44     1085.429      61.8761     237.0752        46     2.651     1.316 -29.16   0
       374     11.4060    116.0041 307.9312206  +6.6245479       679.86     1874.139     1857.593     87.29575     175.2219      350.898      3.491     6.64     1100.208      61.8761     97.32239         8     1.585     0.780 -38.11   0
       375      2.8905     96.0298 307.9354455  +6.6325085     669595.2      1334292      1443919     88.13381      162.375     290.9625      2.095     8.41     1100.169      61.8761     62741.28       249     2.103     1.630 -70.66  28
       376    688.5502    103.6839 307.6502868  +6.6522386     1687.959     4048.277     4681.601      87.9947     175.5712     351.1424      2.539     7.68     1065.497      61.8761      180.965        35     2.132     1.212 -29.46   0
       377    675.0227    106.8460 307.6557997  +6.6504831     822.0497     1838.262     2044.989       87.576     175.5712      350.898      2.061     5.12      1065.84      61.8761      112.577         8     1.096     0.676  82.27   0
       378    430.4076     94.8606 307.7578523  +6.6472825     2073.212     5293.976     6140.932     87.29575     175.3617     350.7933      2.590     7.34     1071.246      61.8761     225.0844        43     2.127     1.393 -34.27   0
       379    902.9480     89.9279 307.5616666  +6.6650417     2262.821     4977.467     5382.586     87.85535     175.5712     351.0726      2.307     6.52     1059.767      61.8761     244.7524        33     2.007     1.079 -29.26   0
       380    884.2762     91.7132 307.5693646  +6.6636848     1139.349      2144.32     2300.417      87.9947     175.9198     351.1075      2.074     7.21     1060.038      61.8761     157.2191        15     1.489     0.983 -13.66   2
       381    886.6469     89.9752 307.5684388  +6.6644811     748.1744     1451.442     1472.399       87.576     175.5712     350.8981      1.491     3.70     1059.914      61.8761     117.1074         5     1.024     0.385  44.22   3
       382    595.2455     88.7517 307.6895677  +6.6552980     841.9901     2091.701     2342.966      87.9947     175.4316     351.0726      2.346     8.60      1066.66      61.8761     126.0316        17     2.085     0.990 -30.89   0
       383    394.3379     86.5944 307.7731230  +6.6494918     866.2723     2220.051     2918.877     87.29576     175.2918     350.8282      3.065     8.52       1074.4      61.8761     136.7305        18     2.383     0.850 -31.96   0
       384    141.8816     83.7965 307.8781164  +6.6422120     1663.456     4046.489     4810.046     87.43599      175.152     350.7234      2.626     8.58     1089.603      61.8761     187.6415        38     2.259     1.227 -40.63   0
       385     23.6168     81.3952 307.9273373  +6.6392444     6669.185      15822.5     20506.67       87.576     175.2219     350.8631      2.707     6.47     1097.354      61.8761     796.7332        70     2.408     1.524 -28.60   0
       386    770.4910     76.1847 307.6171767  +6.6663162      1798.46     4404.742     6235.833     87.71579     175.3617     350.8981      2.973     8.98     1062.426      61.8761     226.0807        36     2.248     1.208 -30.99   0
       387    825.2127     75.7898 307.5944511  +6.6682975     3465.024     8169.636     9770.688     87.71579     175.2918     350.9679      2.486     7.18      1060.76      61.8761     436.6166        46     2.288     1.176 -30.66   0
       388    415.0010     77.3429 307.7648541  +6.6540006     564.9157     1082.639     1736.479     87.29575     175.2219     350.6885      2.169     4.21     1072.269      61.8761     78.67004         5     0.821     0.617  89.87   0
       389     64.0955     73.0632 307.9108051  +6.6440397      1747.15     3949.174     5107.447     87.85535     175.7107     351.0726      2.600     5.89     1093.911      61.8761     218.7024        31     1.783     1.287 -49.25   0
       390      6.2448     69.4070 307.9349675  +6.6436115     1499.298     3302.155     4585.684     87.43599     175.3617     335.3662      2.811     6.23     1097.841      61.8761     208.7208        27     1.754     1.181 -38.82  16
       391    763.4749     64.4347 307.6204934  +6.6709339     1181.343     2349.092     3640.229     87.85535      175.641     351.0028      2.732     7.40      1062.13      61.8761     156.0249        17     1.498     1.152 -34.51   2
       392     91.6186     57.5468 307.8999026  +6.6513667     4823.854     11708.79     14492.34     87.43599      175.641     350.7933      2.642     6.54     1091.524      61.8761     571.6792        62     2.376     1.472 -28.21   0
       393    420.5319     57.4942 307.7632358  +6.6623794     1318.554     2918.387     3121.726     87.85535     175.7804     351.0726      2.414     8.50     1071.911      61.8761     154.8174        23     1.778     1.136 -28.35   0
       394    634.3547     49.3855 307.6746625  +6.6728521     9682.585     23467.39     28674.15     87.29576     175.3617     350.7933      2.613     6.97     1065.159      61.8761     1100.624        75     2.445     1.497 -27.63   0
       395    258.2155     52.2941 307.8308602  +6.6591068     720.7841     1757.717     3749.792     87.71579     175.3617     350.8631      2.648     4.93     1086.616      61.8761     100.4906         9     1.602     0.429 -30.24   0
       396    533.9686     45.4984 307.7165099  +6.6711137     2780.202     6513.923     7800.955     87.99469     175.3617     351.1773      2.650     6.84     1066.711      61.8761     356.3124        46     2.220     1.391 -31.31   0
       397    259.6265     41.9730 307.8306280  +6.6634149     4828.661     11438.57      17616.6     87.43599     175.3617     350.8631      3.445     9.39     1086.336      61.8761      551.058        82     3.481     1.463 -28.77   0
       398    439.7433     41.0916 307.7558147  +6.6697918     11638.69     28402.96     35624.79     87.85535     175.5014     351.1424      2.652     6.77     1070.827      61.8761     1250.259        83     2.467     1.590 -26.98   0
       399     25.7869     41.3374 307.9278131  +6.6558540     1149.068     2855.383     3379.625     87.43599     175.3617     350.8282      2.517     7.40     1094.638      61.8761     152.7089        21     1.920     1.035 -30.90   0
       400    917.3610     41.3694 307.5573328  +6.6855675     1131.817     2540.137     2480.295       87.576     175.2918     350.8631      2.233     7.92     1057.517      61.8761     146.7667        21     1.841     0.953 -19.29   0
       401    620.5894     39.3747 307.6807249  +6.6765267     1761.902     4536.117      6169.24       87.576     175.3617     350.8981      2.849     8.55     1065.066      61.8761     199.1641        46     2.321     1.471 -35.97   0
       402    320.3955     41.3124 307.8053997  +6.6657176     613.8619     1194.205     1634.183     87.43599     175.2219     350.6885      2.175     6.24     1082.326      61.8761     89.00671         7     1.454     0.752 -24.42   0
       403    248.2871     38.5002 307.8354589  +6.6644696     1669.837     3780.104     6093.492      87.9947     176.1286     351.0726      3.125     7.03     1086.498      61.8761     192.3776        31     2.017     1.135 -36.64   0
       404    689.5758     30.3037 307.6523677  +6.6825674     949.5442     2215.189      2225.09     88.13382     175.2918      350.898      2.339     7.56     1063.458      61.8761     117.6317        17     1.628     0.982 -42.22   0
       405    955.6636   1019.5826 307.5081054  +6.2829723     4821.362      9837.35     11168.26     87.43599     175.5014     326.4432      2.161     6.54     1106.388      61.8761     642.8563        40     2.113     1.029 -27.31  16
       406    238.5076   1020.5024 307.8058489  +6.2587314     866.6094      1666.12     1511.847      87.9947     176.1286     314.8271      2.210     4.69     1116.949      61.8761     146.7841         8     1.219     0.575 -59.91  18
       407    438.3490   1019.1522 307.7229205  +6.2659548     586.2582     1144.617     1367.387     88.13381     175.4316     331.4712      1.857     5.67     1115.266      61.8761     105.1466         7     1.537     0.590  10.07  16
       408    459.5524     20.7536 307.7482798  +6.6788488     1003.403     2298.622     2868.976      87.9947     175.4316     351.0377      2.405     7.24     1069.645      61.8761     139.7682        16     1.719     0.854 -38.54   0
       409    724.4585     19.9475 307.6382259  +6.6880032     1096.893     2575.899     2669.161     87.99469     175.5712     351.0377      2.282     7.13     1061.234      61.8761       139.79        15     1.800     0.791  -9.49   0
       410    730.6151   1017.6516 307.6016179  +6.2762999     690.3788     1450.895     1776.227     87.29576     175.5712     345.0535      2.266     5.30     1112.036      61.8761      104.774         9     1.852     0.428 -26.35  16
       411    362.2788   1015.0697 307.7546450  +6.2651044         1255      2681.41     2964.871     88.27272     175.8501     351.0028      2.227     8.33     1116.456      61.8761      151.345        23     1.849     1.049 -21.73  16
       412    714.6656   1017.8474 307.6082338  +6.2756891     2073.513     4334.826     5867.509     87.85535     175.5014     343.8085      2.716     7.41     1112.454      61.8761     256.2819        26     2.071     0.929 -25.85  18
       413    544.3546   1005.4970 307.6793722  +6.2751231     2793.415     5925.354     7127.395      87.9947     175.4316     351.2122      2.282     7.58     1116.547      61.8761     370.2866        35     2.169     0.988 -32.55   0
       414    749.0560   1004.6824 307.5944029  +6.2822671     5133.292     11138.28      12622.3     87.99469     175.5712     351.1424      2.242     7.29     1111.061      61.8761     650.7335        49     2.219     1.143 -26.09   0
       415    294.8933   1003.9622 307.7830041  +6.2674421     9354.947      20901.9     25448.92     88.13381     175.4316     351.1075      2.455     6.99     1116.657      61.8761     1115.023        67     2.618     1.223 -30.00   0
       416    809.0778   1004.9807 307.5694699  +6.2841374     773.1724      1317.09     1785.383     87.43599     175.2918     351.0028      2.240     4.50     1109.361      61.8761     112.5648         8     1.085     0.530 -33.99   2
       417    910.3933    998.0919 307.5276347  +6.2903438     6146.945     12735.87     14437.83       87.576     175.2219     350.8282      2.150     6.77     1107.024      61.8761     801.7258        40     2.203     0.944 -29.83   0
