#   1 NUMBER                 Running object number                                     
#   2 X_IMAGE                Object position along x                                    [pixel]
#   3 Y_IMAGE                Object position along y                                    [pixel]
#   4 ALPHA_J2000            Right ascension of barycenter (J2000)                      [deg]
#   5 DELTA_J2000            Declination of barycenter (J2000)                          [deg]
#   6 FLUX_APER              Flux vector within fixed circular aperture(s)              [count]
#   9 FLUXERR_APER           RMS error vector for aperture flux(es)                     [count]
#  12 FLUX_RADIUS            Fraction-of-light radii                                    [pixel]
#  13 FWHM_IMAGE             FWHM assuming a gaussian core                              [pixel]
#  14 BACKGROUND             Background at centroid position                            [count]
#  15 THRESHOLD              Detection threshold above background                       [count]
#  16 FLUX_MAX               Peak flux above background                                 [count]
#  17 ISOAREA_IMAGE          Isophotal area above Analysis threshold                    [pixel**2]
#  18 A_IMAGE                Profile RMS along major axis                               [pixel]
#  19 B_IMAGE                Profile RMS along minor axis                               [pixel]
#  20 THETA_IMAGE            Position angle (CCW/x)                                     [deg]
#  21 FLAGS                  Extraction flags                                          
         1    453.6823     27.6376 307.7554894  +6.6694377     11125.26     29742.02     35929.86      90.8904     181.3488     362.5535      2.669     6.58     1144.945     63.91231     1130.281        83     2.264     1.810  56.57   0
         2    274.3512     28.0907 307.8300197  +6.6632070     4444.397     12040.53     14396.75      90.8904     181.1325     362.7698      2.651     7.17     1167.016     63.91231     443.7461        59     2.184     1.616  61.60   0
         3    634.5130     26.1013 307.6803697  +6.6761548     1829.761     4675.424      5905.79      90.8904     181.8527     362.6617      2.788     8.46      1138.94     63.91231     210.4181        38     2.044     1.449  73.18   0
         4    951.5916     17.6450 307.5488369  +6.6902836      759.954     1594.063     1559.651     90.31332     181.2046      362.265      1.880     5.73     1128.162     63.91231     123.8738         8     1.596     0.580  78.33   0
         5    703.4603     16.8348 307.6520159  +6.6822955     1092.005     2408.789     2841.742      90.8904     181.3488     362.5535      2.272     6.77     1136.095     63.91231     179.2643        14     1.621     0.794  79.91   0
         6    191.8647     10.1050 307.8649080  +6.6678460     5027.973     13981.47     16894.49     90.74648      181.493     362.6256      2.681     7.12     1166.445     63.91231     518.8455        61     2.218     1.684  61.11  16
         7    535.6694      7.8067 307.7220679  +6.6803815     1600.017     4014.374     4833.946     90.31332     180.8436      359.803      2.513     6.30     1141.342     63.91231     211.7412        25     1.693     1.098 -53.50  18
         8    937.2995      7.3777 307.5551188  +6.6940423     2981.264       5859.1     6350.917      90.8904     181.0603      356.665      2.127     5.21     1129.063     63.91231     385.4565        37     1.868     1.271  54.11  16
         9    738.1257      6.3936 307.6379519  +6.6877688     1184.251     2539.883     2825.313     90.45793     180.8436     348.0963      2.272     6.65     1132.577     63.91231     192.0243        19     1.424     1.212  79.47  16
        10    474.7888      7.1903 307.7473965  +6.6785871     913.0774     2299.665     2766.332     90.60232     181.1325     355.4168      2.680     7.74     1142.546     63.91231     119.1492        13     1.594     1.053  39.83  16
        11   1002.0354      3.5498 307.5283333  +6.6977903     1265.258     2497.913     2404.577     90.74648     175.0404     311.1368      2.090     6.85     1121.179     63.91231       179.79        19     1.612     1.161  58.56  24
        12    721.8886      2.0278 307.6448469  +6.6890255     3341.203     5314.696     5572.775     88.11559     155.5894     285.8702      1.701     5.26     1133.453     63.91231     519.5067        23     1.509     1.029   7.33  24
        13    642.0215      1.6798 307.6780603  +6.6864862     1270.849     1990.271     2263.026     83.54686     150.0293     279.2083      1.651     5.87     1137.875     63.91231     199.5946        12     1.310     0.741  -7.95  24
        14    558.7325    991.8690 307.6797617  +6.2750134     3278.928     6261.895     7407.874      90.8904      181.493     362.5896      2.078     5.30     1200.602     63.91231     378.0603        33     1.784     1.210  72.97   3
        15    806.0963   1022.9406 307.5759811  +6.2704925     4340.995      6526.65     6666.728      87.8184     156.1764     286.4641      1.583     5.37     1200.129     63.91231     748.0565        24     1.577     0.858  20.95  24
        16    594.0710   1024.0000 307.6640158  +6.2629396     14100.38     16976.71     17850.45     73.38513     137.6713     266.2191      1.097     3.11     1201.607     63.91231     4375.471        11     1.290     0.358   5.39  27
        17    597.4999   1020.0112 307.6627240  +6.2647011     56062.37     106770.5     118958.5     90.60232     180.9159      331.517      2.063     4.86      1201.49     63.91231     6475.279        87     2.028     1.460  54.93  18
        18    555.8405    983.8750 307.6812286  +6.2782155      6097.37     12213.24     14051.77     90.74648     181.3488     362.6256      2.177     5.04     1200.436     63.91231     768.7333        49     1.945     1.370  60.83   3
        19    763.0443    990.9805 307.5949235  +6.2822398     6233.131     11536.87     12313.15     90.31332     181.2046     362.4093      1.957     4.54     1198.623     63.91231     795.6224        39     1.853     1.137  53.63   0
        20    528.9177    993.1126 307.6921048  +6.2734980     887.5508     1427.115      925.118     90.60232      181.565     362.6617      1.765     6.07     1201.032     63.91231     125.3757        10     1.113     0.931  14.43   0
        21    308.8703    990.4775 307.7835934  +6.2671802     11357.48     22310.99     25699.59     91.17757     181.6369     362.5535      2.175     5.01     1204.453     63.91231     1103.402        69     1.894     1.666  57.72   0
        22    824.9133    991.0389 307.5692218  +6.2842901     917.5021     1469.956     981.2775      90.8904     181.2767     362.5896      1.723     5.51     1196.949     63.91231     132.0134         9     1.151     0.838  36.47   0
        23    433.4769    990.4476 307.7318369  +6.2713880     857.0094     1515.647     1667.034     90.74648     181.4209     362.5535      1.913     6.38     1202.409     63.91231     103.3865         9     1.320     0.866  40.22   0
        24    280.0263    987.7241 307.7956658  +6.2673447     650.4852     1299.063     1574.661     90.60232     181.2767     362.5535      2.264     6.57      1204.56     63.91231     85.48743        10     1.648     0.734  64.66   0
        25    924.4028    984.3275 307.5281168  +6.2903935     7521.229     13196.77     13580.81     90.31332     180.8436     362.4093      1.861     4.57     1193.932     63.91231     1100.124        38     1.767     1.113  60.28   0
        26   1019.6926    979.9673 307.4886777  +6.2953826     4414.519     7480.127     7886.198      91.0341     181.2046     335.9429      1.765     4.57     1190.612     63.91231     651.1248        33     1.783     1.026  58.54  16
        27    898.0720    980.4717 307.5391822  +6.2911030     10803.96     18999.11     20969.28     91.17757      181.493     362.4814      1.966     4.43     1194.022     63.91231     1400.561        56     1.892     1.397  47.65   0
        28    611.0018    980.7923 307.6584179  +6.2813413     846.6396     1631.251     1841.033     90.16846     180.9881     362.3371      1.949     5.09     1200.008     63.91231     126.1876         8     1.147     0.640 -76.19   0
        29    542.3154    979.7044 307.6869852  +6.2794823     3117.422     5995.423     7136.485      90.8904     181.7808     362.6977      2.166     5.01     1200.486     63.91231     335.9956        34     1.692     1.253  50.42   0
        30    651.9507    979.5263 307.6414504  +6.2832390     1053.146      1644.24     1794.611      90.8904     181.4209     362.6256      1.824     5.51     1199.122     63.91231     149.5414        10     1.089     0.788  48.58   0
        31    495.3844    976.3399 307.7065912  +6.2792930       1537.2     2809.805      1940.06     90.31332     181.2768     362.3011      1.896     5.19     1201.443     63.91231     187.7537        21     1.458     1.082  86.28   0
        32    929.7279    968.0968 307.5264420  +6.2972707     37013.48     65923.75     71585.96     90.74648      181.493     362.5535      1.915     4.45     1192.605     63.91231     5264.327        70     1.919     1.240  57.74   0
        33      3.1186    968.2282 307.9113313  +6.2660469      2529.32     4583.582     5198.974     90.74648     170.2708     304.2548      1.961     5.96     1202.172     63.91231     296.5995        24     1.753     0.989  67.68  24
        34    237.4762    966.8798 307.8140341  +6.2745133     1297.577     2484.868      2548.69     91.17757     181.6369     362.7337      2.054     6.42     1204.184     63.91231     179.5052        19     1.572     0.944  62.29   0
        35    827.8310    962.1806 307.5689661  +6.2962987     1984.625     3510.041     3425.821     90.31332     181.1325     362.4453      1.937     4.71     1194.668     63.91231     307.8623        24     1.657     0.996  73.84   0
        36    775.9390    959.8162 307.5906004  +6.2955347      5218.67     9886.099     10769.03     90.31332     181.2767     362.3732      2.035     4.67     1196.114     63.91231     657.3834        38     1.818     1.192  62.99   0
        37    246.4429    960.1509 307.8105339  +6.2775927     1005.398     1876.342     2693.119      90.8904     181.2767     362.5175      2.176     4.68     1204.028     63.91231     142.5221         9     0.956     0.651 -10.34   2
        38     70.6305    957.2276 307.8836574  +6.2728674     1958.418     3658.158     4176.077     90.31332     181.0603     362.3371      1.970     6.41     1202.796     63.91231      214.931        24     1.659     1.093  65.43   0
        39    210.2637    958.6671 307.8256111  +6.2769853     719.4587      1318.61     1057.755      90.8904     181.3488     362.6256      2.001     5.42     1203.907     63.91231     124.0879         5     0.973     0.851 -76.16   0
        40    964.1561    954.9035 307.5125769  +6.3038687     5998.515     10428.01     11019.07      90.8904     181.2767     362.7698      1.865     4.47     1190.773     63.91231     740.7667        38     1.777     1.121  54.16   0
        41    937.9386    946.6793 307.5237401  +6.3063854     1822.313     3068.007     3521.833      91.0341     181.4209     362.5896      1.801     5.43     1190.827     63.91231      237.224        20     1.709     0.906  47.73   0
        42    797.1315    943.2472 307.5823462  +6.3030839      937.041     1754.841     1417.631      90.8904     181.2767     362.5535      1.936     6.90      1194.39     63.91231     116.6377        13     1.540     0.867  67.07   0
        43    658.7397    942.6779 307.6398534  +6.2986753     3446.912     6267.096     6284.945      91.0341     181.4209     362.5535      1.929     4.59     1197.164     63.91231     389.1649        32     1.673     1.132  72.09   0
        44    271.0123    942.8941 307.8009036  +6.2855430     3134.806     5968.422      6703.34     90.60232     181.0603     362.3732      2.038     5.01     1203.593     63.91231     347.7191        32     1.688     1.176  61.17   0
        45   1008.3615    942.1931 307.4946340  +6.3105942     649.4149     1050.829     1088.429     90.02338     180.9881      362.265      2.020     5.21     1188.999     63.91231     90.33789         6     1.063     0.722  79.23   0
        46     39.9664    940.4199 307.8969552  +6.2787684     1730.115     3124.198     3148.369     90.31332     181.1325     362.3732      1.971     6.32     1202.361     63.91231     199.3295        18     1.640     0.839  57.05   0
        47    890.9988    938.9624 307.5434949  +6.3079983     663.1524     1370.072     1191.693     89.87807     181.1325     362.3371      1.915     4.73     1191.078     63.91231     88.65747         5     1.446     0.438  72.77   0
        48    584.0326    935.3736 307.6711291  +6.2991807     1247.019     2534.528     2253.148     90.31332     181.0603     362.3732      2.027     5.40     1198.781     63.91231     154.0571        19     1.384     1.100 -15.03   0
        49   1014.7733    934.4870 307.4922253  +6.3139893     773.0366     1326.537     1585.756      91.0341     181.1325     362.4453      2.156     5.46     1188.449     63.91231     128.1047         9     1.353     0.621 -72.80   0
        50    622.7733    931.8203 307.6551543  +6.3019487      903.351     1654.139     1663.768     90.31332     181.1325     362.4814      1.997     5.59     1197.713     63.91231     125.8175        11     1.237     0.713  87.80   0
        51    302.3541    930.2017 307.7883077  +6.2918375     1113.702     2200.553     3575.047     90.16846     180.9881     362.1567      2.967     6.93     1203.141     63.91231     135.9758        13     1.407     0.956 -52.74   0
        52    906.7009    921.8516 307.5375386  +6.3155865     5891.015     10687.84     11379.42      90.8904     181.3488     362.8418      1.953     4.41     1189.814     63.91231     794.5072        38     1.832     1.152  55.33   0
        53    442.8923    919.1506 307.7302976  +6.3011306     1473.851     3084.008     3197.893     90.74648     181.1325     362.7698      2.265     5.84     1201.145     63.91231      186.741        23     1.509     1.105  49.14   0
        54    344.4583    917.5535 307.7712394  +6.2984760      6635.11     13579.47     15257.55      90.8904     181.3488     362.7337      2.164     5.49     1202.734     63.91231     625.8872        50     1.937     1.377  60.08   0
        55    264.4948    916.4349 307.8044925  +6.2962435     5020.287     10067.96     11624.61      91.0341     181.2046     362.6977      2.206     5.18     1203.222     63.91231     546.5568        42     1.891     1.262  57.23   0
        56    922.9595    906.9523 307.5312777  +6.3222805     837.6917     1401.057     1511.419     90.74648     181.3488     362.4453      1.699     5.57     1189.042     63.91231     125.7987         9     1.345     0.649  49.13   0
        57    758.7811    900.4080 307.5996976  +6.3194787     1278.186     2387.452     2723.406     90.45793     180.9881     362.4093      2.294     6.53     1192.071     63.91231     182.7748        16     1.676     0.713 -89.14   0
        58    318.0798    902.2812 307.7827054  +6.3038906       1986.7     2109.966     1709.302      91.0341     181.6369     362.7698      0.705     2.57     1202.774     63.91231     808.6769         5     0.724     0.366  83.66   0
        59    544.9333    896.2897 307.6886696  +6.3139975     728.1713     1115.694     742.3421      91.0341      181.493     362.5535      1.716     6.49     1198.552     63.91231     111.7379        10     1.376     0.860  74.53   0
        60    990.1362    895.8235 307.5037391  +6.3291227     1161.724     1998.286       3288.8     90.45793     181.3488     362.4453      2.125     5.18     1186.769     63.91231     164.0555        14     1.360     0.771  58.69   0
        61    623.0338    896.1899 307.6562292  +6.3166630     665.4839     1016.536      1075.18     90.31332     181.1325     362.4093      1.506     4.55     1195.861     63.91231      92.3241         6     1.368     0.430  72.92   0
        62    677.3575    893.2997 307.6337582  +6.3196801     1963.054     3514.511     3753.609      90.8904     181.2046     362.8418      1.923     5.31     1194.666     63.91231     224.0144        24     1.616     1.084  48.97   0
        63     74.4115    889.7397 307.8843401  +6.3008479     2096.793     4086.495     4311.462     90.16846     181.2046      362.265      2.029     6.27     1202.094     63.91231     228.3136        27     1.793     1.016  60.42   0
        64    217.9094    888.8183 307.8247640  +6.3060707     1643.298     3225.031      3120.15     90.60232     181.0603     362.4814      2.010     7.28     1202.975     63.91231     197.4006        21     1.623     1.059  74.68   0
        65     91.7226    888.6403 307.8771861  +6.3018862     1389.616     3024.999     3679.181     90.74648     181.3488     362.6256      2.268     8.13     1202.075     63.91231     164.4386        23     1.749     1.056  56.21   0
        66    955.8221    889.1495 307.5182150  +6.3307287     637.2337     931.7132     787.4868     90.31332     181.4209     362.4453      1.345     3.05      1187.48     63.91231     107.3228         6     0.753     0.557 -43.86   0
        67    838.2443    889.2667 307.5670562  +6.3267416     720.8986     1029.832     947.5487      90.8904     181.2768     362.6256      1.681     3.81     1189.872     63.91231     127.2897         5     1.027     0.405  45.35   0
        68    672.0967    882.5048 307.6363019  +6.3239589     4932.147     9952.488     11629.65      90.8904     181.9964     362.4093      2.232     4.93     1194.528     63.91231     581.4377        45     1.850     1.367  61.88   0
        69    810.7149    883.3949 307.5786872  +6.3282422     549.0799     971.5303     1473.777     90.31332     180.9881      362.265      1.965     3.62     1189.951     63.91231     110.3201         5     0.818     0.679  45.65   0
        70     32.5499    880.8060 307.9020269  +6.3031210     923.2142     1735.683     1487.633     90.31332     181.1325     362.1567      1.976     7.76     1202.079     63.91231     103.8464        16     1.589     1.061  41.48   0
        71    909.6714    878.5257 307.5377391  +6.3335680     2345.172     4189.623     4189.954     91.17758      181.493     362.6256      1.885     4.58     1188.339     63.91231     296.5878        25     1.554     1.096  57.76   0
        72    355.1466    875.7791 307.7681905  +6.3160771      10712.4      23052.2     26139.71     90.31332     181.3488     362.3732      2.236     5.44     1202.063     63.91231     1058.952        60     2.004     1.471  60.34   0
        73     45.3397    878.9069 307.8967777  +6.3043369     789.4373     1466.964     1393.079     90.74648     181.2767     362.6256      1.909     6.56     1202.044     63.91231     103.5189         9     1.487     0.812  37.45   0
        74     90.2336    876.6714 307.8782042  +6.3067756     987.7361      1824.62     1678.996     90.74648     181.3488     362.6617      1.958     6.32     1201.911     63.91231     118.0363        14     1.178     0.953  50.58   0
        75    226.5430    874.5850 307.8216522  +6.3122361     802.5861     1407.775     1480.376     90.16846     181.2768     362.2289      1.901     5.02     1202.911     63.91231     112.2386         7     1.045     0.682  72.44   0
        76    118.8423    866.1767 307.8666708  +6.3120727      1022.69     2278.991     2419.488     90.45793     181.2046     362.3371      2.343     7.98     1201.728     63.91231     131.8027        20     2.033     0.876  67.44   0
        77    900.2172    860.2453 307.5422721  +6.3407963     1713.165     2827.182     3087.627     90.31332     181.2046     362.3011      1.735     5.27     1187.666     63.91231     198.8854        23     1.573     1.036  61.23   0
        78    102.1548    860.1359 307.8738043  +6.3140025     1922.046     3624.053      3976.01      90.8904     181.2767     362.5896      2.039     7.16     1201.523     63.91231     222.8368        23     1.811     0.967  52.10   0
        79    870.8783    859.8544 307.5544735  +6.3399746     1563.585     3098.501     3191.231      91.0341     181.3488     362.6256      2.175     4.87     1188.146     63.91231     222.3274        18     1.350     1.026  52.49   0
        80    834.5838    859.4401 307.5695652  +6.3389293     2441.293     4624.823     5331.885     90.31332     181.1325     362.3732      2.033     5.22     1188.338     63.91231     339.4863        25     1.555     1.148  57.91   0
        81    570.1679    850.9100 307.6796947  +6.3335750     219456.5     463299.6     523774.4      91.0341     181.1325     362.5896      2.254     5.16     1195.281     63.91231     23204.42       174     2.166     1.640  57.76   0
        82    414.5364    853.5378 307.7442597  +6.3272561     5019.603     10606.19     11889.45      90.8904     181.3488     362.6256      2.269     5.69      1199.57     63.91231     468.4896        50     1.966     1.420  56.30   0
        83    357.7231    851.9481 307.7679137  +6.3259994     8340.493     17502.64     19770.08      91.0341     181.4209     362.5896      2.227     5.43     1201.157     63.91231     874.6112        55     1.959     1.454  55.83   0
        84    675.9483    848.0564 307.6358453  +6.3383060     2266.343     4875.576     5331.041      90.8904     181.3488     362.5535      2.249     6.44     1192.383     63.91231     263.6194        34     1.946     1.261  60.00   0
        85    908.2914    846.9791 307.5393570  +6.3465421     4063.122     7870.061     9058.569     90.74648     181.1325     362.4093      2.119     4.60     1186.564     63.91231     520.6022        40     1.845     1.393  35.10   0
        86    748.3022    844.4611 307.6059063  +6.3422182     633.6509     1206.103     914.0161     90.60232     181.3488     362.6977      2.008     5.25       1189.1     63.91231     80.55237         7     0.979     0.794  46.73   0
        87    650.9326    842.2000 307.6464320  +6.3398831     2223.864     4405.063      5180.44     90.02338     180.7713      362.265      2.132     5.04      1192.14     63.91231     321.7891        29     1.700     1.137  59.84   0
        88    839.8319    841.7697 307.5679705  +6.3463983     1204.861     1916.622      1865.15     90.31332     181.0603     362.3011      1.716     6.03     1187.243     63.91231     147.8314        16     1.278     1.110 -80.16   0
        89    643.7464    837.0612 307.6495880  +6.3417628       1609.5     3569.027     5251.576      90.8904     181.2767     362.5535      2.824     5.62     1191.753     63.91231     189.2903        26     1.482     1.394  67.82   2
        90    966.4315    840.9452 307.5154028  +6.3509794     559.8023     732.8613    -203.8125     90.74648     181.4209     362.5535      1.259     3.93     1184.301     63.91231     97.81995         5     0.897     0.493 -86.31   0
        91    927.3691    834.8950 307.5318314  +6.3521686     2540.008     4582.603     4727.058      91.0341     181.1325     362.6256      1.967     5.31     1185.274     63.91231     310.7352        31     1.877     1.122  58.63   0
        92    338.6350    835.3911 307.7763945  +6.3321899     721.0785     982.7301     1273.636     90.31332     181.1325     362.3732      1.584     4.04     1200.736     63.91231     112.1525         6     0.974     0.480 -87.61   0
        93    385.7578    830.9257 307.7569675  +6.3356198     1617.467      3665.77     4171.371     90.74648     181.4209     362.6256      2.320     7.87     1199.438     63.91231     178.4263        28     1.836     1.157  67.25   0
        94    521.9571    820.6122 307.7007298  +6.3444590     1917.204     4171.216     4396.407     90.16846     181.1325      362.265      2.225     6.65     1194.914     63.91231     224.6467        31     1.913     1.250  73.42   0
        95    866.5941    819.9678 307.5575746  +6.3562936        860.3     1764.734     1641.318     90.16846     181.1325     362.3371      1.985     6.58     1185.509     63.91231     121.9159        12     1.393     0.871  35.05   0
        96    568.6351    816.7664 307.6814659  +6.3476155      3889.28     8489.161     10918.67     90.60232     181.0603     362.3011      2.570     5.53     1192.717     63.91231     426.1642        43     1.841     1.425  60.98   0
        97    487.0853    816.2332 307.7153622  +6.3450936     991.6276     2222.318     2457.669      90.8904     181.1325     362.5535      2.264     7.20     1195.231     63.91231      100.229        16     1.421     1.021  54.60   2
        98    588.3931    818.0401 307.6732154  +6.3477538     533.2821     1016.347     1404.476     90.16846     180.9881     362.2289      1.939     4.61     1191.589     63.91231     84.34119         5     1.027     0.587  18.39   0
        99    904.3849    814.9321 307.5420412  +6.3596381     1145.036     2277.347     2714.431     90.31332     181.2046     362.4814      2.196     5.83     1184.274     63.91231     173.5214        12     1.466     0.654  73.05   0
       100    129.4503    815.2634 307.8639634  +6.3334433     794.5368     1360.928     1176.953      90.8904     181.2768     362.6256      1.772     5.10     1200.118     63.91231     105.7115         7     0.998     0.737 -88.45   0
       101    539.2264    810.5944 307.6938885  +6.3491743     12559.56     27175.73     30679.35     90.31332     181.1325     362.3732      2.271     5.27     1193.937     63.91231     1366.115        64     2.042     1.488  57.12   0
       102    952.9961    808.8200 307.5220478  +6.3637888     2907.011     5391.719     5767.164     90.45793     180.9159     362.3732      1.964     4.77     1182.417     63.91231     394.5923        29     1.684     1.045  61.16   0
       103     50.5857    801.6617 307.8971785  +6.3363938     875.4968     1834.304     2112.992     90.31332     181.2046     362.3732      1.994     7.15     1199.276     63.91231     106.2927        12     1.710     0.837  65.26   0
       104    331.9789    799.6705 307.7803493  +6.3467082      1964.03     4495.117     4796.754     90.45793     181.2046     362.5535      2.353     6.69     1199.301     63.91231     224.2816        30     1.786     1.253  82.93   0
       105     32.2084    797.6335 307.9049472  +6.3374355     1425.609     3036.449     3366.236     90.31332     181.1325     362.3732      2.135     6.14     1199.193     63.91231     174.3468        21     1.524     1.149  37.69   0
       106    797.3541    795.0196 307.5871674  +6.3642695      39031.7     77903.65      86144.1     90.45793     181.2768     362.4093      2.119     4.65     1185.111     63.91231     4531.262        84     1.988     1.473  55.51   0
       107    254.1512    771.7844 307.8136104  +6.3555944     766999.6      2335610      2848058     90.31332     181.3488     362.3011      2.769     9.40     1199.453     63.91231     63390.23       655     2.909     2.251  73.07   4
       108    919.6375    781.6808 307.5368055  +6.3738729     5371.772     9968.334     10608.95      90.8904     181.4209     362.5175      1.984     4.58     1181.765     63.91231     621.5359        41     1.800     1.202  58.37   3
       109    726.0588    789.9673 307.6169549  +6.3639630     14520.29     28456.12     31776.53     90.74648     181.4209     362.5535      2.068     4.88     1187.822     63.91231     1566.806        47     1.733     1.336  79.25   3
       110    719.4785    786.2109 307.6198133  +6.3652926     59947.84     124006.4     143498.1     90.45793     180.9159     362.4453      2.247     4.91     1187.552     63.91231     6992.692       101     2.165     1.593  48.55   3
       111    441.1147    793.3782 307.7352202  +6.3529797     623.1974     1020.223     646.0065     90.74648     180.9881     362.4814      1.681     4.34     1196.045     63.91231     96.72644         5     1.129     0.474   5.66   0
       112    364.3365    787.2130 307.7673218  +6.3529395     12316.79     28172.13     31959.24     90.31332     181.1325     362.3732      2.353     5.67     1197.583     63.91231     1176.226        67     2.090     1.570  59.00   0
       113    426.1741    785.0373 307.7417046  +6.3559194     13217.65     29843.19     33982.92     90.45793     181.1325     362.3732      2.343     5.69     1196.214     63.91231     1286.745        73     2.134     1.555  58.83   0
       114    413.8640    787.3582 307.7467415  +6.3545472     820.2689     1954.177     2279.277      90.8904     181.2767     362.6256      2.588     7.39     1196.774     63.91231      120.717        11     1.933     0.792  27.48   0
       115    963.1985    783.5990 307.5186439  +6.3745400      1534.92     3013.142      2566.01     90.16846     180.8436     362.2289      1.985     5.80      1180.56     63.91231     208.7212        20     1.564     0.927  59.33   0
       116    660.1902    780.7974 307.6446245  +6.3655366     4080.803     8486.605     9853.423     90.31332     180.9881     362.3732      2.190     5.22     1187.652     63.91231     468.9772        42     1.886     1.300  58.04   0
       117    449.1446    779.1946 307.7323562  +6.3591038     1152.832     2449.489     2328.815     90.31332     181.1325     362.2289      2.166     7.21     1194.921     63.91231     124.7345        16     1.360     1.072  78.30   0
       118    429.0883    767.7200 307.7410703  +6.3631647      32000.8     72820.33     83941.33     90.60232     181.6369     362.7337      2.374     5.60     1195.026     63.91231     3131.022        92     2.135     1.672  56.71   0
       119    163.9824    772.0262 307.8510611  +6.3524533     575.5187     1340.183     1499.848     90.45793     181.1325     362.4814      1.765     5.50     1198.853     63.91231     91.98938         6     1.392     0.613 -76.55   2
       120    695.2841    770.8430 307.6303750  +6.3708233     1725.006     3161.154     3240.071      90.8904     181.2767     362.5535      1.979     5.17      1186.72     63.91231     192.8009        19     1.271     1.080  88.00   0
       121    546.8248    766.6043 307.6921940  +6.3675855     4266.021     9691.637      10931.6     90.31332     181.0603     362.4093      2.353     5.62     1189.961     63.91231     427.9224        46     1.961     1.432  58.21   0
       122    463.6233    765.1252 307.7268092  +6.3653978     2745.331     6351.773     8138.672     90.45793     181.2046     362.5175      2.579     6.58     1193.647     63.91231     301.9291        40     2.051     1.363  63.74   3
       123    460.4420    759.0562 307.7283327  +6.3677956     1381.293     3253.241     4797.826     90.74648     181.2767     362.5896      2.948     8.48     1193.483     63.91231     169.1382        22     1.624     1.236  65.58   3
       124    791.9244    763.2064 307.5904780  +6.3772177     7961.867      16233.9     17934.33     90.45793     180.7713     362.4093      2.155     4.83     1183.301     63.91231     926.2285        50     1.872     1.400  58.90   0
       125    813.8239    758.1797 307.5815461  +6.3800267     710.0618     1413.807     1769.711     90.60232     181.1325     362.5175      2.343     5.03     1182.317     63.91231      97.0426         7     1.307     0.547 -71.79   0
       126    142.6067    746.0394 307.8608083  +6.3624569     1120.834     2274.221     3033.032     90.16846     180.9881      362.265      2.352     6.30     1197.651     63.91231     142.2321        14     1.291     1.056  73.78   3
       127    149.9404    755.5427 307.8574445  +6.3587823     6859.777     15840.35     19111.54      91.0341     181.2767     362.6256      2.431     5.98     1198.081     63.91231     662.5143        63     2.077     1.604  55.83   3
       128    142.2903    752.8107 307.8607137  +6.3596517     1899.585     4560.588     6261.776     90.60232     180.9881     362.3371      2.978     9.42     1197.929     63.91231     222.0541        36     2.318     1.146  66.99   3
       129     21.2729    758.8013 307.9107873  +6.3530923     585.3227     1488.409     1454.202     90.31332     180.7713     362.4453      2.370     5.90     1198.787     63.91231     98.40967         7     1.548     0.632  23.12   0
       130    158.0596    755.6562 307.8540677  +6.3590095      1798.82     3990.177     5317.115      91.0341     181.3488     362.6256      2.500     6.59     1198.114     63.91231     220.1461        31     1.702     1.390  55.65   1
       131    937.4200    751.7405 307.5304088  +6.3868259     5017.088      9293.31     10494.05     90.45793     181.2046     362.4453      2.007     4.36     1179.727     63.91231     616.1621        43     1.840     1.293  45.11   0
       132    987.2066    751.7626 307.5097229  +6.3884836     1153.448     2092.913     3398.638     89.87807     181.0603     362.3011      1.995     5.92     1177.889     63.91231     178.7883        14     1.418     0.834  60.04   0
       133    693.6113    750.1535 307.6317566  +6.3793063     1114.294     2226.785      3523.14     90.31332     181.1325     362.2289      2.957     7.00     1185.364     63.91231     131.6151        16     1.248     1.099 -46.89   0
       134    580.0459    748.5706 307.6789914  +6.3761451     1521.144     3439.259     3761.536     90.31332     181.4209     362.4453      2.348     7.30     1187.513     63.91231      189.824        26     1.801     1.153  56.95   0
       135    427.7019    747.9135 307.7423053  +6.3712926     825.9621     1523.245     1624.017      90.8904     181.8527     362.6617      1.993     4.98     1193.804     63.91231      110.953         7     1.018     0.689 -77.14   0
       136    931.5915    743.8148 307.5330928  +6.3899019     2272.835     3970.887     4480.515     90.45793     181.0603     362.4093      1.974     5.21     1179.491     63.91231     299.3114        25     1.669     1.220  64.54   0
       137    992.0361    742.9800 307.5080070  +6.3922701     1569.503     2687.027     3142.159     90.31332     181.1325     362.3732      1.863     5.71     1177.174     63.91231     231.5004        19     1.555     0.950  61.56   0
       138    961.3263    743.3170 307.5207551  +6.3911031     2416.953     4439.062     4868.307     91.17758     181.7089     362.6617      2.023     4.64     1178.344     63.91231     313.3389        26     1.573     1.031  56.37   0
       139    684.5764    743.2316 307.6357401  +6.3818599      904.748     1849.332     2808.818     90.16846     181.1325     362.3371      2.458     6.82     1185.127     63.91231     134.0215        12     1.177     1.109 -85.63   0
       140    906.5601    740.2993 307.5436092  +6.3905145      632.383      1179.01     1109.704      90.8904     181.2046     362.8418      2.109     4.21     1179.521     63.91231     103.7241         5     1.020     0.495  49.46   0
       141    949.9596    733.5786 307.5258001  +6.3947418     837.9612     1560.825     1208.532     90.45793     181.1325     362.3732      1.939     8.08     1178.228     63.91231     121.5789        14     1.500     1.217  82.53   0
       142    975.9039    730.8903 307.5151097  +6.3967200      1970.55      3766.64     4180.049      90.8904     181.8527     362.5896      2.007     5.39     1177.101     63.91231     246.2065        23     1.586     1.043  60.15   0
       143    923.7009    732.7618 307.5367372  +6.3941996     1061.618     1657.455     2073.379      90.8904     181.2046     362.8418      1.756     5.48     1178.959     63.91231     128.4619        11     1.225     0.691   6.46   0
       144    922.6259    790.2493 307.5352802  +6.3704365     6534.676     12400.66     13964.33     90.45793     181.4209     362.4814      2.078     4.61     1182.138     63.91231     843.0781        45     1.851     1.316  53.91   3
       145   1018.0768    724.7328 307.4977912  +6.4006729     1441.063     2261.927      2326.06      91.0341     181.4209     353.1662      1.686     4.53     1175.405     63.91231     212.7427        15     1.226     0.884 -79.50  16
       146    819.0005    723.2199 307.5805543  +6.3946293     786.3032     1609.002     1127.785     90.45793     180.8436     362.2289      2.165     5.14     1180.031     63.91231     125.5341         8     1.152     0.648  76.82   0
       147    905.5394    720.2368 307.5446978  +6.3987608     1092.936     2182.395     1931.793      90.8904     181.4209     362.5535      2.129     5.84     1178.227     63.91231     146.2512        14     1.429     0.815  55.71   0
       148     61.7557    710.8555 307.8955713  +6.3742477     1377.516     3463.009     4412.696      90.8904     181.3488     362.6256      2.640     9.56     1196.702     63.91231     152.3677        30     1.947     1.309  64.14   0
       149    862.3636    711.3887 307.5629298  +6.4009660     1089.133      1832.85     1484.094     90.31332     181.1325     362.2289      1.788     6.21     1178.479     63.91231     135.0425        11     1.096     0.990  54.67   0
       150    125.9708    709.9740 307.8689232  +6.3767800      648.045     1738.255     1918.101     90.31332     181.1325     362.4453      2.748     4.99     1195.747     63.91231     88.65198         8     0.992     0.711 -89.42   0
       151    674.1760    699.2027 307.6415228  +6.3996827     3953.321     8555.305     9440.563     90.45793     180.9881     362.3732      2.270     5.54     1182.555     63.91231     414.4601        46     1.963     1.442  52.97   0
       152    621.5894    698.5392 307.6633935  +6.3981903     890.3391     1968.029     2716.886     90.16846     181.2046      362.265      2.651     7.41     1183.138     63.91231     126.4579        11     1.393     1.103  13.91   0
       153    139.0000    695.9884 307.8639771  +6.3829919     1671.334     2847.782     2984.602     90.31332     180.9159     362.3371      1.719     8.94     1194.557     63.91231     212.5061        18     1.742     1.282  84.84   3
       154    136.6510    695.0138 307.8649856  +6.3833148     1562.474      3458.91     3617.607     90.16846     181.3488     362.3011      2.199     6.73     1194.552     63.91231     214.6548        15     1.682     0.755 -89.56   3
       155   1011.0291    694.3044 307.5017262  +6.4129959     2049.034     3627.449     3739.638      91.0341     181.0603     362.5535      1.873     4.52     1174.451     63.91231     260.2467        23     1.516     0.984  48.69   0
       156    790.9141    691.2712 307.5932831  +6.4068737     13057.85     27739.72     31602.68      91.0341     181.6369     362.6256      2.282     5.08     1178.749     63.91231     1463.313        69     2.032     1.526  56.64   0
       157    648.0249    694.4675 307.6525453  +6.4007588     1347.828     3137.138      3830.58     90.45793     181.2046     362.4814      2.385     8.17     1182.499     63.91231     181.0974        26     1.709     1.404  11.01   0
       158    921.0380    690.8612 307.5392312  +6.4114042      2615.42     5402.114     5843.612      90.8904     181.4209     362.5896      2.197     4.94     1175.862     63.91231     365.1404        33     1.789     1.175  50.78   0
       159    489.7010    690.9676 307.7184417  +6.3968816     850.5164      1827.66     1966.573      90.8904     181.2046     362.7337      2.261     6.82      1187.43     63.91231     118.2593        11     1.233     1.058 -72.39   0
       160    264.5772    685.1943 307.8121655  +6.3916830     3482.607     8481.176     9862.625     90.31332     181.0603     362.4093      2.462     6.48     1193.335     63.91231     324.2644        50     2.067     1.538  59.26   0
       161    671.6678    684.1222 307.6430656  +6.4058226     4288.921     9539.021     10940.22      91.0341     181.4209     362.5535      2.336     5.38     1181.603     63.91231     462.7056        49     1.864     1.525  52.17   0
       162    931.8746    677.6829 307.5351650  +6.4172063     757.8524     1186.156     1401.688      91.0341     181.7089     362.6617      2.057     5.71     1174.569     63.91231     112.1901         8     1.140     0.805  37.04   0
       163    743.4489    672.7947 307.6136173  +6.4129072     2339.754     4997.002     6174.834     90.16846     181.1325     362.2289      2.337     5.79     1178.992     63.91231     273.8838        33     1.739     1.314  76.40   0
       164   1009.3878    668.9060 307.5032486  +6.4234238      6885.96     12603.85     13957.96     90.60232     181.0603     362.3732      1.993     4.54     1173.289     63.91231     800.0477        41     1.786     1.182  57.99   0
       165    948.0062    669.4420 307.5287352  +6.4211478     1950.231     3685.468     3915.811     90.16846     180.9881      362.265      2.002     4.97     1173.825     63.91231     254.0911        22     1.541     1.010  60.85   0
       166     28.9294    668.7346 307.9106160  +6.3905222     1242.188     2919.469     3427.679      90.8904     181.4209     362.5896      2.415     8.02     1194.854     63.91231      171.075        19     1.579     1.139  57.83   0
       167     87.0360    664.1660 307.8866281  +6.3943707     14269.72     34492.96     39581.89     90.60232     181.0603     362.3011      2.440     6.35     1194.499     63.91231      1418.16        80     2.205     1.653  57.85   0
       168    548.4617    664.7013 307.6949012  +6.4096985     1244.831     2562.836     3038.381     90.60232     181.4209     362.7337      2.074     7.32     1184.396     63.91231     120.8395        19     1.581     0.949  42.02   0
       169    516.6489    661.7820 307.7082160  +6.4098336     702.1796     1384.437     1865.948     90.31332     181.4209     362.3732      1.933     3.91     1184.889     63.91231     99.03577         6     1.060     0.413 -75.84   0
       170    937.5737    659.9708 307.5333835  +6.4247075     705.0818     1274.508     1017.347     90.31332     181.1325     362.4093      1.413     4.46     1173.397     63.91231      95.9845         6     1.566     0.361  17.22   0
       171    733.0785    656.2378 307.6184755  +6.4193927     2089.234     4467.003     4726.511     90.74648     181.4209     362.5896      2.222     5.95     1178.032     63.91231     259.2944        30     1.725     1.274  61.06   0
       172    754.8937    654.2646 307.6094768  +6.4209391     2435.342     5251.542     5838.083     90.74648      181.493     362.6256      2.244     5.43     1177.343     63.91231     256.8694        35     1.755     1.289  55.30   0
       173    586.4262    652.1204 307.6795455  +6.4161671     1817.814     4517.278     4759.955     90.74648     181.2046     362.5896      2.450     7.04     1181.384     63.91231     183.7147        35     1.747     1.558  56.71   0
       174    247.6498    652.1601 307.8202996  +6.4047460     1169.312      2492.66      2796.46      90.8904     181.3488     362.5175      2.227     8.27     1191.409     63.91231     124.2482        21     1.728     1.107  75.12   0
       175    422.1635    652.0558 307.7477967  +6.4106687      798.173      1673.46      2194.14     90.74648     181.3488     362.6256      2.329     6.70     1188.485     63.91231     109.4745        10     1.539     0.819 -82.58   0
       176    993.1115    649.1804 307.5106643  +6.4310205     5845.924     11448.05     12663.11     90.60232     181.0603     362.4814      2.097     4.60     1171.714     63.91231     815.0249        44     1.811     1.340  57.04   0
       177    330.3614    650.6015 307.7859871  +6.4081772     838.0538     1582.012     1827.482     89.87807     181.0603     362.3011      2.199     6.68      1190.68     63.91231     104.4241        12     1.293     0.967 -37.23   0
       178    151.7345    643.0553 307.8604532  +6.4052678      12869.1      31793.3     36995.37      91.0341     181.2767     362.5896      2.476     6.50     1191.872     63.91231     1268.565        74     2.225     1.616  55.86   0
       179    438.8777    643.6807 307.7411310  +6.4146879     1592.274     3683.844     4523.346     91.17757     181.6369     362.7698      2.407     7.32     1187.025     63.91231     210.0001        27     1.596     1.418  87.27   0
       180    819.5980    642.8339 307.5829710  +6.4278271     653.4243     1302.885     1030.862     89.87807     181.1325     362.3732      2.129     6.11     1175.372     63.91231     80.58691         7     1.572     0.668 -65.74   0
       181    988.1594    632.3615 307.5132786  +6.4377965     5040.522     10183.83     11702.25     90.60232     181.4209     362.4453      2.191     5.10     1170.395     63.91231     677.2502        46     1.966     1.339  47.46   0
       182    581.6288    627.6628 307.6823516  +6.4261001     26828.71     63973.22     74394.01     90.60232     181.3488     362.5175      2.470     5.81     1180.207     63.91231     2788.958        87     2.188     1.681  55.39   0
       183    189.5226    624.4305 307.8453748  +6.4142297     1593.203     3776.548     4486.633     90.74648     181.4209     362.5896      2.473     8.44       1191.4     63.91231     161.0865        28     1.651     1.375  58.13   0
       184     83.6334    619.4973 307.8895336  +6.4126910     712.7768     1461.515     2380.583      90.8904     181.2046     362.7337      2.174     3.48     1192.085     63.91231     104.0492         5     1.101     0.318 -69.89   0
       185    478.9136    611.5251 307.7255663  +6.4293065     33925.43     83224.95     98131.12      91.0341     181.7089     362.6617      2.518     6.01     1183.217     63.91231     3310.452       101     2.249     1.765  57.67   0
       186    152.5122    604.0787 307.8614310  +6.4213802     761.2289     1197.147      2277.21     90.60232     181.6369     362.7337      1.979     3.38     1191.023     63.91231     135.6481         5     0.766     0.611  10.54   0
       187    324.7005    600.9590 307.7899931  +6.4284748     1279.472     3099.589     3578.179      90.8904     181.2046     362.8418      2.483     9.25     1187.044     63.91231     145.3837        26     1.823     1.310  58.99   0
       188     22.9424    613.4804 307.9149498  +6.4131237     1071.145     2494.397     2676.769      90.8904     181.3488     362.5896      2.262     8.50      1193.03     63.91231     141.6262        19     1.735     1.361  57.27   0
       189    751.1640    595.0500 307.6129911  +6.4452536     3127.301     7191.556     7672.875     90.74648     181.3488     362.5175      2.283     5.67     1173.799     63.91231     359.3994        46     1.900     1.536  50.18   0
       190    804.4847    590.2375 307.5909948  +6.4490285     8958.342     18786.32     21173.48      90.8904     181.3488     362.5535      2.246     4.84     1172.862     63.91231      1070.62        62     1.985     1.514  55.18   0
       191    627.9991    588.2403 307.6643943  +6.4439289     1289.025     3708.168     4012.856     90.02338     181.0603     362.3011      2.620     7.87     1176.003     63.91231     152.3174        22     1.817     0.953 -73.92   2
       192    546.4719    589.5851 307.6982253  +6.4406338     704.4515     1880.727     1734.727     90.31332     181.2046     362.4453      2.089     4.97     1179.562     63.91231     124.1373         6     1.470     0.475 -83.66   0
       193    946.0983    585.1315 307.5323197  +6.4558817     883.5656      1795.97     2743.273      90.8904      181.493     362.6256      2.541     7.45     1168.244     63.91231     118.7212        13     1.386     1.122 -78.94   0
       194    880.5394    572.9648 307.5599645  +6.4587071     1724.134     3726.041     3872.712      90.8904     181.3488     362.5535      2.097     5.38     1170.545     63.91231     235.3309        30     1.708     1.290  69.59   0
       195    839.5180    571.4957 307.5770589  +6.4579385     1750.032     3417.871     3867.865     90.74648     181.7089     362.7337      2.070     5.23     1171.628     63.91231     254.6105        25     1.609     1.213  63.93   0
       196    810.2222    566.8032 307.5893878  +6.4588929     1500.359     3591.083     4833.074     90.45793     180.9881     362.3371      2.806     7.55     1171.793     63.91231     182.3676        28     1.585     1.381  49.68   0
       197    267.5602    566.0355 307.8148988  +6.4409623     3960.208     9827.437     10828.16     90.60232     181.2046     362.3732      2.434     6.31     1186.181     63.91231     382.8799        49     1.962     1.551  65.09   0
       198    819.8275    562.0939 307.5855527  +6.4611587     97501.57     212474.9     243452.9      91.0341     181.0603     362.4453      2.328     5.21     1171.497     63.91231     10451.25       123     2.152     1.664  56.70   0
       199    201.5804    560.6180 307.8424940  +6.4409728      29326.7     76723.53     93193.04     90.60232     181.1325     362.5175      2.616     6.53     1187.694     63.91231     2838.894       110     2.343     1.823  55.31   0
       200    448.8647    563.4647 307.7396511  +6.4481309      2420.67     2551.444     2161.931      90.8904     181.3488     362.6256      0.701    -0.00     1181.044     63.91231     1261.214         6     0.605     0.386 -64.91   0
       201    125.6196    556.9441 307.8741780  +6.4399253     3104.184     8133.119     9523.435     90.31332     181.3488     362.3732      2.558     7.30     1189.219     63.91231     306.3107        49     2.024     1.633  57.40   0
       202    990.9029    553.7480 307.5147407  +6.4703348      952.888     1939.461     1912.717     90.74648     181.3488     362.8418      2.064     5.45     1163.961     63.91231     160.7375        12     1.347     0.773  80.93   0
       203    856.4277    549.6086 307.5707579  +6.4675388     2953.135     6116.457      6542.23     90.45793     181.1325     362.4093      2.133     4.97     1170.845     63.91231     363.4354        34     1.661     1.317  65.76   0
       204    374.9311    547.7089 307.7708961  +6.4521444     8523.935     21846.58     25903.12      90.8904      181.493     362.5896      2.579     6.48      1182.33     63.91231      826.481        69     2.222     1.685  57.08   0
       205    178.3782    547.7610 307.8525635  +6.4454961     917.8364     2177.116     3594.081     90.45793     181.0603     362.3371      3.341     6.07     1187.627     63.91231     151.5096        13     1.311     1.156 -34.70   2
       206    810.4291    542.8987 307.5900946  +6.4687660     3795.491      7808.62     8770.785      90.8904     181.0603     362.5896      2.260     5.33     1170.737     63.91231     445.8226        42     1.868     1.344  59.00   0
       207    541.3502    542.5952 307.7019158  +6.4598555     3388.483     8476.297     9962.002     90.16846     181.1325     362.1567      2.525     6.32     1176.253     63.91231     337.2509        50     1.987     1.613  69.81   0
       208    188.5680    535.9611 307.8487234  +6.4507100     3117.411     8069.355     9267.204     90.45793     181.1325     362.3732      2.508     6.87     1186.337     63.91231      324.762        49     2.078     1.555  61.35   0
       209    586.4045    535.3926 307.6834339  +6.4643428     1332.646     3296.864     4135.994     90.16846     180.9881     362.4093      2.486     8.63     1173.669     63.91231     137.8502        28     1.778     1.330  42.87   0
       210     60.0737    534.7131 307.9021545  +6.4468863     2568.085     6564.986     7822.681      91.0341     181.7089     362.5896      2.506     7.80      1189.35     63.91231     292.1162        37     1.897     1.437  68.70   0
       211    826.5444    535.5246 307.5836426  +6.4723499     762.9804     1418.215     1448.702     90.74648     181.2768     362.5535      1.901     4.85     1170.163     63.91231     109.4211         7     0.991     0.671 -45.67   0
       212    983.0844    526.3066 307.5188981  +6.4813991     1116.162     1785.938     1763.228     90.60232     181.8527     362.7337      1.657     4.84     1162.195     63.91231      176.198        13     1.229     0.982  89.62   0
       213    806.5880    524.4966 307.5923010  +6.4762323     9810.735     21354.92     24678.46     90.60232     181.0603     362.3732      2.337     5.27     1169.545     63.91231     1166.179        64     2.071     1.548  58.53   0
       214    510.2755    522.9984 307.7154800  +6.4668985     21223.15     55090.33     68305.07     90.16846      180.699     362.4453      2.671     6.24     1175.546     63.91231     2130.243       104     2.325     1.879  51.25   0
       215    267.6657    526.5087 307.8161729  +6.4572792     848.9653     1984.791     3064.845     90.74648      181.565     362.5896      2.701     7.38     1183.092     63.91231     128.0833        13     1.773     0.860  50.18   0
       216    670.1003    517.9562 307.6492346  +6.4743512     1657.077     3790.982     4528.951      90.8904     181.2046     362.8418      2.411     8.54     1172.031     63.91231     185.6411        31     2.044     1.366  50.24   0
       217    283.5937    532.2763 307.8093623  +6.4554358     41990.52     112095.1     134890.5     90.45793     180.7713     362.4093      2.635     6.59     1183.181     63.91231     3833.064       111     2.304     1.840  57.56   0
       218    222.3456    519.0808 307.8352517  +6.4588163     825.8372     1999.495     2580.858      90.8904     181.3488     362.6617      2.456     7.23     1183.774     63.91231     110.5785        12     1.506     0.973 -20.57   2
       219    407.5949    513.1766 307.7584736  +6.4674965     764.8475     1996.082     2103.803     90.31332     181.0603     362.4093      2.736     6.35     1177.715     63.91231     108.8895         7     1.411     0.802 -53.78   2
       220    339.6271    512.1600 307.7867498  +6.4656267     1820.448     5060.344     5656.925     90.45793     181.1325     362.4093      2.559     9.94     1179.357     63.91231     210.2592        39     1.975     1.506  86.09   0
       221    154.6545    510.7241 307.8636570  +6.4599810     13051.51     34426.23     42045.05      90.8904     181.3488     362.5896      2.626     6.71     1185.767     63.91231     1202.506        85     2.314     1.740  59.73   0
       222    519.3649    511.5157 307.7120850  +6.4719433     1161.627     2731.474     3037.226      90.8904     181.2768     362.5535      2.395     8.01     1174.408     63.91231     128.8954        19     1.539     1.164 -87.06   0
       223    882.6053    509.9264 307.5611951  +6.4847943     939.4456     2059.645     2647.475     90.45793     180.8436     362.4814      2.505     7.83     1166.495     63.91231     137.4545        13     1.532     1.219 -84.65   0
       224    120.2689    509.1375 307.8779976  +6.4594748     1456.446      3484.26     3641.344      90.8904     181.3488     362.6617      2.310     8.26     1187.274     63.91231     162.4348        29     1.657     1.465  83.81   0
       225      1.2975    509.5266 307.9274177  +6.4552944     724.8745     1033.387     1010.175     78.38057     143.6194     272.1434      1.849     4.48     1189.976     63.91231     117.4436         7     1.401     0.408 -81.11  24
       226    980.2238    504.9738 307.5207931  +6.4901081     3500.628     7048.206     7790.279     90.31332     181.2046     362.4814      2.175     4.97     1160.822     63.91231     423.9033        38     1.827     1.239  56.10   0
       227    552.7726    498.0345 307.6986511  +6.4786308     579.9131     1397.524     1897.526     90.31332     181.0603     362.3371      2.316     3.79     1172.473     63.91231      83.2218         5     1.484     0.278 -77.55   0
       228     19.0428    495.1540 307.9205250  +6.4618260     13114.22     33088.03     39147.14      90.8904     181.3488     362.5175      2.517     6.68     1189.658     63.91231     1354.791        79     2.242     1.661  60.81   0
       229    451.6355    491.6943 307.7408885  +6.4778453     20790.38     53795.48     64469.82      91.0341     181.2046     362.6977      2.609     6.40     1174.335     63.91231       2025.4        92     2.270     1.808  57.33   0
       230    659.5573    491.3747 307.6544986  +6.4849680     6308.646     15064.58     17319.34     90.45793     181.2768     362.4093      2.462     5.86     1171.112     63.91231     694.5396        61     2.096     1.616  53.81   0
       231      2.5339    489.6404 307.9275688  +6.4635434     104416.6     198013.6     214161.6      90.8904     162.9751     294.5186      2.031     7.14     1190.017     63.91231     9887.559        81     2.069     1.270  83.14  24
       232    216.8903    489.4177 307.8385081  +6.4708746     9333.942     25000.48     30968.73     90.60232     181.0603     362.4814      2.687     6.79     1181.681     63.91231     900.8207        79     2.354     1.748  56.06   0
       233    182.0690    489.7465 307.8529661  +6.4695640     841.3831      1881.85     2357.762     90.74648     181.2767     362.4814      2.259     4.99     1183.084     63.91231      140.343         9     1.316     0.625 -66.54   0
       234    993.6565    489.7314 307.5157156  +6.4968488     808.7911     1820.451      2079.87      91.0341     181.2768     362.5175      2.353     4.94     1159.052     63.91231     119.4746         7     1.034     0.668  16.32   0
       235    581.2444    488.1914 307.6871471  +6.4836505     1321.806     3501.056      4415.94     90.31332     181.2046     362.3011      2.664     8.29     1171.403     63.91231     149.0802        23     1.898     1.013 -87.29   2
       236    955.2076    485.1292 307.5318460  +6.4974610     3111.522     6582.578     7565.079     90.31332     180.9159     362.4814      2.279     5.04     1160.653     63.91231      422.604        37     1.814     1.280  52.32   0
       237    628.4791    483.7663 307.6676659  +6.4870642     3606.493     8707.612        10082     90.74648     181.3488     362.5896      2.479     6.24     1170.904     63.91231     376.5031        48     2.006     1.496  69.76   0
       238    977.6608    477.1164 307.5227806  +6.5015199     2313.604     4536.352     5226.633      91.0341     181.4209     362.6256      2.166     6.02     1158.947     63.91231     265.7344        30     1.850     1.090  58.31   0
       239    540.5210    475.0491 307.7045066  +6.4877055     3716.775     9652.639     11298.56      90.8904     181.4209     362.5896      2.628     6.55     1170.895     63.91231     388.4506        60     2.173     1.726  56.18   0
       240    386.8725    474.7057 307.7683657  +6.4826763     1276.265     3331.893     3743.099     90.74648     181.4209     362.6256      2.597     8.25     1174.117     63.91231     155.9624        26     1.714     1.424 -86.44   0
       241    897.2585    471.0183 307.5563951  +6.5013439     2084.425     4282.083     5066.628     90.45793     181.2046     362.3011      2.147     5.57     1162.669     63.91231     264.0974        31     1.739     1.288  73.52   0
       242    904.6843    465.0086 307.5535084  +6.5040731      1309.49      2850.79     2591.449     90.45793     180.9881     362.4093      2.184     6.65     1161.829     63.91231     170.2047        19     1.300     1.146  52.86   0
       243    943.9683    463.4966 307.5372332  +6.5060130      781.599     1700.309     1939.498      91.0341     181.1325     362.6977      2.399     6.14     1159.783     63.91231     115.9578         9     1.330     0.797 -55.39   0
       244    728.7657    461.1901 307.6267409  +6.4997497     1682.915     3927.278     4969.993     90.31332     181.1325     362.4093      2.468     6.63     1166.261     63.91231     194.1711        29     1.678     1.279  88.52   0
       245    399.3542    459.4838 307.7636860  +6.4893790       1746.9     4639.988     5775.314      90.8904     181.3488     362.6256      3.107     8.45      1172.41     63.91231     190.9575        42     2.178     1.452  53.92   0
       246    627.0127    455.8318 307.6692034  +6.4985442     5324.352     12944.44     15191.83     90.31332     181.0603     362.5175      2.478     5.90     1168.623     63.91231     530.5433        63     2.172     1.653  55.69   0
       247    789.7983    452.2403 307.6016748  +6.5054915     9361.373     21491.21     26664.75     90.02338     181.0603     362.3371      2.484     5.52     1164.848     63.91231     1117.742        75     2.106     1.814  72.85   0
       248    308.9858    452.0656 307.8014851  +6.4893960     1281.933     3237.889     4166.893     90.31332     181.2046     362.5175      2.643     7.38     1174.552     63.91231     171.5707        21     1.678     1.119 -80.78   2
       249    975.4780    447.5852 307.5246655  +6.5136353     1285.807     2643.807     2238.951     90.45793     181.0603     362.4093      2.058     7.39     1157.227     63.91231      169.583        19     1.653     1.223  89.67   0
       250     90.5642    459.7380 307.8919903  +6.4788592     1038.828     2472.833     2811.274      90.8904     181.3488     362.5535      2.514     8.12     1186.074     63.91231      139.079        15     1.582     1.164  57.25   0
       251    818.3990    449.2972 307.5898868  +6.5076654     816.1918     1356.104     1648.577     90.31332     180.9159     362.1928      1.865     4.63     1163.962     63.91231     110.1475         7     0.890     0.683 -18.75   0
       252    127.5188    444.7149 307.8771365  +6.4863075     2168.631     5856.876     7065.091     90.60232     181.7089     362.6617      2.616     7.88     1182.932     63.91231     229.8621        40     1.937     1.537  68.14   0
       253    764.8445    442.7415 307.6123600  +6.5085747     1326.198       3118.4     4278.985     90.74648     181.2767     362.7337      2.813     8.30     1164.295     63.91231     203.1029        19     2.054     0.936  76.95   2
       254    362.5140    439.0687 307.7796748  +6.4965638     1414.738     3651.168     4361.286      91.0341     181.6369     362.6256      2.716     8.68     1171.766     63.91231     157.8457        26     2.131     0.988  78.32   2
       255    285.9756    440.3963 307.8114358  +6.4934364     535.8008     1572.073     2410.025     90.45793     180.9881     362.4093      2.072     3.45     1174.385     63.91231     92.40625         5     1.769     0.194  35.50   0
       256    719.1606    436.7895 307.6315424  +6.5094981     1066.001     1988.138     2624.093     90.16846     181.1325     362.3011      2.058     6.24     1164.548     63.91231      148.069        13     1.180     0.929  64.15   0
       257    845.5441    427.3456 307.5793339  +6.5176356     838.5311     1800.565     2133.824      91.0341     181.4209     362.5896      2.487     6.66      1161.14     63.91231     103.6783        10     1.258     0.988  58.34   0
       258    728.1618    424.1369 307.6282218  +6.5150223     8323.331     19575.85     23203.18      90.8904     181.2767     362.6617      2.473     5.72     1163.146     63.91231     867.9192        69     2.205     1.612  55.67   0
       259    482.7278    427.6934 307.7300982  +6.5053061     794.8289     1724.016     1599.232     90.74648     181.4209     362.6617      2.209     6.23     1167.744     63.91231      98.5177        10     1.315     0.829  18.08   0
       260    831.1814    425.9541 307.5853489  +6.5177284     1063.124     2581.538      2655.66     90.45793     181.2046     362.3011      2.420     7.01     1161.636     63.91231     125.5277        17     1.493     1.068  60.77   0
       261    649.4771    420.6574 307.6610367  +6.5138162     1506.292     3751.072     4453.733      90.8904     181.2768     362.5175      2.658     9.11     1164.977     63.91231     156.5681        30     1.837     1.437  42.97   0
       262    621.7382    415.3345 307.6727411  +6.5150812      7931.23     21444.38      28918.5      90.8904     181.3488     362.5896      2.867     7.43     1165.167     63.91231     797.5065        92     2.814     1.751  41.67   0
       263    953.5049    414.0122 307.5349090  +6.5267562     2513.469     5261.497     5283.575     90.60232     181.0603     362.3371      2.194     5.31     1156.105     63.91231     377.5381        30     1.687     1.231  60.89   0
       264    392.6498    410.1660 307.7681146  +6.5095076      13459.3        36819     44598.99     90.74648     181.3488     362.5175      2.682     6.77     1168.401     63.91231     1301.082        87     2.300     1.828  57.02   0
       265    908.8309    410.2729 307.5535988  +6.5268031     838.4769     2017.414     2855.678     90.74648     181.3488     362.5896      3.030     6.20     1157.788     63.91231     142.1655        11     1.369     0.789  46.56   2
       266    139.1872    409.5382 307.8734625  +6.5012192     1185.415     3068.287     3834.111     90.31332     181.1325      362.265      2.616     8.94      1180.14     63.91231     129.6991        24     1.835     1.215  45.31   0
       267    922.1538    404.3669 307.5482577  +6.5296871     2977.024     6111.859     6908.523     90.60232     181.3488     362.5175      2.189     5.20     1157.014     63.91231       431.05        37     1.891     1.299  52.73   0
       268     72.7196    405.8577 307.9012054  +6.5004931      807.889     1958.783     2099.551      90.8904     181.3488     362.5896      2.441     6.20     1182.658     63.91231     117.5135         8     1.459     0.740  39.94   0
       269    250.2923    400.7541 307.8275861  +6.5085940     6394.271      17588.6     21510.35      90.8904     181.2767     362.7337      2.709     6.91     1173.719     63.91231      584.942        69     2.283     1.735  57.38   0
       270    973.5921    392.9966 307.5272569  +6.5361026     611.1778     1400.495     1532.966     90.16846     180.9881     362.4453      1.977     3.91     1153.677     63.91231     74.74255         5     0.892     0.491  89.21   0
       271    150.7516    389.6473 307.8693211  +6.5098188      2328.35      6367.29     7478.642      90.8904     181.2046     362.6256      2.611     8.01     1178.652     63.91231     256.3503        43     1.997     1.583  66.01   0
       272    173.7964    386.0363 307.8598653  +6.5120870     1175.318     3281.258     4732.862     89.87807     181.2046     362.3732      3.091     8.65     1177.181     63.91231     145.4929        19     1.778     1.177 -28.09   2
       273    394.6425    380.3720 307.7682789  +6.5218712      746.389     2195.653     2726.931     90.45793     181.3488     362.4453      2.727     7.14      1165.82     63.91231     125.3429         8     1.996     0.716  33.50   2
       274    984.1702    378.6409 307.5233360  +6.5423819     686.7742     1474.658     2227.718     90.45793     181.2046     362.4453      2.018     3.62     1152.188     63.91231     108.5521         5     1.196     0.316  79.82   0
       275    449.9331    373.5249 307.7455296  +6.5265588     3556.263     9273.215     11279.55      91.0341      181.493     362.5535      2.654     6.90     1163.198     63.91231      380.171        53     1.998     1.703  75.10   0
       276     46.7003    374.7586 307.9130569  +6.5124486     1712.775     4154.587     5161.462      90.8904     181.2046     362.8418      2.509     7.27     1182.543     63.91231     175.6426        33     1.687     1.504  74.79   0
       277    790.2601    370.7510 307.6041864  +6.5391399      7416.71      16985.6     20457.26      90.8904     181.2768     362.6617      2.473     5.62     1158.957     63.91231      837.697        70     2.127     1.727  46.71   2
       278    781.9771    372.6146 307.6075669  +6.5380928      1137.77     2555.848     2974.816     90.60232     181.1325     362.4814      2.551     8.84      1159.17     63.91231     164.6403        20     1.952     1.119  75.42   2
       279    355.0283    368.8365 307.7851257  +6.5252976     624.0245     1378.916     2106.385     90.45793     181.0603     362.3732      3.078     4.72     1166.282     63.91231      88.4165         5     0.995     0.634 -33.75   0
       280      5.8788    360.5224 307.9304962  +6.5169439     747.2864     2079.243     3740.038     91.17757     181.6369     342.8369      4.038     8.52     1183.271     63.91231      114.974        14     2.166     0.936 -43.09  16
       281    469.4151    357.8531 307.7379549  +6.5336826     1143.286     3075.437     3672.337     90.16846     181.3488      362.265      2.950     8.08     1160.703     63.91231     135.2305        16     1.809     1.008  81.66   2
       282    498.2413    356.9632 307.7260049  +6.5350199     1524.341     4099.695     4768.042     90.60232     181.3488     362.4453      2.668     8.51      1159.99     63.91231     171.1222        35     1.821     1.639  58.17   0
       283    855.7220    353.6280 307.5775483  +6.5484022     20161.79     45076.39     51824.55     90.74648     181.2768     362.5896      2.373     5.10     1156.657     63.91231     2325.229        80     2.135     1.616  61.35   0
       284    627.6761    345.7984 307.6725843  +6.5439799     1187.365     3271.778     3884.681     90.16846      180.699     362.4093      2.599     9.25     1158.348     63.91231     166.1362        23     1.695     1.458  86.41   0
       285    712.1447    339.6411 307.6376837  +6.5493582     43075.61     103341.4     122020.3     90.74648     181.3488     362.6256      2.504     5.70     1157.261     63.91231      4422.42       102     2.217     1.754  57.14   0
       286    870.7805    341.9626 307.5716767  +6.5537217     822.2986      1493.41     1638.544     90.45793     181.0603     362.3371      2.093     6.14     1155.165     63.91231     127.0137         9     1.369     0.775  41.55   0
       287    574.7043    336.4500 307.6949099  +6.5460577     1400.479     3389.652     3985.345     90.74648     181.2768     362.7698      2.548     7.74     1157.824     63.91231     167.3904        25     1.707     1.262  81.68   0
       288    112.2534    335.5351 307.8871266  +6.5308513     2937.015     7734.118     8843.624      90.8904     181.2768     362.5535      2.589     7.10     1179.245     63.91231      300.678        54     2.231     1.598  60.39   0
       289    558.0164    332.7731 307.7019676  +6.5470142     3533.329     9165.615     10864.78     90.45793     181.1325     362.4814      2.601     6.56     1157.637     63.91231     379.2147        56     2.093     1.733  61.82   0
       290    287.0966    330.1115 307.8146475  +6.5389902     1195.513     3279.357     4049.383      90.8904     181.7808     362.6256      2.736     8.74     1166.988     63.91231     144.9034        27     1.918     1.561  71.68   0
       291    420.8785    327.8589 307.7591248  +6.5444277     12169.48     33154.28     40600.49      91.0341     181.3488     362.5175      2.711     6.85     1161.076     63.91231     1157.312        85     2.329     1.839  57.31   0
       292    510.0261    318.2608 307.7223951  +6.5513896     4001.305     10841.83     13051.74     90.45793     181.3488     362.4453      2.663     6.89     1156.471     63.91231     430.4028        62     2.191     1.732  64.02   0
       293    779.4009    317.0298 307.6104821  +6.5609477     1849.639     4173.821     4793.796     90.16846     181.1325     362.3732      2.478     5.97     1155.126     63.91231     236.3694        30     1.716     1.384  61.85   0
       294    934.4382    316.2703 307.5460711  +6.5664587     680.6349     1118.635     1585.164     90.74648     181.3488     362.6617      1.950     4.09     1149.811     63.91231     94.41711         7     1.016     0.470 -79.84   0
       295    400.0442    302.6725 307.7686223  +6.5541210     3462.678     9573.448     11337.88     90.74648     181.4209     362.6256      2.653     6.95     1160.775     63.91231     354.6459        53     2.042     1.669  68.99   0
       296    257.4533    303.4119 307.8278572  +6.5490098     914.5282     2475.744     2940.668     90.16846     181.2768      362.265      2.580     8.72     1167.265     63.91231     112.1058        16     1.703     1.246 -75.36   2
       297    767.6379    298.1898 307.6159963  +6.5683288     29372.61     70056.78     82465.81     90.16846     181.1325      362.265      2.469     5.60     1153.713     63.91231     3410.613        95     2.205     1.720  56.61   0
       298    438.2622    298.5571 307.7528760  +6.5571064     824.9534     2571.698     3368.613      90.8904     181.2768     362.6977      2.869     8.11       1158.1     63.91231     146.0636        12     2.424     0.758  64.34   2
       299   1002.6984    295.1794 307.5183990  +6.5774492     1199.273     2281.344     1857.962     90.74648     181.1325     362.3371      1.963     5.77     1145.661     63.91231     151.9175        16     1.459     0.889  54.44   0
       300    943.3776    294.2499 307.5430853  +6.5758465     1495.615     2945.688     3045.666     90.31332     181.4209     362.4814      2.092     5.70     1147.422     63.91231     208.7175        22     1.541     1.058  65.50   0
       301    425.2234    292.7759 307.7584874  +6.5590534     829.4089     1976.293     2159.763     90.31332     181.1325     362.5175      2.532     7.10     1158.686     63.91231     109.8633         7     1.823     0.775  75.05   2
       302    846.7579    288.6539 307.5834286  +6.5749183     712.6915     1376.234     1778.619      90.8904     181.3488     362.5896      1.971     5.46     1151.237     63.91231     109.4725         7     1.228     0.684  88.35   0
       303    766.2351    282.7944 307.6170903  +6.5746358     3285.422     8149.421     10037.35     90.02338     181.0603     362.3371      2.598     5.97     1152.543     63.91231     339.5345        50     2.004     1.548  49.57   0
       304    203.0307    284.4055 307.8511089  +6.5550178     1055.065     2623.275     3092.191     90.16846     181.1325     362.3371      2.468     7.56     1169.882     63.91231     136.1713        17     1.616     1.295  31.99   0
       305    782.3782    280.9028 307.6104436  +6.5759582     1432.922     3439.675     4066.906     90.74648     181.1325     362.3732      2.572     9.53     1152.367     63.91231     174.2784        25     1.828     1.385  65.88   0
       306    373.0000    276.5253 307.7807330  +6.5640013     906.1879      2095.53     2499.715     90.02338     180.6266     362.3371      2.777     5.52      1160.82     63.91231     125.0972         8     1.244     0.691  58.51   2
       307    370.2496    276.9216 307.7818628  +6.5637451     611.0435     1352.869      2245.82      90.8904     181.4209     362.5535      2.542     3.90     1161.007     63.91231     107.9877         5     0.834     0.522  57.00   3
       308   1020.7426    271.4965 307.5116834  +6.5878279     4086.657     8043.562     8868.959     90.74648     180.6266     322.0369      2.112     5.02     1143.612     63.91231     522.3613        41     1.897     1.240  55.92  24
       309    498.8616    271.1987 307.7286012  +6.5704373     1050.237     2904.656     3699.212     90.16846     181.1325      362.265      2.688     9.88     1152.388     63.91231     157.5789        22     1.816     1.498  44.13   0
       310    261.5737    267.3545 307.8273477  +6.5640300     2759.249     7703.825      9575.87     90.31332     181.4209     362.4814      2.766     7.73     1166.136     63.91231     259.4183        57     2.241     1.755  55.95   0
       311    396.4006    258.9457 307.7715933  +6.5720449     844.3785      2023.14     1730.173     90.02338     180.9881     362.1567      2.153     7.90     1158.031     63.91231     91.64624        15     1.543     1.132  -9.78   0
       312    981.7744    256.2555 307.5283849  +6.5928138     597.0551     1343.859     1462.449     90.45793     181.3488     362.3732      2.685     5.51     1143.673     63.91231     108.0784         8     1.958     0.438  75.67   0
       313    166.1162    255.1178 307.8674281  +6.5658589     958.0078     2328.172     2874.192     90.60232     181.6369     362.6617      2.568     8.74     1172.977     63.91231     128.3702        15     1.489     1.431   5.60   2
       314    918.3659    248.5805 307.5549944  +6.5938577     983.6809     2253.531     3171.196     90.31332     181.1325     362.3732      2.747     7.27     1145.261     63.91231     140.6343        14     1.564     0.947  70.80   0
       315    738.5342    246.8617 307.6297964  +6.5885364      2727.36     6624.499     8351.827      90.8904     181.2767     362.5896      2.620     6.29     1149.874     63.91231      324.481        47     2.022     1.497  55.55   0
       316    573.7930    248.4211 307.6982160  +6.5823584     864.1718     2254.601     2853.847     90.45793     181.1325     362.3732      2.872     6.17     1149.862     63.91231     118.8887        11     1.427     0.750 -85.22   2
       317    679.4402    247.2441 307.6543451  +6.5863944      1083.71     2867.214     3117.563     90.60232     181.3488     362.4453      2.514     8.38     1149.886     63.91231     116.2374        21     1.692     1.159 -69.24   0
       318    934.8327    240.2546 307.5484260  +6.5978457     832.2854     1323.017     1210.537     90.74648     181.2768     362.5175      1.745     6.03      1143.82     63.91231     119.8945        10     1.197     0.854  50.32   0
       319    238.4966    232.4739 307.8381024  +6.5776471     1038.809     2775.274     3340.124     90.60232      181.493     362.6256      2.655     8.85     1167.207     63.91231     137.1562        19     1.574     1.391  54.68   0
       320    880.9356    231.4409 307.5711202  +6.5996774      1121.96     2170.998     2380.216      90.8904     181.2767     362.6977      2.074     6.95      1146.49     63.91231     162.9094        18     1.471     1.266  56.33   0
       321    770.5598    230.3329 307.6170341  +6.5964331     1051.952     2079.168     2459.757     90.74648     181.2768     362.6977      2.238     6.08     1148.327     63.91231      117.439        13     1.329     0.783  82.24   0
       322    472.0973    222.1209 307.7413586  +6.5897919      10837.1     29149.19     36661.15     90.60232     181.6369     362.6256      2.719     6.76     1149.113     63.91231     1109.693        84     2.243     1.975  64.27   0
       323    797.8607    221.1813 307.6059903  +6.6011261     7583.504     18001.39     22474.31     90.45793     181.2767     362.4093      2.567     5.63     1147.465     63.91231     894.9163        74     2.205     1.720  52.41   0
       324    161.9117    215.6355 307.8704939  +6.5820116     968.4717     2682.255     3934.758      90.8904     181.2767     362.5896      3.193     8.23     1172.783     63.91231     159.4495        15     1.965     0.963  63.84   2
       325    934.4460    211.7345 307.5495318  +6.6096038     1132.592     2289.349     2187.746      90.8904     181.2768     362.5896      2.043     7.63     1142.145     63.91231     150.4148        18     1.732     0.941  60.75   0
       326    596.0319    208.0450 307.6903155  +6.5997701     2253.531     5672.884     6597.042     90.60232     181.4209     362.4093      2.537     7.15     1147.368     63.91231     251.7419        43     1.993     1.563  66.70   0
       327    558.2975    208.0070 307.7060006  +6.5985170      1180.61     2528.299     2981.829     90.60232     180.9159     362.3371      2.304     7.35     1146.724     63.91231     145.2014        16     1.606     0.942 -73.87   0
       328      1.1148    209.4111 307.9375298  +6.5791467     875.3204      1166.36     881.1427     75.14522      139.651     268.5656      1.044     3.44     1183.368     63.91231     216.6156         6     1.147     0.313  86.81  24
       329    902.9326    204.3800 307.5628743  +6.6115833     7032.536      14979.6     17075.88     90.45793     181.3488     362.5175      2.283     5.19     1143.282     63.91231     776.3208        56     2.064     1.430  59.16   0
       330    956.8245    205.1015 307.5404498  +6.6130910     1735.732     3937.873     4229.076      91.0341     181.0603     362.4453      2.344     6.04     1141.225     63.91231     257.2371        31     1.834     1.295  44.67   0
       331    701.2861    202.4996 307.6467515  +6.6055951      1482.63     3546.508     4902.118      90.8904     181.9246     362.6617      2.769     7.54     1147.694     63.91231     179.4661        29     1.774     1.384  72.82   0
       332    401.6127    205.9876 307.7711913  +6.5940770     693.0925     1516.552     2093.577     90.74648     180.9881     362.5175      2.676     4.63     1153.566     63.91231     83.19348         5     1.035     0.588  15.68   0
       333     29.3887    201.3233 307.9260496  +6.5834406     12598.07     33703.77     40489.59     90.45793     180.9159     362.4093      2.611     6.88     1181.306     63.91231     1219.238        78     2.272     1.729  60.99   0
       334    989.6174    202.1301 307.5269176  +6.6154155      6307.46     13073.21     14410.97     90.31332     181.2046     362.4814      2.202     4.98     1140.276     63.91231     792.8456        51     1.984     1.345  56.86   0
       335    508.9982    198.5798 307.7268050  +6.6007495     799.5923     1888.231     2460.357     90.45793     180.9159      362.265      2.474     4.63     1146.871     63.91231      126.725         7     1.112     0.550  60.80   0
       336    841.5863    194.2147 307.5887104  +6.6137224     1229.869     2678.173      2787.73     90.74648     180.9881     362.5175      2.207     7.80     1145.018     63.91231      131.093        20     1.517     1.122  49.10   0
       337    522.1566    193.8856 307.7214921  +6.6031296     1320.776     3268.695     3164.834      90.8904     181.2046     362.5896      2.236     8.35     1146.184     63.91231     187.7271        23     1.439     1.354 -44.48   0
       338    893.4247    192.5985 307.5672169  +6.6161272     1177.218     2705.137     2873.422     90.45793     180.9881     362.3371      2.448     8.20     1143.036     63.91231     152.5996        20     1.619     1.235  44.01   0
       339    753.1697    190.3754 307.6255887  +6.6123408     21965.89     52186.73     60896.99     90.31332     181.2046     362.3732      2.461     5.88     1146.829     63.91231     2454.909        83     2.185     1.673  56.48   0
       340    356.3333    189.9523 307.7905452  +6.5991695     3239.509     9284.936     12459.75      90.8904     181.2767     362.6256      2.978     7.56     1156.994     63.91231     342.5807        69     2.445     1.774  80.21   0
       341    986.8001    189.1773 307.5285176  +6.6206671     1969.658     3943.664     4492.813     90.31332     180.9881     362.3371      2.127     5.84     1139.708     63.91231     281.1207        26     1.742     1.107  65.37   0
       342    921.0832    187.3771 307.5558934  +6.6192091     4614.622     9819.308     11612.88     90.74648     180.9881     362.5175      2.310     5.26     1141.335     63.91231     554.5289        46     1.949     1.345  50.96   0
       343   1023.8202    187.6353 307.5131807  +6.6225428     472.4775     777.1255     1015.341     76.00998     141.1406     269.7311      1.810     4.17     1138.787     63.91231     93.98254         6     1.517     0.328  82.22  24
       344    464.7506    186.5471 307.7455966  +6.6042264     2382.795     6303.276     7536.889      91.0341     181.2046     362.5896      2.670     6.58     1148.157     63.91231      274.512        45     1.926     1.585  54.93   0
       345    122.2954    178.2201 307.8882088  +6.5961152     2297.779     6282.253     7594.548     90.74648     181.1325     362.3732      2.614     7.47     1174.547     63.91231     237.6877        44     1.921     1.582  66.82   0
       346    292.4093    174.7786 307.8176200  +6.6032770     15519.49     43236.87     53043.11     90.45793     181.0603     362.3732      2.699     6.96     1166.137     63.91231     1485.468        92     2.347     1.834  60.41   0
       347    269.6635    176.3224 307.8270224  +6.6018727     2597.723     4968.011     6334.337     91.17758     181.4209     362.5896      2.119     8.14     1166.958     63.91231     277.6536        24     2.215     0.836  62.46   3
       348    266.6919    176.3174 307.8282576  +6.6017745      2365.28     5384.423      6670.97     90.60232     181.7089     362.6977      2.524     7.42      1167.02     63.91231     303.6393        30     2.180     0.994  65.57   3
       349    416.4310    170.1871 307.7662251  +6.6093515     23084.97     63610.95     78005.64     90.31332     181.1325     362.5175      2.713     6.80     1149.336     63.91231     2325.472       104     2.359     1.890  58.72   0
       350    172.7980    171.6886 307.8674370  +6.6005162     1961.085     5200.245     6401.667     90.16846     180.9159     362.3011      2.573     8.52     1170.948     63.91231     192.3315        39     2.123     1.441  62.03   0
       351    321.1048    167.9376 307.8059213  +6.6070678     8457.136     23607.36        31293     90.74648     181.4209     362.6256      2.880     7.05     1161.545     63.91231     814.4757       106     2.742     2.123  10.95   0
       352    755.6089    166.3616 307.6253721  +6.6223338     18673.58     45327.83      52550.1     90.02338     181.1325      362.265      2.457     5.70     1145.864     63.91231     2234.433        80     2.134     1.675  58.53   0
       353    803.4330    166.3933 307.6054923  +6.6239253     693.3032       1412.7     1555.539     90.16846     181.1325     362.3732      2.151     5.33     1144.365     63.91231     119.2345         7     1.422     0.565  72.29   0
       354     72.6938    163.9084 307.9093024  +6.6003456     4706.457     12481.13     14233.57      90.8904     181.9246     362.5896      2.553     6.76     1178.064     63.91231     452.8884        59     2.183     1.662  64.09   0
       355    744.2237    166.3465 307.6301050  +6.6219578      2275.83     2412.785      1407.09     90.31332     181.3488     362.3732      0.853     3.33     1146.243     63.91231     739.4473         6     0.847     0.379 -32.52   0
       356    107.3287    161.9975 307.8949713  +6.6023047     673.6003     1587.396     1478.202     90.31332     180.9159     362.4093      2.120     5.10     1175.528     63.91231     98.96851         6     1.563     0.471  15.07   0
       357   1013.7677    159.8400 307.5182796  +6.6336782     724.1299     1313.246     1455.074     90.45793     181.1325     362.4093      1.845     4.87     1137.639     63.91231     132.8191         7     1.025     0.655 -88.09   0
       358   1014.7815    147.0757 307.5182809  +6.6389803     1655.318     3126.959     4106.965     90.31332     181.0603     362.5175      2.393     6.57     1136.515     63.91231     191.8999        23     1.771     0.977  67.55  16
       359    605.9904    144.3526 307.6882941  +6.6263918     891.7375      2336.51     3804.005     90.31332     181.2046     362.1928      3.461     7.35     1145.364     63.91231     119.5986        12     1.461     1.035  60.07   2
       360    291.3263    141.0569 307.8191950  +6.6171577     14079.34     39191.74     48402.43     90.74648     181.2767     362.5535      2.741     7.05     1166.797     63.91231     1318.826        94     2.351     1.866  59.60   0
       361     36.8860    140.0437 307.9249828  +6.6089842     2066.397     5518.351       6424.5      90.8904     181.2046     362.5896      2.509     8.11     1180.116     63.91231     233.7081        41     1.973     1.585 -85.27   0
       362    722.8599    137.5874 307.6399403  +6.6331101     4287.067     10263.44      12117.5     90.16846     181.2767     362.2289      2.499     5.71      1144.66     63.91231     510.1565        54     2.088     1.539  56.72   0
       363    133.9624    134.6846 307.8848142  +6.6144765     2448.422     6496.036     8157.098      90.8904     181.3488     362.5535      2.685     7.10     1172.658     63.91231     268.8881        49     2.107     1.669  62.55   0
       364    404.6543    130.8119 307.7724318  +6.6252055     1931.376     5234.895      6561.72     90.16846     181.2767      362.265      2.772     8.45     1149.144     63.91231     243.1558        43     2.098     1.512  51.90   0
       365    368.0000    130.0517 307.7876927  +6.6242843     1251.139     2945.693     4459.332     90.02338     180.7713     362.0484      3.079     8.89     1153.673     63.91231     165.3241        20     2.386     0.924  69.71   2
       366    370.4806    129.5405 307.7866786  +6.6245789     1225.249     2606.452     3809.614      91.0341     181.3488     362.5896      2.637     6.81     1153.427     63.91231     160.9108        14     1.507     1.049  89.78   3
       367    125.6693    130.9781 307.8883849  +6.6157260     634.7424     1976.844      3282.13     90.45793     181.2768     362.5535      2.488     5.29     1173.049     63.91231     95.47827         7     1.477     0.535 -57.82   2
       368   1015.6678    123.5408 307.5186918  +6.6487234     1113.129     2170.666      2552.03      91.0341     181.2768     362.5896      2.188     5.99      1134.54     63.91231     149.2465        12     1.348     0.749  71.02  16
       369    222.7785    118.8251 307.8484283  +6.6240204     1845.098     2931.288     4029.836     90.45793     181.1325     362.5175      1.749     5.81      1167.86     63.91231     269.0217        16     1.540     0.705 -86.13   3
       370    219.7816    118.2417 307.8496934  +6.6241600     2393.284      5535.77     6873.194     90.31332     181.1325     362.3011      2.380     8.58     1167.989     63.91231     299.0039        31     2.177     0.999  84.68   3
       371    682.4098    117.2825 307.6574288  +6.6401320     3372.688     8097.591     9928.446     90.45793     180.9159     362.4093      2.605     6.47     1143.662     63.91231     361.8552        54     2.130     1.626  57.68   0
       372    103.3618    118.2608 307.8980817  +6.6202208     1005.313     2849.036     3101.091      90.8904     181.4209     362.5896      2.601    10.12     1173.947     63.91231     127.1863        22     1.969     1.451  18.23   0
       373    634.8094    114.7798 307.6772982  +6.6395657     4935.485     12533.13      15523.5     90.45793     180.9881     362.3732      2.574     6.18     1143.286     63.91231     631.4056        56     2.153     1.609  60.10   3
       374    638.1533    106.0889 307.6761972  +6.6432649     28003.23     69077.68     82604.32      90.8904     181.2046     362.7337      2.551     6.02       1142.6     63.91231     2812.109       102     2.289     1.790  57.86   3
       375    361.9162    110.7751 307.7908640  +6.6320349     1835.193     5189.028     6675.959     90.74648     181.0603     362.5175      2.840     8.18     1154.174     63.91231     183.1471        42     1.867     1.693  40.26   0
       376    543.3790    109.6538 307.7154737  +6.6386072     999.0417     2116.051     2461.714     90.31332     181.3488     362.3732      2.263     6.83     1142.308     63.91231      133.126        13     1.299     1.006  67.43   0
       377      7.5670    110.0937 307.9381704  +6.6203530     766.5287     1615.744     2681.733      91.0341     181.2046     358.2375      3.220     6.57     1181.839     63.91231     125.9445         9     1.333     0.910  35.99  16
       378    317.4349    100.0997 307.8097089  +6.6349414      1795.57     4817.644     6300.552      90.8904     181.2046     362.7698      2.823     8.84     1161.881     63.91231       189.87        42     2.072     1.577  57.00   0
       379     14.8443     83.1718 307.9360462  +6.6317097     755456.4      2183664      2650483     90.45793     181.4209     362.4814      2.713     7.84      1179.93     63.91231     61721.59       420     2.509     2.055  62.41  28
       380    687.8033     93.2854 307.6559842  +6.6502172     657.0404     1415.111     1244.654     90.31332     180.9159      362.265      2.157     4.35     1141.829     63.91231     98.64526         5     1.151     0.469 -59.78   0
       381    702.5920     90.1084 307.6499423  +6.6520251     1679.467      4333.76     4972.431     90.45793     180.9881     362.3371      2.484     6.96     1141.302     63.91231     200.8324        34     1.802     1.355  66.02   0
       382    446.2845     81.2980 307.7567772  +6.6470424     1731.516     3119.774     4044.654      90.8904     181.7808     362.6617      2.414     9.88     1145.167     63.91231     212.0486        21     2.154     1.264  67.65   2
       383    443.4781     80.9715 307.7579546  +6.6470827     1783.783     3966.425     4860.401     90.74648     181.2767     362.5896      2.385     5.88     1145.382     63.91231     233.6075        20     1.811     0.960 -86.35   3
       384    899.0015     77.6353 307.5687104  +6.6637622     1232.841     2637.688     2419.401     89.87807     181.1325     362.3732      1.967     6.25     1134.136     63.91231     166.4333        21     1.696     1.171  84.26   0
       385    916.6649     76.4286 307.5614078  +6.6648522     2550.722     5506.509       6435.9     90.60232     181.3488     362.5175      2.410     5.63     1133.827     63.91231     328.2217        34     1.862     1.274  60.32   0
       386    607.8295     75.3439 307.6898245  +6.6549347     764.1425     1588.201     2053.126     90.60232     181.4209     362.4814      1.858     3.32      1140.77     63.91231     135.4626         5     0.935     0.370  85.42   0
       387    406.6245     72.4845 307.7735564  +6.6493441     934.5655     2243.398     2589.187     90.74648     181.0603     362.4814      2.538     5.71     1148.693     63.91231     134.3293         9     1.359     0.676 -67.07   2
       388    155.9254     70.1389 307.8778416  +6.6418564       1531.4     4149.998     4648.855     91.17757     181.3488     362.5896      2.512     9.36      1169.19     63.91231     164.4559        34     1.819     1.512  80.84   0
       389     37.8008     67.9598 307.9270133  +6.6387640     6008.699     16442.16     19607.26     89.87807     181.0603     362.3011      2.560     6.85     1176.993     63.91231     627.0571        57     2.083     1.628  68.71   0
       390    304.1165     68.9365 307.8162843  +6.6473536     716.3946     1810.698     2093.846      91.0341     181.4209     362.5896      2.562     6.52     1164.214     63.91231     92.25415        10     1.720     0.694 -12.74   0
       391    839.2169     62.1027 307.5940781  +6.6681685     3588.979     8243.934     9648.756     90.74648     181.1325     362.3371      2.429     6.04     1134.653     63.91231     397.2458        45     1.964     1.459  68.90   0
       392    784.5362     62.6008 307.6167923  +6.6661287     2074.222     4618.667     5125.686     90.02338     181.0603     362.3011      2.223     6.82     1136.705     63.91231     217.0618        35     1.875     1.335  50.02   0
       393     77.3218     60.7325 307.9108280  +6.6430827     1346.795     2930.196     3646.728      91.0341     181.4209     362.5535      2.432     9.14     1173.507     63.91231     163.5858        24     2.631     0.886  85.27   2
       394     80.0000     60.9948 307.9097060  +6.6430650     1055.838     1828.971     2775.202     90.02338     180.9159     362.3371      1.772     6.43     1173.272     63.91231     173.3346        11     2.128     0.546  77.84   3
       395     20.7491     56.0292 307.9344999  +6.6431111     1312.137     3617.018     5192.203     90.45793      181.493     362.4814      3.158     9.68     1177.542     63.91231     160.2749        33     1.999     1.461  87.42   0
       396    601.2869     55.2014 307.6932140  +6.6630279     729.1862     1545.818     1490.012     90.02338     180.8436      362.265      2.055     4.58     1140.276     63.91231      123.798         6     1.152     0.752 -44.85   0
       397    779.1387     50.1568 307.6194492  +6.6710835     1152.689     2496.851     3362.661      90.8904     181.3488     362.7337      2.329     8.06     1135.764     63.91231     131.5493        19     1.700     1.069  41.71   0
       398    105.5836     44.0350 307.8996389  +6.6509289     4613.373     12490.21     14759.55     90.45793     181.0603     362.4093      2.609     6.94     1170.787     63.91231     465.2963        63     2.224     1.685  60.87   0
       399    435.1944     43.9827 307.7626301  +6.6620694     1302.908     3349.336     3810.245     90.45793     180.9881     362.4093      2.498     8.11     1146.668     63.91231     165.5945        29     1.791     1.470  57.09   0
       400    648.2289     35.7883 307.6743459  +6.6726177     9762.798     23948.97     28300.08     90.31332     181.1325     362.4453      2.525     6.02     1139.311     63.91231     1059.784        73     2.191     1.675  52.57   0
       401    547.6714     31.9035 307.7162767  +6.6708402     2592.325     6453.599     7750.433     90.74648      181.493     362.5896      2.639     6.30     1141.389     63.91231     325.9519        35     2.015     1.207  88.08   2
       402    267.0075     32.9019 307.8329118  +6.6609737     995.8832     2734.855     5180.912     90.60232     180.9159     362.3732      5.590     8.05     1167.034     63.91231     136.6012        18     1.734     1.046  30.01   1
       403    904.6660   1020.8922 307.5351049  +6.2746410     1224.363     1927.895      1262.22      90.8904     179.9015     319.5513      1.714     6.35     1196.997     63.91231     149.3767        15     1.350     0.838  76.59  16
       404    227.3614   1019.5211 307.8164808  +6.2524465     1711.408     3083.716     3160.547     90.74648     181.4209     337.9988      1.995     5.18     1205.157     63.91231     215.7107        23     1.637     0.984  69.28  16
       405    730.2797   1016.3487 307.6076922  +6.2706704     5974.661     10726.48      11727.4      90.8904     181.4209     362.5896      1.965     4.55     1200.811     63.91231     696.5776        41     1.777     1.221  53.77  16
       406     40.0838     28.1006 307.9273974  +6.6552909     1197.005     2934.772     2981.115      90.8904     181.9246     362.6977      2.282     8.44     1174.376     63.91231     148.7893        24     1.564     1.271  56.84   0
       407    931.3890     27.5020 307.5569088  +6.6855386     1322.643     2705.404     2795.942     90.60232     180.9159     362.4093      2.105     4.95     1130.925     63.91231     180.2443        16     1.442     0.960  35.87   0
       408    262.4093     24.9438 307.8350887  +6.6641029     1464.733     3834.891     4966.415     90.16846     181.2767     362.2289      2.798     7.97         1167     63.91231     177.5535        31     1.611     1.536  81.85   0
       409    445.1808   1016.6260 307.7261047  +6.2609774     2864.989     5839.279     6365.494     90.45793     181.1325     362.2289      2.124     5.42     1202.704     63.91231     310.9512        35     1.740     1.340  58.83  16
       410    586.5239   1015.4979 307.6674330  +6.2661951     3434.357     6755.931     8294.896     90.45793     181.6369     362.5896      2.224     5.01     1201.265     63.91231     360.8787        36     1.766     1.252  62.30  17
       411    722.6080   1015.4739 307.6109079  +6.2707741     1014.573     1870.073     2244.346     90.45793     180.8436     362.4093      2.009     6.23     1200.714     63.91231     126.0303        14     1.466     0.744  59.40  16
       412    763.2164   1012.1484 307.5941503  +6.2735089     881.1287     1598.742     2169.416     90.31332     181.4209      362.265      2.942     5.71     1200.135     63.91231     129.3019        11     1.234     0.745 -77.76   0
       413    969.7849   1005.7380 307.5085568  +6.2830760     6011.753     10008.61     9862.127     90.31332     181.2768     362.3732      1.785     4.35     1193.893     63.91231     857.5924        36     1.752     1.041  60.01   0
       414    254.4196   1006.3712 307.8056804  +6.2587858     978.7783     2109.586     2608.746     90.45793     181.1325     362.5175      2.292     5.65     1204.934     63.91231     162.8531        12     1.418     0.889  55.46   0
       415    729.8386   1003.9573 307.6082864  +6.2757699     2022.498     3824.805     5058.374     90.60232     181.3488     362.4453      2.104     5.48     1199.999     63.91231     280.6475        25     1.741     1.045  61.64   0
       416    745.2130   1003.5538 307.6019135  +6.2764522     785.6999     1255.995     745.6572     90.16846     181.1325     362.3371      1.582     3.75      1199.87     63.91231     114.3965         5     1.018     0.397  83.76   0
       417    376.8719   1001.3788 307.7549851  +6.2649712     1291.536     2500.086     2793.637     90.45793     181.2046     362.5535      2.148     6.70     1203.693     63.91231     157.7969        18     1.561     0.876  54.79   0
