#   1 NUMBER                 Running object number                                     
#   2 X_IMAGE                Object position along x                                    [pixel]
#   3 Y_IMAGE                Object position along y                                    [pixel]
#   4 ALPHA_J2000            Right ascension of barycenter (J2000)                      [deg]
#   5 DELTA_J2000            Declination of barycenter (J2000)                          [deg]
#   6 FLUX_APER              Flux vector within fixed circular aperture(s)              [count]
#   9 FLUXERR_APER           RMS error vector for aperture flux(es)                     [count]
#  12 FLUX_RADIUS            Fraction-of-light radii                                    [pixel]
#  13 FWHM_IMAGE             FWHM assuming a gaussian core                              [pixel]
#  14 BACKGROUND             Background at centroid position                            [count]
#  15 THRESHOLD              Detection threshold above background                       [count]
#  16 FLUX_MAX               Peak flux above background                                 [count]
#  17 ISOAREA_IMAGE          Isophotal area above Analysis threshold                    [pixel**2]
#  18 A_IMAGE                Profile RMS along major axis                               [pixel]
#  19 B_IMAGE                Profile RMS along minor axis                               [pixel]
#  20 THETA_IMAGE            Position angle (CCW/x)                                     [deg]
#  21 FLAGS                  Extraction flags                                          
         1    171.1286     31.0024 307.8652266  +6.6681168     5190.212      14316.8     17036.85     91.43523     183.1633     366.9113      2.597     6.24      1206.68     64.70625     547.1395        61     2.077     1.712 -82.82   0
         2    700.7803     21.2802 307.6452356  +6.6898906     4123.258     10030.46     12109.94     91.58164     183.2364     367.0208      2.483     5.61     1172.891     64.70625     477.9895        51     1.898     1.617 -69.51   0
         3    620.9842     20.5304 307.6784545  +6.6875316     1898.799     4689.147     5391.043     91.43523     183.4556     366.9843      2.446     6.74     1174.788     64.70625       215.27        37     1.783     1.499 -46.35   0
         4    421.1830     16.8855 307.7616891  +6.6823454     3098.479     8358.517     9893.085     91.58164     183.3095     367.0208      2.581     6.34     1185.232     64.70625     355.7023        50     1.898     1.753 -87.76   0
         5     22.3863     16.7515 307.9275753  +6.6690015      4574.04     11599.11     12924.22     91.28858     183.5287     366.7286      2.422     6.04     1211.936     64.70625     486.8701        54     1.944     1.604 -73.91   0
         6    316.7614     13.0064 307.8052553  +6.6804453     5267.406     10668.45     13101.18     90.99458     183.2364     366.7652      2.176     5.39     1198.779     64.70625     558.4419        30     1.884     1.015  55.46   3
         7    319.3956     11.2039 307.8042202  +6.6812785         5552      10502.2      12830.7     91.28858     183.0901     366.9113      2.133     7.41     1198.515     64.70625     579.8137        33     2.065     1.089  44.48  19
         8     91.5810     12.3393 307.8989429  +6.6731536     1439.293     3378.751      4098.29     91.58164     183.5287     366.9113      2.405     8.16     1210.232     64.70625     164.6893        24     1.558     1.351 -49.63   0
         9     82.2803     11.4484 307.9028415  +6.6732088     833.3196      1843.14     2467.099     92.01949     183.6746     367.0573      2.502     6.48     1210.355     64.70625     101.3196        10     1.592     0.741 -42.56   0
        10    384.1851     10.0263 307.7773095  +6.6839391     1088.528     2688.552     2741.285     91.72782     183.4556     367.0208      2.481     8.65      1190.33     64.70625     114.3624        22     1.614     1.295  46.03  16
        11    644.6180      5.1357 307.6691392  +6.6946839     5758.843     14654.11     17781.04     91.58164     183.6016     337.7047      2.554     5.81       1173.5     64.70625     637.3652        63     2.018     1.759 -80.87  26
        12    636.1775      2.1174 307.6727515  +6.6956488     4114.802     6943.305     7657.475     89.36025     158.5396     290.8069      1.796     5.93      1173.51     64.70625     526.7031        27     1.566     1.119  -6.73  27
        13    809.3633      4.8264 307.6006171  +6.7003181     929.0209     2223.744     3055.006     91.58164     183.3826      333.553      2.550     7.56     1166.669     64.70625     127.1793        14     1.628     1.211 -33.61  16
        14    523.7502      5.6719 307.7194002  +6.6904165     725.3867     1265.159     1608.592     92.01949     183.6016     344.6165      2.149     4.89     1177.118     64.70625     96.68152         5     1.063     0.636  65.86  16
        15    245.1248      3.0380 307.8353888  +6.6821590     3217.229     7285.013     7679.979     91.87377     171.9191     307.0324      2.268     6.77     1204.988     64.70625     366.5327        40     1.947     1.375 -29.80  24
        16    879.5397      2.4144 307.5715046  +6.7036574      1031.27     1809.325     2120.938     91.43523     163.6134     296.0578      1.968     5.95     1164.251     64.70625     126.4351        14     1.185     1.054  -2.42  24
        17    406.0253      2.2726 307.7684851  +6.6878757     3521.701     6482.711     6626.968     90.55177     161.3043     293.5126      1.946     6.60     1187.508     64.70625     394.7531        30     1.703     1.149  -6.63  24
        18    666.5640      1.7307 307.6601241  +6.6968251     3313.451      5570.21     6547.345     85.37303     152.7726     283.7648      1.876     6.96     1172.928     64.70625     429.0483        24     1.832     0.854  -7.54  24
        19    216.6667    987.1418 307.8141287  +6.2745366     1204.484     2490.439     3186.501     92.16497     183.5287     367.0938      2.357     6.24     1247.815     64.70625     203.8856        20     1.542     1.226  82.70   0
        20    708.7894   1023.3826 307.6083666  +6.2760397     1556.875     1966.291     2039.108     84.10818     150.6531     281.4893      1.303     3.63     1240.476     64.70625     231.3497        13     1.265     0.656   2.53  24
        21    355.6875   1022.3070 307.7551663  +6.2646683     1354.465     2001.374     1985.843     92.01949     167.6579     301.1727      1.698     5.82     1248.267     64.70625     167.4952        16     1.191     0.991  62.94  24
        22    755.1773    980.8422 307.5905074  +6.2951690     5607.689     10027.76     11309.58     91.58164     183.4556     366.8748      1.966     4.28     1238.303     64.70625     680.4362        40     1.821     1.216 -77.16   0
        23    615.0455    985.1960 307.6486093  +6.2886873     747.6468     1229.795     992.7639     91.28858     183.2364     366.7286      1.652     4.63     1241.256     64.70625     115.9548         6     1.237     0.492 -57.71   0
        24    807.0147    982.6263 307.5689006  +6.2961621     2009.851     3627.052      3901.38     91.72782     183.3826     367.0208      1.949     4.36     1237.168     64.70625     302.8827        22     1.375     1.085  88.87   0
        25    540.5847    979.9664 307.6797346  +6.2883578     683.9159     957.3057     1237.367     91.58164     183.3095     366.9478      1.705     4.56     1243.087     64.70625     106.1029         7     1.258     0.469 -82.52   0
        26    224.8410    979.4944 307.8109882  +6.2779712     1178.115     1843.033     1629.833     92.16497     183.5287     367.2033      1.692     5.36     1247.632     64.70625      136.733        13     1.182     0.824 -72.28   0
        27    189.7546    979.4150 307.8255740  +6.2768261     567.2391      965.069     1021.562     91.28858     183.3826     366.8382      1.547     3.81     1247.731     64.70625     103.1188         5     1.001     0.415  82.89   0
        28     49.9917    978.0003 307.8837112  +6.2727148     2095.286     3644.663     4345.734     91.28858     183.2364     366.8748      1.911     5.16     1248.268     64.70625     235.4985        22     1.297     1.152  78.93   0
        29    943.2764    975.6210 307.5124944  +6.3036016     6389.623     9720.019     10255.43     91.58164     183.3095     367.0208      1.665     3.48     1232.518     64.70625     786.4263        30     1.336     1.137 -83.40   0
        30    917.2590    967.3354 307.5235857  +6.3061585     2133.291     3016.825     2924.315     92.16497     183.5287     367.1303      1.618     3.91     1233.144     64.70625     264.7142        18     1.176     1.000  86.35   0
        31    250.2474    963.8234 307.8009548  +6.2852997     3242.579     6485.468     6989.528     91.58164     183.6017     366.9478      2.061     5.17     1247.429     64.70625     362.6957        35     1.567     1.445 -85.27   0
        32    776.7783    963.9816 307.5820921  +6.3028579     1124.331     1974.062     1374.574     91.72782     183.4556     367.0208      1.824     6.38     1237.026     64.70625     158.2983        14     1.270     0.900  61.82   0
        33    637.9467    963.4042 307.6398195  +6.2984585     3620.325     6768.506     7436.293     91.28858     183.3095     366.6921      2.037     4.37     1239.678     64.70625     397.0919        32     1.426     1.355  84.37   0
        34     19.0512    961.1821 307.8971370  +6.2786241      1908.16     3340.972     3975.937     91.43523     183.6746     366.8017      1.917     4.44     1247.918     64.70625     271.1381        19     1.302     1.064 -85.25   0
        35    460.2722    961.3675 307.7137403  +6.2933553     780.8759     1412.586     878.1828     91.87377     183.6017     367.1303      1.816     5.92     1243.588     64.70625     95.10889         8     1.160     0.851   6.05   0
        36    869.9484    959.4299 307.5435155  +6.3078479     900.6395     1359.744     1455.994     91.72782     183.7475     366.9843      1.754     5.01     1234.315     64.70625     136.1162         8     1.027     0.692 -72.50   0
        37    941.1826    957.3201 307.5139753  +6.3110948      773.616     1174.546     987.5605     91.58164     183.2364     366.9843      1.415     3.26     1231.806     64.70625     131.9614         7     0.950     0.610  87.56   0
        38    562.7396    955.9592 307.6713298  +6.2990200      1296.39     2318.305     2393.331     92.01949     183.6016     367.2033      1.845     7.08     1241.728     64.70625      164.224        17     1.440     0.975 -59.12   0
        39    993.9709    955.2750 307.4921003  +6.3136990     813.6815     1292.281     2332.499     91.87377     183.6016     367.0938      1.759     3.01     1229.668     64.70625     135.9658         6     0.793     0.735  84.94   0
        40    601.7266    951.9786 307.6552575  +6.3019690     979.7263     1492.168     1819.991     91.58164     183.3826     367.0208      1.815     5.01     1240.552     64.70625     125.1091        11     1.116     0.766 -65.78   0
        41    281.9700    950.1953 307.7882272  +6.2919958     1175.723     2183.531     2780.133     91.43523     183.3826     366.8382      1.859     5.89     1247.414     64.70625     157.8473        13     1.245     0.785 -87.25   0
        42    886.0474    942.5420 307.5373873  +6.3153638     6406.336     10888.03     11176.82     92.01949     183.6016     367.2398      1.834     3.80     1232.807     64.70625     810.5874        38     1.528     1.257 -78.06   0
        43    323.7361    938.3601 307.7712644  +6.2982874     6840.409     13646.14     14829.65     92.01949     183.5287     367.1668      2.112     4.51     1246.121     64.70625     748.3534        46     1.688     1.465  80.05   0
        44    422.1570    939.5399 307.7303152  +6.3010988     1615.234     2921.486     3268.548     92.01949     183.6016     367.2033      1.943     5.94     1243.809     64.70625     208.5022        20     1.443     1.078 -29.45   0
        45    243.8555    937.2768 307.8045035  +6.2960553     5054.432     9920.127     10890.83     92.01949     183.6016     367.0573      2.081     4.62     1246.902     64.70625     596.9866        40     1.650     1.381 -88.22   0
        46    571.7681    931.1321 307.6684084  +6.3095818     830.8912     1726.622     1936.505     91.87377     183.6016     367.0573      2.295     6.58     1240.622     64.70625     130.1259         9     1.348     0.902  78.54   0
        47    748.3508    945.5122 307.5945260  +6.3095412      692.536     1095.756     1093.702     92.01949     183.4556     367.1668      1.615     4.17      1236.93     64.70625     112.6206         5     0.955     0.527 -43.55   0
        48    857.9277    926.6580 307.5496067  +6.3209901     749.4878      1342.85     1209.071     92.16497     183.6016     367.0573      1.950     5.41     1232.569     64.70625       111.21         7     1.095     0.755  81.15   0
        49    738.0317    920.5639 307.5996496  +6.3195066     1304.871     2436.755     2630.733     91.58164     183.3095     366.8017      1.971     6.25     1235.772     64.70625     148.4762        19     1.486     1.131 -80.45   0
        50    969.1364    916.0585 307.5037318  +6.3290782     1174.296     1857.762     3184.926     92.16497     183.5287     367.1303      1.939     4.65     1228.521     64.70625     136.7771        12     1.013     0.895  73.65   0
        51    656.9135    913.8196 307.6335948  +6.3195834     1817.455      3421.39     3974.376     91.72782     183.3095     367.0208      2.127     5.92     1237.531     64.70625     209.5288        23     1.528     1.248  30.78   0
        52     53.5516    910.4279 307.8845062  +6.3007576     2176.909     4208.148     4539.147     91.58164     183.6017     367.0208      1.956     4.67     1246.715     64.70625     293.9797        26     1.485     1.178  78.65   0
        53    197.1298    909.3101 307.8248652  +6.3060438     1548.831     3252.695     3535.901     91.87377     183.8933     367.0938      2.137     6.81      1246.69     64.70625     182.1429        23     1.488     1.184 -83.51   0
        54     71.0997    909.5162 307.8772431  +6.3017243     1296.442     2499.697     2825.867     92.01949     184.1845     367.2033      2.059     7.26     1246.768     64.70625     150.2612        18     1.374     1.076  85.94   0
        55    934.0058    909.0366 307.5185698  +6.3308092     758.0117     1151.649     1366.395     90.99458     183.3095     366.8748      1.533     5.03     1229.329     64.70625     123.0515         8     1.142     0.816 -42.31   0
        56    651.3654    903.2592 307.6362544  +6.3237621      5164.38      9864.83     10769.09     91.87377     183.6017     367.0573      2.037     4.43     1237.438     64.70625     604.4962        37     1.632     1.309 -81.17   0
        57    888.9199    899.4795 307.5376309  +6.3332555      2592.38     4471.564     4595.566     92.31023     183.8933     367.2762      1.916     4.64     1230.201     64.70625     282.4438        26     1.490     1.113 -65.34   0
        58     11.8611    901.7696 307.9021262  +6.3029334     1034.792     1606.719     1586.732     91.72782     183.6016     367.0573      1.550     4.12      1246.51     64.70625     134.5822        10     0.970     0.732  59.26   0
        59     25.9633    900.6940 307.8963009  +6.3038522     753.1716     1385.282     1582.171     92.16497     183.4556     367.2033      1.802     3.84     1246.536     64.70625     124.1392         5     0.822     0.514 -53.36   2
        60    334.4717    896.6086 307.7682037  +6.3159009     10919.67     23203.12     26417.45     91.43523     183.0901     366.9843      2.197     4.88     1245.077     64.70625     1201.556        63     1.813     1.617 -79.44   0
        61     69.6027    896.7907 307.8782936  +6.3069326     828.7515     1592.078     1204.494     91.28858     183.2364     366.8748      2.024     5.96     1246.594     64.70625     118.5804         9     1.120     0.893  41.75   0
        62    205.0980    895.6336 307.8220128  +6.3119629     796.2568     1480.862     1592.727     92.01949     183.4556     367.2398      1.976     5.51     1246.455     64.70625     111.6761         9     1.145     0.908  62.21   0
        63     98.1292    887.3422 307.8667544  +6.3117960     1221.556     2579.628     2630.158     92.16497     183.6016     367.0938      2.080     7.81     1246.509     64.70625     193.4738        17     1.529     1.116  81.24   0
        64    412.2434    886.9760 307.7361991  +6.3224884     798.9958     1503.825      1608.22     91.43523     183.4556     366.8748      2.016     7.28     1242.608     64.70625     92.81433        10     1.332     1.116 -39.99   0
        65    850.1031    880.7554 307.5543924  +6.3396986     1840.026     2924.854     2649.242     92.01949     183.5287     367.2762      1.729     5.86     1230.576     64.70625     221.7894        20     1.462     1.055  86.02   0
        66    879.5881    880.9697 307.5421282  +6.3405936     1671.908     2871.647     2960.131     91.43523     183.3095     366.9843      1.852     5.70     1229.595     64.70625     170.6816        20     1.330     1.083  79.71   0
        67     81.4475    880.7158 307.8739113  +6.3139735     1745.979     3397.802     4221.661     92.01949     183.6017     367.1303      2.154     5.20     1246.396     64.70625     240.3269        22     1.533     1.047  87.08   0
        68    813.7827    880.0616 307.5695141  +6.3387734     2451.918     4439.429     4702.635     91.58164     183.5287     366.8748      1.920     4.68     1231.237     64.70625     280.4341        26     1.502     1.120 -49.36   0
        69    549.4723    871.7709 307.6796647  +6.3333669     228934.6       476565     525106.1     91.87377     183.6017     367.0573      2.168     4.77     1239.623     64.70625     24658.94       168     1.970     1.720 -74.47   0
        70    393.7863    874.3288 307.7442957  +6.3270963     4981.303     10752.26     11926.78     91.43523     183.4556     366.9478      2.205     5.01     1242.836     64.70625     611.8258        44     1.631     1.518 -79.68   0
        71    337.0132    872.8394 307.7679452  +6.3258086     8031.042     17427.84     19468.89     91.43523     183.3826     366.8382      2.231     4.98     1244.674     64.70625     923.1869        58     1.820     1.577 -80.02   0
        72    655.2275    868.8439 307.6358007  +6.3381134     2518.182      5073.66     5250.885     91.58164     183.6746     367.0208      2.074     5.65     1236.514     64.70625     295.4949        28     1.635     1.161 -85.01   0
        73    887.7451    867.5440 307.5391855  +6.3464139     4479.104     7676.438     8906.411     92.31023     183.6017     367.0938      1.932     4.11     1228.509     64.70625     480.1279        31     1.399     1.261 -79.29   2
        74    882.6952    867.6916 307.5412799  +6.3461845     682.9598     1124.558     1515.763     92.01949     184.1845     367.0573      1.801     3.47     1228.768     64.70625     120.2212         5     0.794     0.439  68.52   3
        75    630.2289    863.1715 307.6463825  +6.3396217     2214.231      4620.48     5444.761     91.43523     183.3095     366.8017      2.195     5.57     1236.626     64.70625     231.8756        29     1.489     1.333  66.16   0
        76   1021.1290    861.7341 307.4839299  +6.3532603      4443.75     7301.938     8039.269     92.01949     180.2879     320.0652      1.819     3.56     1221.434     64.70625     564.2885        28     1.357     1.112 -87.18  24
        77    818.3550    861.8040 307.5682234  +6.3464711     1380.533     2505.128     2225.582     91.28858     183.2364     366.7286      1.903     5.47     1229.975     64.70625      164.809        17     1.224     1.067 -55.21   0
        78    622.5098    858.3380 307.6497531  +6.3413611      1442.36     3558.934      4688.48     92.01949     183.7475     367.1668      2.560     9.18     1236.329     64.70625     170.1489        29     2.011     1.169 -61.89   0
        79    906.5972    855.4327 307.5317528  +6.3520477     2801.871      4577.01     4648.455      91.1417     183.3826     366.8017      1.767     3.92     1226.712     64.70625     383.9858        24     1.373     1.091 -73.60   0
        80    317.3298    856.3400 307.7766812  +6.3319668     847.4308     1320.947     1547.433     92.16497     183.6017     367.1303      1.704     4.82     1244.806     64.70625     115.1367         7     1.107     0.594 -71.72   0
        81    364.8875    851.9354 307.7570600  +6.3353816      1625.13     3679.307     3988.902     92.01949     183.8204     367.1303      2.150     7.50     1243.231     64.70625     187.2941        26     1.541     1.275 -56.23   0
        82    501.0085    841.4230 307.7008279  +6.3442860     2112.382     4631.623     4734.471     91.58164     183.3095     366.8748      2.195     5.98     1238.812     64.70625     214.3938        31     1.581     1.373  86.27   0
        83    845.5223    840.2422 307.5576499  +6.3562881     726.3391     1279.023     1400.534     91.87377     183.6017     367.1668      1.885     6.02     1227.798     64.70625     115.9294         9     1.429     0.714 -63.18   0
        84    547.9615    837.5880 307.6814379  +6.3474424     3909.192     8533.399     10289.69     91.43523     183.3826     366.8017      2.360     5.39     1236.906     64.70625     437.6854        43     1.678     1.506  77.96   0
        85    883.3842    835.2838 307.5420756  +6.3596003     1126.089     2077.433     2285.424     91.58164     183.2364     366.9843      1.817     7.37     1226.392     64.70625     154.8208        16     1.662     0.915 -82.55   0
        86    465.8854    836.0933 307.7156072  +6.3453124     971.0848     2008.674      1763.43     91.87377     184.1118     367.2033      2.032     5.48      1239.64     64.70625     136.0227        13     1.382     0.899 -52.72   0
        87    108.1659    835.4266 307.8643294  +6.3335866     876.8226     1583.738     1422.741     91.43523     183.3095     366.8382      1.709     4.73     1245.104     64.70625     118.2946         8     0.959     0.663  57.19   0
        88    518.6093    831.4069 307.6938469  +6.3490144     12720.18     27604.28     29902.21     91.28858     183.3826     366.9113      2.216     5.04     1237.396     64.70625     1346.555        60     1.809     1.571 -87.41   0
        89    932.1416    829.3507 307.5220041  +6.3636779     3012.079     5115.404     5565.444     92.01949     183.6016     367.1668      1.854     4.14     1224.214     64.70625     320.5408        25     1.324     1.162  80.58   0
        90     29.8925    822.2259 307.8973101  +6.3364099     1077.567      2034.67     2112.118     92.16497     183.3095     366.9113      1.945     6.64     1244.473     64.70625     160.2856        14     1.392     0.890  77.13   0
        91    311.2050    820.0948 307.7804444  +6.3467394     2038.725     4411.243     4954.946     91.72782     183.2364     366.8017      2.241     5.55     1243.641     64.70625     244.8337        33     1.598     1.417  78.27   0
        92     11.4027    818.1082 307.9051345  +6.3374895      1587.74     3118.489     3244.059     91.43523     183.2364     366.8017      2.133     5.56     1244.291     64.70625      230.651        24     1.635     1.302  67.86   0
        93    776.6602    815.8898 307.5870910  +6.3640536     39973.18     78357.99     85767.41     91.87377     183.7475     367.1303      2.077     4.43     1227.214     64.70625     4270.339        83     1.817     1.546 -76.23   0
        94    233.5334    792.6860 307.8136531  +6.3554595     782164.2      2408793      2851889     92.01949     183.8933     367.1303      2.717     5.41     1243.662     64.70625     63955.34       604     2.744     2.241  89.29   4
        95    698.6540    806.9382 307.6198193  +6.3651474     59647.36     123566.5     137243.5     92.01949     183.5287     367.0573      2.175     4.73     1229.561     64.70625     6088.448       101     1.917     1.666 -74.84   3
        96    901.9335    810.9644 307.5351762  +6.3702690      6741.31      12490.9      13077.2     91.87377     183.6746     367.1668      1.969     4.08     1224.135     64.70625     767.0513        41     1.530     1.365 -83.17   0
        97    343.6628    808.0662 307.7673556  +6.3527987     12515.55     28773.83     32532.92     92.01949     183.6016     367.0938      2.320     5.28     1242.291     64.70625     1389.198        70     1.873     1.716 -82.75   0
        98    405.4956    805.8783 307.7417249  +6.3557755     13154.68     30453.25     33251.29     91.72782     183.8933     367.1303      2.287     5.35     1240.485     64.70625     1422.838        67     1.877     1.667 -76.77   0
        99    942.4492    804.5161 307.5185478  +6.3742846         1830     2982.505      2819.47     92.01949     183.6017     367.2033      1.790     3.85     1222.607     64.70625     249.2097        19     1.249     0.985  88.88   0
       100    898.8799    802.4123 307.5367312  +6.3737014     5306.719     9909.305     10833.83     91.58164     183.2364     366.9113      1.986     4.47     1223.621     64.70625     535.3354        37     1.526     1.353 -79.03   0
       101    639.4564    801.6942 307.6446045  +6.3653359     4108.105     8581.003     9721.719     91.87377     183.6017     367.3127      2.174     5.18     1231.397     64.70625     444.2323        38     1.665     1.367 -78.79   0
       102    428.8752    799.4263 307.7322223  +6.3592252     1037.192     2359.194     2293.282     91.58164     183.4556     367.0573      2.197     8.74      1239.33     64.70625     125.3251        19     1.506     1.416  15.27   0
       103   1021.7646    793.9094 307.4859274  +6.3813107     880.1296     1391.024     1441.257     92.16497     174.0875     310.2879      1.777     4.99     1219.127     64.70625     109.6482         6     1.056     0.668 -89.00  16
       104    408.4296    788.5835 307.7410855  +6.3630208     31962.76     74656.47     84239.99     91.58164     183.3095     367.0208      2.345     5.47     1239.201     64.70625      3379.48        94     1.981     1.753 -77.44   0
       105    674.6877    791.4536 307.6303007  +6.3707455     1490.118     3333.445     3461.578     92.01949     183.4556     367.2398      2.181     8.14      1229.55     64.70625     158.8555        23     1.457     1.272 -71.46   0
       106    144.3547    792.1255 307.8507432  +6.3526962     802.7109     1403.487     1704.171     91.87377     183.6746     367.1303      2.115     5.42     1243.843     64.70625      139.557         6     1.175     0.705  83.69   0
       107    526.0823    787.6160 307.6922079  +6.3673610     4208.424     9588.853     10442.34     91.58164     183.2364     366.9478      2.241     5.52     1233.636     64.70625     431.6215        44     1.807     1.483 -85.81   0
       108    442.4153    785.5797 307.7270579  +6.3654009     2524.324       6204.8     9507.339     91.58164     183.3095     366.9843      3.118    12.54     1237.773     64.70625      282.157        51     2.995     1.575  58.49   2
       109    771.1819    783.9821 307.5904352  +6.3770567     8154.088     16266.97     17878.05     91.72782     183.2364     367.0208      2.114     4.48     1225.094     64.70625     837.7705        54     1.757     1.472 -75.25   0
       110    793.1269    778.3737 307.5814994  +6.3801071     909.7574     1811.168     1795.235     91.58164     183.4556     366.9843      2.111     5.63     1224.301     64.70625     121.0636        10     1.258     0.709 -38.01   0
       111    137.5236    776.6992 307.8541018  +6.3588414     1778.542     4247.062     4520.062     91.58164     183.7475     367.0938      2.399     6.87     1243.494     64.70625     193.5747        32     1.635     1.501  55.39   3
       112    122.0535    766.9767 307.8608598  +6.3623393     1093.755     2251.966     3065.913     91.43523     183.6016     366.8748      2.247     6.91     1243.132     64.70625     123.7667        16     1.418     0.944 -73.49   3
       113    129.1924    776.3633 307.8575763  +6.3587003     6822.652     15982.04     19120.12     91.14169     183.3826     366.8017      2.401     5.27     1243.395     64.70625     841.3977        56     1.825     1.663  87.77   3
       114    121.5370    773.4702 307.8608560  +6.3596386     1923.451     4578.942     5985.737     92.01949     183.6017     367.1303      2.641     6.47     1243.267     64.70625     218.6483        36     1.849     1.374  69.32   3
       115    704.8104    810.2982 307.6171475  +6.3639646     14782.48     30847.83     35236.19     91.72782     183.1633     366.8748      2.213     5.45     1229.466     64.70625     1457.945        57     1.798     1.566 -64.37   3
       116    916.7905    772.4352 307.5302859  +6.3866869     5041.078     9007.576     9856.198     91.43523     183.3095     366.8382      1.898     4.12     1221.629     64.70625     556.7211        34     1.511     1.252  88.84   0
       117    965.7865    772.1638 307.5099252  +6.3884323     1339.484     2310.033     2905.985     91.43523     183.3826     366.7652      1.696     4.82     1220.472     64.70625     176.9951        15     1.308     0.946  83.62   0
       118    672.1888    771.1718 307.6320183  +6.3790435     925.3128     1401.115     2001.452     91.43523     183.3826     366.9113      1.690     4.37     1228.109     64.70625     133.9703         7     1.092     0.498 -19.15   2
       119    672.9940    768.6678 307.6317674  +6.3801052     631.2809      1078.02     1531.016     91.43523     183.1633     366.8748      1.600     3.49     1227.924     64.70625     93.95337         5     0.800     0.440  19.91   2
       120    559.0371    768.9531 307.6791332  +6.3761763     1406.127     2716.808     2839.061     91.72782     183.6016     366.9843      2.097     5.21     1230.656     64.70625     167.9901        18     1.367     1.044 -62.81   0
       121    407.4426    768.7236 307.7421622  +6.3711948     740.5675     1753.506     1527.036     91.87377     183.6017     367.1303      2.233     8.17      1237.48     64.70625     106.0707        12     1.651     1.150  50.79   0
       122    911.0218    764.7404 307.5329411  +6.3896745     2396.792      4355.97     4952.888     91.58164     183.5287     366.9478      1.939     5.06     1221.378     64.70625     272.8685        28     1.540     1.218  83.55   0
       123    940.5068    763.9705 307.5207085  +6.3909756     2465.014     4371.513     4461.358     92.16497     183.3095     366.9843      1.869     4.36     1220.707     64.70625      264.745        25     1.299     1.252  69.25   0
       124    971.4739    763.6446 307.5078450  +6.3921424     1630.876     2848.539     3015.998     91.87377     183.6746     367.1303      1.898     4.95     1220.107     64.70625     188.6949        18     1.200     1.060 -66.33   0
       125    663.1588    763.5975 307.6360259  +6.3818718     864.8921     1745.966      2444.65     91.28858     183.3095     366.8017      2.330     6.56     1227.812     64.70625     135.4756        10     1.260     0.959 -63.63   0
       126    236.8613    760.3475 307.8133565  +6.3689348     1067.536     2421.005     4449.152     92.01949     183.5287     367.0573      2.934     6.73     1242.074     64.70625       141.11        14     1.745     0.729  -6.89   2
       127    235.5497    758.0000 307.8139807  +6.3698609     1073.642     2234.964     3704.115     91.14169     183.0169     366.5459      2.902     5.80     1241.995     64.70625     133.4524        11     1.140     0.829 -20.72   3
       128    928.8430    754.3164 307.5258800  +6.3945765     916.7562     1431.739     1225.804     92.01949     183.6016     367.0208      1.715     5.52     1220.406     64.70625     113.0198        10     1.131     0.760 -74.33   0
       129    901.9073    753.2755 307.5371133  +6.3941085     880.0649     1661.322     1673.002     91.87377     183.7475     367.0938      1.950     5.69     1220.924     64.70625     140.2183         8     1.362     0.669 -54.40   0
       130    955.3632    751.6020 307.5149448  +6.3965822      1883.19     3258.947      3991.38     90.99458     183.3826     366.8748      1.925     4.67     1219.955     64.70625     216.4069        19     1.308     0.986 -72.46   0
       131    675.5479    751.3661 307.6312847  +6.3873405     673.4367     1481.367     1628.591     91.87377     183.5287     366.9843      1.771     3.52     1226.348     64.70625      106.425         5     1.133     0.315  19.54   0
       132    997.1859    745.3318 307.4977661  +6.4005671     1423.266     2255.234     2253.191     91.43523     183.4556     366.9843      1.758     4.31     1219.292     64.70625     192.4631        13     1.001     0.942 -34.35   0
       133    797.8210    745.3076 307.5806531  +6.3939285     717.0765     1241.722     1572.195     91.87377     183.3826     366.9113      1.933     4.95     1222.199     64.70625     111.6885         6     1.089     0.638  85.97   0
       134    884.0602    740.9567 307.5449446  +6.3986041     1283.857     2347.944     2522.169     92.01949     183.6016     367.2398      1.961     6.81     1220.667     64.70625     138.4799        21     1.347     1.266  -4.60   0
       135     41.3156    731.8817 307.8956042  +6.3741273     1449.654     3084.846     3143.487     91.72782     183.8933     367.1668      2.168     6.53     1241.897     64.70625     187.7944        20     1.481     1.162 -88.58   0
       136    841.5013    732.2355 307.5629298  +6.4007884     1012.488     2047.034     2276.588     92.01949     183.4556     367.3127      2.060     6.87     1220.805     64.70625     134.5868        15     1.310     1.009  34.77   0
       137    653.2797    720.1245 307.6415882  +6.3995068     3893.817     8644.802     9095.797     92.31023     183.8933     367.2398      2.233     5.59     1224.622     64.70625     408.2035        40     1.729     1.427 -84.61   0
       138    600.3140    718.1263 307.6636755  +6.3985614     923.7784      1999.39     1945.498     92.16497     183.9662     367.0938      2.370     6.14      1225.83     64.70625     127.4572        11     1.154     0.919 -80.98   0
       139    116.7303    715.7620 307.8647961  +6.3833241     2157.637     4858.183     5610.512     91.87377     183.6016     367.1668      2.329     5.79     1241.122     64.70625     274.9091        31     1.581     1.390  64.99   0
       140    990.3944    715.0019 307.5016016  +6.4128749     2012.983     3498.579     3181.281     91.28858     183.2364     366.8748      1.844     4.26     1217.901     64.70625     259.9073        23     1.378     1.142 -64.67   0
       141    626.8669    715.6124 307.6527203  +6.4004884      1183.36     2626.462     3203.591     91.43523     183.3826     366.9843      2.495     6.36     1224.907     64.70625     165.5781        14     1.500     0.756 -53.79   0
       142    770.2126    712.1250 307.5932407  +6.4067196      12952.4     27868.62     30811.13     91.43523     183.2364     366.8748      2.205     4.94     1220.406     64.70625     1258.034        65     1.863     1.555 -77.08   0
       143    900.1608    711.6367 307.5392297  +6.4112578     2769.749     4970.023      5351.23     91.72782     183.4556     366.9478      1.934     4.72     1218.335     64.70625     298.8113        28     1.562     1.150 -71.33   0
       144    469.7854    710.9976 307.7181808  +6.3971385     614.6531     1508.588     1511.668     91.58164     183.2364     366.9113      2.562     3.87     1231.354     64.70625     83.57349         5     0.833     0.516 -30.82   0
       145    243.9084    705.8420 307.8122589  +6.3916952     3362.129     8353.122     9213.045     92.01949     183.6016     367.2033      2.432     5.90     1238.309     64.70625     407.4045        45     1.786     1.628 -79.14   0
       146    650.7977    704.9357 307.6431285  +6.4057007     4153.458     10121.35     11846.27     91.28858     183.3095     366.8382      2.425     5.69     1223.441     64.70625     432.9166        46     1.833     1.563 -67.89   0
       147    910.2927    696.8767 307.5355101  +6.4176954     962.5211     1682.788     1479.577     91.72782     183.8204     367.0938      1.831     5.74     1217.157     64.70625     144.2438         9     1.064     0.871  65.43   0
       148    722.5710    693.2392 307.6136797  +6.4129330     2196.503     5098.012     6545.481     91.43523     183.3095     366.9478      2.520     6.17     1220.004     64.70625     257.9094        32     1.709     1.320 -80.06   0
       149    678.7457    693.3029 307.6318984  +6.4114422     757.5916     1494.472      1661.77     91.87377     183.6016     367.3492      2.319     4.05     1221.845     64.70625     125.0789         7     1.077     0.617  68.59   2
       150    988.7197    689.7654 307.5031398  +6.4232483     7057.985     12764.46     13238.77     91.87377     183.6746     367.1303      1.927     4.03     1216.424     64.70625     786.0432        39     1.610     1.246 -84.52   0
       151    927.2207    690.2560 307.5286930  +6.4209959     1875.618     3482.629     3458.074     91.43523     183.6017     366.8748      1.935     4.72     1216.518     64.70625     221.3641        24     1.360     1.233 -71.00   0
       152      7.9394    690.2764 307.9108804  +6.3901971      1079.74     2652.428     3157.873     92.31023     183.6746     365.0075      2.397     8.70     1240.323     64.70625     156.5798        21     1.808     1.169 -20.53  16
       153     66.3729    685.0998 307.8867628  +6.3943018     14472.18     35034.01     39784.56     92.01949     183.3095     366.9843      2.389     5.75     1239.567     64.70625     1597.197        70     2.004     1.667  86.13   0
       154    527.5512    687.6983 307.6949460  +6.4087010      933.153     2330.644     3062.613     92.01949     183.5287     367.3127      2.964     6.97     1227.198     64.70625     148.5271        12     1.523     0.894  -6.38   2
       155    496.4825    682.5789 307.7080345  +6.4097765     754.8198     1798.049     1245.652     91.72782     183.2364     366.9843      2.297     9.24     1227.796     64.70625     115.9746        14     1.775     1.343  66.05   0
       156    712.3699    676.9578 307.6184656  +6.4193205     2101.169      4704.54      4817.76     91.58164     183.5287     366.9113      2.207     6.33     1219.427     64.70625     222.9923        32     1.713     1.319 -42.01   0
       157    734.3573    675.1440 307.6093847  +6.4208046     2558.556     5430.272     6023.528     91.87377     183.5287     367.1303      2.214     5.12     1218.482     64.70625     285.7134        34     1.543     1.423 -51.06   0
       158    566.2153    672.2202 307.6793899  +6.4163913     1623.389     3772.834     4730.052     91.58164     183.3826     366.9843      2.534     5.43     1224.446     64.70625     197.9164        18     1.471     0.939  33.78   2
       159    401.6226    674.3595 307.7477484  +6.4099952     821.1006     2126.206       2047.3     91.58164     183.3826     366.8382      2.509     8.11      1232.99     64.70625      124.132        14     1.859     0.989  17.62   0
       160    310.5713    672.5511 307.7856634  +6.4076894     795.5699     1837.642     1902.346     91.58164     183.6746     366.9843      2.244     7.82     1234.344     64.70625     115.7662        12     1.535     1.115 -43.68   0
       161    226.9971    672.8347 307.8203991  +6.4047674     1083.347     2597.813      3223.15     90.99458     183.3826     366.8017      2.385     7.87     1235.936     64.70625     170.0238        17     1.652     1.048 -17.52   0
       162   1006.9380    671.2241 307.4961836  +6.4315177     4047.899     7065.435     6779.264     91.58164     183.5287     366.9843      1.826     4.17     1215.164     64.70625     448.8065        32     1.432     1.282 -80.65   0
       163    972.3701    670.1335 307.5105927  +6.4308166     6196.324     11353.61     12204.48     91.72782     183.6016     367.0208      1.960     4.26     1215.068     64.70625     686.5776        40     1.609     1.292 -84.01   0
       164    131.1236    663.9551 307.8605559  +6.4052163      12448.7     31623.96     35925.42     91.87377     183.6746     367.1303      2.432     5.92     1237.873     64.70625     1441.305        78     2.038     1.764  81.07   0
       165    418.1612    664.6825 307.7411972  +6.4145485     1459.104     3715.804     4696.161     92.01949     183.6746     367.0573      2.586     6.67     1231.845     64.70625     152.3104        31     1.726     1.470 -52.19   0
       166    967.2837    653.1382 307.5132747  +6.4376705     5103.333     10046.34     11192.69     92.16497     183.6016     367.1303      2.098     4.45     1213.116     64.70625     545.6245        38     1.563     1.382  69.68   0
       167   1022.2961    648.2682 307.4905638  +6.4415160     74091.58     121489.6     127758.2     91.87377      167.578     301.2617      1.796     4.10     1212.135     64.70625     8386.336        68     1.774     1.189 -85.25  24
       168    560.9460    648.6248 307.6823713  +6.4259658     25539.77     64946.26     74654.37     91.58164     183.6746     366.8748      2.444     5.81     1222.842     64.70625     2441.407        91     2.033     1.813 -76.01   0
       169    168.8498    645.5139 307.8454921  +6.4141045     1439.323     3401.929     3327.673     92.01949     183.4556     367.1668      2.301     7.82     1236.432     64.70625      177.495        25     1.639     1.427  81.27   0
       170    458.2532    632.4919 307.7256085  +6.4291944     31590.88     84170.73     97872.98     91.87377     183.3826     367.2762      2.529     6.07     1226.967     64.70625     3175.644       100     2.115     1.857 -81.18   0
       171      2.4785    634.2030 307.9150400  +6.4131846     1044.093     1873.492     1295.582     91.28858     164.0224     296.8713      1.856     8.04     1237.731     64.70625     165.9279        17     1.728     1.046 -72.27  24
       172    133.1962    627.0703 307.8609355  +6.4205280     926.4288     1840.775     1460.802     91.43523     183.1633     366.9113      2.075     6.46     1235.404     64.70625     123.2395        12     1.247     1.093  45.37   0
       173    302.8380    622.8478 307.7905483  +6.4279695     940.9225     2718.742     3767.994     91.87377     183.6016     366.9843      3.184     5.76     1230.639     64.70625     156.2246        10     1.226     0.996  12.60   2
       174    730.2856    615.6853 307.6130666  +6.4452401     3168.473     7206.076     7478.189     91.72782     183.7475     367.1668      2.249     5.47     1215.385     64.70625     326.2521        38     1.658     1.447 -62.52   0
       175    783.7280    611.0617 307.5910005  +6.4489358     8496.893     19122.62     21601.37     92.16497     183.6016     367.1668      2.303     5.28     1213.263     64.70625     842.6536        57     1.816     1.586 -79.61   0
       176    607.8108    609.2833 307.6642042  +6.4437916     1492.015     3598.224     3832.207     91.58164     183.3095     366.9113      2.410     8.23     1217.906     64.70625     148.7953        30     1.861     1.320 -73.26   0
       177    525.6482    611.7402 307.6982834  +6.4400269     850.0927     1593.995     1846.922     92.01949     183.6017     367.1668      2.192     5.81      1221.78     64.70625     103.7694         8     1.140     0.834 -33.04   0
       178   1023.1461    609.6800 307.4914975  +6.4574912     1565.377     2163.602     2705.114     86.92822      154.863     286.2563      1.523     3.66     1207.127     64.70625     271.3112        12     1.113     0.728 -86.19  24
       179    924.7641    605.6778 307.5325383  +6.4558665     807.8101     1986.338     2990.101     91.87377     183.6746     367.0938      2.455     7.72     1208.807     64.70625     106.3419        12     1.782     0.935 -77.15   0
       180    860.0598    594.4146 307.5598185  +6.4583630     1811.158     3818.384     4450.788     91.43523     183.5287     366.8017      2.175     6.16     1211.196     64.70625     208.0256        27     1.714     1.217  82.34   0
       181    818.6129    591.8759 307.5771370  +6.4580290     1613.106     3560.708     3574.924     91.58164     183.2364     366.8748      2.212     6.87     1211.541     64.70625     178.0887        27     1.610     1.285 -68.83   0
       182    246.8420    586.9561 307.8150356  +6.4409220     3940.637     10263.35     11484.47     91.72782     183.6016     366.9113      2.481     6.17     1231.047     64.70625     451.6509        53     2.004     1.626  85.88   0
       183    789.7150    587.5156 307.5892985  +6.4588662     1598.333     3701.183     5634.645     91.72782     183.7475     367.2033      3.005     6.54     1211.961     64.70625     194.2053        31     1.647     1.521  44.29   1
       184    180.8890    581.5719 307.8426377  +6.4409321     28499.97     77502.23      93909.2     92.16497     183.3095     366.9843      2.631     6.36     1231.976     64.70625      3194.66       113     2.263     1.902 -87.11   0
       185    105.0361    577.6633 307.8743061  +6.4399982     3128.512     8435.249     9481.073     91.87377     183.6017     367.0938      2.490     6.29     1232.514     64.70625     363.8364        50     1.926     1.671  69.81   0
       186    969.5755    574.8020 307.5149362  +6.4701200      956.189     1770.872     2031.402     91.58164     183.2364     366.8748      2.163     5.47     1205.794     64.70625     141.0499        10     1.241     0.715  70.50   0
       187    355.3849    567.7405 307.7705518  +6.4525047     7435.952     15095.81     18471.31     91.43523     183.5287     366.8017      2.261     7.23     1225.123     64.70625     807.3436        45     2.164     1.418  64.49   3
       188    353.3039    569.6774 307.7713520  +6.4516345     6762.368     13075.71     14781.25     91.72782     183.8204     367.1668      2.059     4.84     1225.334     64.70625     738.4584        23     1.483     1.151  69.35   3
       189    835.5945    570.1313 307.5708028  +6.4675818     2737.101     5822.508      6745.35     91.43523     183.1633     366.9113      2.211     5.14     1210.141     64.70625     321.1226        32     1.543     1.362 -73.42   0
       190    156.3085    567.0099 307.8533474  +6.4461238     1030.667     2746.058     4101.646     91.72782     183.1633     366.8017      3.080    10.41     1230.866     64.70625     108.7279        24     1.925     1.569  -3.06   0
       191    789.6691    563.5200 307.5901199  +6.4687810     3618.416     8156.312     9127.551     92.31023     183.8933     367.0573      2.298     5.65     1210.912     64.70625     363.3285        43     1.825     1.460 -58.17   0
       192    520.6184    563.4371 307.7019941  +6.4598196     3198.788     8552.855     9964.618     91.58164     183.3826     366.8382      2.531     6.28     1219.476     64.70625     333.3032        50     1.856     1.699 -73.75   0
       193    799.1495    582.9730 307.5855274  +6.4610584     93540.47     215974.4     244358.3     91.58164     183.7475     367.0208      2.321     5.28     1211.436     64.70625     9619.986       139     2.055     1.787 -77.69   0
       194    378.5247    560.0230 307.7611898  +6.4564698     773.6359      1882.86     1975.241     91.58164     183.4556     367.0208      2.565     4.99       1223.9     64.70625     104.6788         6     1.277     0.552 -62.94   0
       195    166.3284    557.6528 307.8494963  +6.4503272     2745.262     5440.061     7166.121     91.87377     183.5287     367.0573      2.247     6.85     1230.018     64.70625     297.4313        25     1.853     1.046  38.45   3
       196    169.0074    555.5163 307.8484543  +6.4513001     2843.628     5173.348     6747.944     91.58164     183.2364     366.9113      1.981     6.58     1229.849     64.70625     373.6681        22     1.731     0.906  37.00   3
       197    565.2871    556.1070 307.6836668  +6.4643440     1243.427     3213.087     3774.445     92.01949     184.1118     367.2033      2.555     8.73     1217.227     64.70625     134.3566        22     1.699     1.253 -31.56   0
       198     39.4536    555.6561 307.9023140  +6.4468867     2578.582     6555.839     7594.204     92.16497     183.6017     367.0573      2.518     6.35     1232.706     64.70625     291.7072        44     1.800     1.664  74.32   0
       199    262.8996    553.2227 307.8094932  +6.4554011     39875.54     113421.7     134478.2     92.16497     183.3095     366.8382      2.632     6.64     1227.696     64.70625     4562.004       116     2.210     1.941 -84.96   0
       200    785.8523    545.3419 307.5923148  +6.4761657     9386.299     21694.31     24622.18     92.01949     183.6016     367.0938      2.325     5.36     1210.196     64.70625     982.9976        59     1.828     1.638 -79.45   0
       201    489.5419    543.9311 307.7155697  +6.4668398     20033.53     55747.26     68317.95     92.16497     183.5287     367.0208      2.711     6.29     1219.464     64.70625     1827.238       108     2.203     2.060 -87.39   0
       202    961.8991    546.1495 307.5190846  +6.4817050       1029.6     1967.368      2129.78     92.01949     183.6016     367.2762      2.133     6.69     1204.174     64.70625     126.3412        12     1.308     0.961 -64.07   0
       203    202.2661    540.4788 307.8351320  +6.4586314     819.3422     2173.478      2696.95     92.16497     183.7475     367.0573      2.411     5.84     1228.358     64.70625     133.1512         8     1.832     0.524 -43.41   0
       204    805.4132    555.4731 307.5838424  +6.4726320     769.3189     1494.818     1200.725     91.43523     183.2364     366.8382      2.096     5.60     1210.087     64.70625     97.32849         9     1.072     0.825 -81.77   0
       205    649.5322    538.7499 307.6492188  +6.4743348     1544.174     3905.765     4292.888     91.87377     183.4556     367.0938      2.461     8.25      1213.92     64.70625     165.5007        31     1.695     1.489  79.14   0
       206    388.2199    534.0116 307.7580319  +6.4675439     753.6793     2330.352     2354.312     91.58164     183.2364     366.9843      2.722     9.81     1221.326     64.70625       97.396        15     1.962     1.369  63.74   2
       207    659.7763    537.1082 307.6450142  +6.4753558     602.8538     898.9019     1375.427     92.01949     183.3826     366.9113      1.499     4.85     1213.638     64.70625     110.8636         5     1.130     0.621  -8.47   0
       208    134.0542    531.6468 307.8637903  +6.4599892     12470.27     33653.37     39206.51     92.01949     183.6016     367.1303      2.540     6.26     1228.928     64.70625     1456.976        78     2.106     1.794  86.84   0
       209    498.7535    532.3879 307.7121266  +6.4719185     1036.296     2735.935     3661.735     91.28858     183.3826     366.7652      2.865     8.69     1218.238     64.70625     141.9009        19     1.579     1.336  82.51   0
       210    318.4149    533.9920 307.7870570  +6.4652109     1553.905     3366.452     3921.142     91.58164     183.3095     366.9113      2.356     7.27     1223.455     64.70625     176.7888        18     1.532     1.078  38.28   3
       211    320.4903    532.0381 307.7862597  +6.4660880     1595.479     2552.888     3335.564     92.01949     183.5287     367.1303      1.945     6.90     1223.133     64.70625     201.6947        17     1.690     0.789  45.46   3
       212    861.3039    531.4336 307.5614057  +6.4844318     1023.394     2234.006     2078.163     92.16497     183.4556     367.2398      2.126     7.61     1207.157     64.70625     106.6383        17     1.539     1.054 -23.44   0
       213     99.4646    530.3044 307.8782170  +6.4593811     1221.105     3357.917     3803.754     91.87377     183.7475     367.1303      2.535     7.47     1230.329     64.70625     142.8652        26     1.649     1.421 -88.29   2
       214    959.2472    525.8469 307.5208651  +6.4900068     3607.294     6828.369     7316.653     92.01949     183.4556     367.0938      2.000     4.94     1203.258     64.70625     398.6129        32     1.595     1.257  87.00   0
       215      1.2848    516.2069 307.9195126  +6.4619040     3350.177     4783.652     5004.657     78.84611     144.8495     274.9886      1.408     3.87     1231.028     64.70625      871.724        17     1.627     0.585  88.90  24
       216    430.9298    512.6114 307.7409914  +6.4778189     18944.71     54529.08     64968.46     91.43523     183.3095     366.8748      2.630     6.53     1218.075     64.70625     1994.856        96     2.181     1.913 -82.09   0
       217    638.8954    512.2033 307.6545307  +6.4849495     5764.365      15264.5      17849.7     91.72782     183.2364     366.7286      2.499     6.16     1213.287     64.70625     524.4691        57     1.942     1.692 -80.92   0
       218    196.1825    510.3641 307.8386744  +6.4708715     8755.077     25150.69     30224.73     91.43523     183.3826     366.8382      2.672     6.52     1225.308     64.70625     1014.572        77     2.107     1.900  79.28   0
       219    813.8827    511.1428 307.5818027  +6.4912344     571.5291     1250.992     1745.686     92.01949     183.6016     367.1668      2.506     6.24     1207.171     64.70625     81.87183         8     1.132     0.967  40.52   0
       220    972.1973    511.0102 307.5159753  +6.4965698      704.454     1471.076     1565.888     91.43523     183.2364     366.9113      2.025     3.94     1202.026     64.70625     81.71631         5     0.853     0.521  35.32   0
       221    559.8679    510.3986 307.6874520  +6.4830515     1332.673     3258.662     3998.863     91.43523     183.0901     366.8748      2.605     8.45       1215.2     64.70625     171.0736        19     1.785     1.117  82.90   2
       222    163.1441    509.8145 307.8524299  +6.4699887     715.4576     1470.372     2246.286     91.28858     183.4556     366.7652      1.807     4.20      1225.78     64.70625     91.95056         6     1.200     0.419  28.74   0
       223    934.4906    505.9338 307.5318245  +6.4974107      3222.86     6945.443     6859.532     92.01949     183.7475     367.1303      2.165     5.05     1203.201     64.70625     358.1133        40     1.726     1.418  89.64   0
       224    607.6510    504.5399 307.6677794  +6.4870714     3286.874     8813.003     10176.44     92.01949     183.5287     367.0938      2.506     6.56     1214.082     64.70625     299.1224        47     1.840     1.672  64.78   0
       225    957.0903    498.3495 307.5226799  +6.5012984     2283.359     4361.169     4790.303     92.01949     183.3826     367.2762      1.960     5.13     1201.935     64.70625     253.0308        27     1.603     1.111 -81.53   0
       226    519.8237    495.8083 307.7045921  +6.4877404     3378.955     9505.263     11709.45     91.58164     183.3095     366.9113      2.678     6.76     1215.093     64.70625     324.3928        51     2.013     1.623  88.88   0
       227    367.3950    495.0175 307.7680003  +6.4829597     1099.698     3046.389     4465.348     91.58164     183.1633     366.9113      2.988     8.43     1217.154     64.70625     161.8588        17     2.115     0.938  28.48   2
       228    876.3374    491.4878 307.5564891  +6.5014411     2015.063     4361.969      5301.43     91.87377     183.8204     367.1303      2.362     5.33     1204.156     64.70625     203.3722        32     1.518     1.414 -72.91   0
       229    883.8146    485.9452 307.5535649  +6.5039811     1375.763     2944.205     3852.433     91.28858     183.5287     366.7652      2.352     6.37     1203.641     64.70625     176.6113        21     1.501     1.125  54.55   0
       230    922.0299    484.7676 307.5377129  +6.5057423     765.9108     1586.275     1671.373     91.43523     183.3095     366.7652      2.592     4.31     1202.605     64.70625     103.9845         7     0.750     0.704 -45.99   0
       231    706.6115    481.7324 307.6273929  +6.4998054     1436.141     3635.356      3958.59     91.43523     183.4556     366.9843      2.467     7.48     1209.502     64.70625     169.3551        21     1.904     0.902 -81.34   2
       232    378.4785    480.2823 307.7638864  +6.4894205     1580.484      4553.61     6692.552     92.16497     183.8933     367.2398      3.149     7.50     1215.233     64.70625     186.0746        35     1.752     1.636 -58.30   0
       233     71.4287    481.3991 307.8915208  +6.4786476     860.9508     2174.006     2564.906     91.43523     183.3826     366.8748      2.066     4.88     1228.682     64.70625     121.8021         9     1.414     0.478 -85.06   2
       234    606.3956    476.8852 307.6692279  +6.4984577     4710.196     12832.55      15289.3     91.43523     183.1633     366.6921      2.594     6.43     1213.166     64.70625     520.8627        64     2.036     1.775 -73.12   0
       235    769.1246    473.1090 307.6016864  +6.5054575     8951.756     21880.69     26140.04     92.01949     183.8933     367.1303      2.473     5.55     1206.304     64.70625     908.2947        73     2.182     1.725 -64.99   0
       236    289.0734    473.4897 307.8012902  +6.4892283     1343.179     3566.842     4039.123     92.01949     183.8933     367.1303      2.586     9.24     1217.373     64.70625     147.3798        27     1.750     1.362  54.90   0
       237    372.4556    469.1577 307.7667644  +6.4938157     743.1661     1988.326     3320.917     91.87377     183.5287     367.1303      3.483     7.28     1214.485     64.70625     106.0538        10     1.540     0.963   3.07   2
       238    953.9484    468.2670 307.5249908  +6.5136254     1192.613     2260.469     2328.514     91.87377     183.5287     367.0938      2.022     6.72     1199.667     64.70625     169.0724        18     1.505     0.936  88.57   0
       239    106.7187    465.3936 307.8773864  +6.4864483     2079.179     5630.582     7321.051     91.58164     183.0901     366.8748      2.741     7.18     1226.527     64.70625     234.1273        40     1.841     1.573 -85.63   0
       240    744.4219    464.2971 307.6122535  +6.5082739      1119.34     2672.521     2745.215     91.87377     183.3826     366.8748      2.390     8.29     1206.814     64.70625     140.1233        18     1.622     1.184 -51.81   0
       241   1008.1521    462.6907 307.5026365  +6.5177362     3131.487     6353.666     7247.695     92.01949     183.4556     367.2398      2.131     5.43     1196.451     64.70625     329.6326        39     1.791     1.342  35.39   0
       242    263.3137    463.5849 307.8123343  +6.4924568     691.6522     1320.325     1720.641     91.58164     183.3095     366.9843      2.452     4.33     1217.954     64.70625     104.2118         5     1.034     0.516  45.55   0
       243    342.0113    461.7556 307.7796723  +6.4958535     1367.189     2850.527      3854.13     91.43523     183.4556     366.7652      2.570     8.39      1214.79     64.70625     151.2467        22     1.939     1.015  44.35   2
       244    344.4915    459.5097 307.7787164  +6.4968648     1183.609     2155.882     2660.806     92.01949     184.1845     367.2033      2.205     6.41      1214.59     64.70625     157.6913        12     1.962     0.588  32.63   3
       245    697.7987    458.4229 307.6318378  +6.5091436      846.064     2087.375     1983.162     91.58164     183.2364     366.8382      2.373     8.15     1207.855     64.70625     106.0516        14     1.755     1.058  74.54   0
       246    810.0323    447.0220 307.5855477  +6.5176040     1071.491     2597.573     3206.077     91.43523     183.3826     366.8748      2.413     8.72     1202.463     64.70625     150.5931        21     1.750     1.295 -73.53   0
       247    707.3792    445.0422 307.6283017  +6.5149933     7394.222     19086.99     22390.12     91.43523     183.4556     366.9113      2.481     6.16     1206.557     64.70625     764.3623        68     2.042     1.742 -80.41   0
       248    462.5655    448.3562 307.7299930  +6.5054320     641.7521     1467.532     1303.786     91.72782     183.6017     366.9478      2.294     3.92     1210.762     64.70625     92.27722         5     1.023     0.431 -74.68   0
       249    824.3950    446.9216 307.5795784  +6.5181249     823.2537      1561.28     1866.915     91.58164     183.0169     366.8382      2.146     5.70     1202.047     64.70625     130.5374        10     1.486     0.945 -48.65   0
       250    628.4193    440.9844 307.6612724  +6.5140303     1335.005     3593.782     4146.513     91.72782     183.3095     366.9843      2.613     7.96     1208.626     64.70625     170.5403        29     1.629     1.473  -0.48   0
       251    600.9854    436.1856 307.6728413  +6.5150957     7190.703     21043.97     29466.26     91.72782     183.2364     367.0208      3.049     7.65     1208.855     64.70625     673.6918        93     2.653     1.938  39.36   0
       252    932.7210    434.9515 307.5349307  +6.5266855     2455.414     5342.204     5490.496     92.01949     183.6746     367.0573      2.133     5.65     1197.005     64.70625     287.0155        31     1.682     1.245  83.68   0
       253    372.0070    431.0834 307.7682296  +6.5095345     12444.72     36925.79     44210.22     91.58164     183.2364     366.9478      2.680     6.54     1211.537     64.70625     1263.667        85     2.152     1.934 -86.28   0
       254    119.0431    430.8505 307.8734249  +6.5011370     1132.369      2782.43      3085.02     92.16497     183.6016     367.1303      2.455     7.09     1223.313     64.70625     149.5802        15     1.564     0.902 -74.26   2
       255    887.9282    430.6529 307.5537017  +6.5269681      1040.74     2131.445     3306.815     91.87377     183.5287     367.0573      2.865     5.82     1198.484     64.70625     138.2606        10     0.994     0.979   8.61   0
       256    901.4803    425.1705 307.5482491  +6.5296858     3155.572     6772.025     7455.327     91.87377     183.6016     367.0573      2.224     5.36     1197.357     64.70625     334.9319        39     1.717     1.454  89.99   0
       257    229.6521    421.7087 307.8277394  +6.5086313     6010.607     17569.47     21481.15     91.87377     183.3826     367.3127      2.690     6.87     1215.909     64.70625     621.1451        69     2.149     1.837  89.24   0
       258    129.9540    410.2657 307.8695810  +6.5100101     2212.581      6440.43     7885.332     92.01949     183.5287     367.0938      2.684     7.14     1221.629     64.70625     258.3386        46     1.919     1.676  66.83   0
       259    152.6158    406.2674 307.8602923  +6.5124241      1183.35     3279.212     4192.966     91.43523     183.4556     366.9843      2.952     9.32     1220.536     64.70625     134.1245        24     1.896     1.277 -63.37   2
       260     53.0269    425.2651 307.9010631  +6.5012249     650.4609     1483.046     2118.384     91.58164     183.5287     366.9843      2.465     5.26      1227.13     64.70625     119.6281         5     1.259     0.621  31.05   0
       261    963.1565    400.1675 307.5234353  +6.5420749     726.6498      1456.31     1813.858     91.58164     183.5287     366.9113      2.103     3.96     1191.709     64.70625     98.95129         5     0.996     0.451  45.27   0
       262    377.4386    399.4987 307.7670317  +6.5227687     687.0049      1522.77     2540.058     92.01949     183.4556     367.3492      3.057     3.45     1208.637     64.70625     111.5955         5     0.759     0.453 -20.32   2
       263     25.6547    395.3855 307.9134516  +6.5126510     1530.215     4113.116     4823.905     91.28858     183.5287     366.7652      2.639     8.27      1227.21     64.70625     207.4501        36     2.145     1.475  89.50   0
       264    429.3788    394.3766 307.7456047  +6.5266267     3173.598     9416.768     11090.36     91.72782     183.3826     367.0573      2.649     6.96     1205.963     64.70625     344.5535        56     1.939     1.831 -86.93   0
       265    769.4282    391.5433 307.6042887  +6.5391748     6987.346     16898.07      20393.3     91.58164     183.6746     366.9843      2.556     5.54     1200.793     64.70625     753.3531        71     2.272     1.854 -10.80   2
       266    760.5116    393.8705 307.6079189  +6.5379153     902.4681     1786.042      2318.57     92.16497     183.8933     367.0938      2.177     6.03     1201.276     64.70625     140.0959        10     1.584     0.645  36.72   2
       267   1013.5706    386.6646 307.5029202  +6.5493350     2742.546     5253.899     6135.018     91.72782     183.6746     367.0208      2.082     4.37     1187.463     64.70625     355.3506        31     1.431     1.339 -67.74   0
       268    450.1591    378.9551 307.7374809  +6.5336959     892.0909     2757.898     2902.184     91.72782     183.6016     366.9113      2.554     8.83     1204.036     64.70625     127.8612        17     1.640     1.481 -75.59   0
       269    476.0288    378.5663 307.7267360  +6.5347233     1297.869     2603.354      3264.08     91.43523     183.3095     366.8382      2.349     6.34      1203.14     64.70625     183.7522        19     1.559     1.002  60.27   2
       270    479.0000    377.0445 307.7255515  +6.5354517     1072.895      2122.66      2816.58     91.14169     183.1633      366.619      2.185     7.03     1202.834     64.70625      152.601        12     1.669     0.831  68.00   3
       271    835.0110    374.5185 307.5775842  +6.5484001     18794.44     44537.68     51406.77     91.58164     183.3095     366.9113      2.400     5.35     1197.132     64.70625     1964.392        84     2.113     1.696 -77.47   0
       272    608.1516    365.9181 307.6722158  +6.5443733     1241.567     3329.866     4354.565     92.01949     183.6016     367.1303      2.982     9.95      1200.75     64.70625     153.9492        22     1.838     1.503  42.83   2
       273    691.4789    360.5760 307.6377416  +6.5493675     38818.45     102718.3     120455.8     91.58164     183.3826     367.0938      2.564     6.04     1199.839     64.70625     3841.055       115     2.167     1.892 -76.99   0
       274    553.7193    358.3667 307.6951053  +6.5456723     1272.057     3436.883     4359.874     91.87377     183.5287     367.0938      2.656    10.41     1199.938     64.70625     161.2559        27     1.842     1.639  41.09   2
       275     91.6090    356.5102 307.8873360  +6.5309342     2868.983     7954.354     9081.995     91.72782     183.2364     366.8382      2.598     6.50     1221.236     64.70625     323.9657        51     1.971     1.685 -76.83   0
       276    536.4737    354.5295 307.7024058  +6.5466807     2865.271     5849.306     6878.649     92.31023     183.7475     367.0938      2.343     6.05     1199.739     64.70625     300.5668        25     1.662     1.085  33.36   3
       277    538.3432    352.1849 307.7017070  +6.5477122     2644.429     4927.783     5895.765     91.28858     183.5287     366.7652      2.008     6.74     1199.354     64.70625     311.5853        28     1.996     0.962  33.12   3
       278    400.2035    348.8082 307.7592672  +6.5444794     10831.49     33166.91     39971.65     91.28858     183.2364     366.9478      2.719     6.84      1203.47     64.70625      1021.01        84     2.181     1.923 -88.57   0
       279    265.2820    351.9853 307.8152679  +6.5386399     996.2689     2903.231     3570.135     91.58164     183.3095     366.9113      2.745     8.67     1210.222     64.70625     157.3824        16     1.872     1.121  60.59   2
       280    488.2992    340.3129 307.7229167  +6.5509423     3524.117     7689.667     9856.589     92.01949     184.1118     367.1668      2.434     7.72      1198.74     64.70625     375.5275        37     2.110     1.212  61.60   3
       281    490.6143    337.8338 307.7220371  +6.5520443     3343.062     6219.868     7301.535     91.58164     183.3095     366.9478      1.965     5.95     1198.458     64.70625     380.2927        24     1.753     0.881  54.11   3
       282    757.3900    339.2883 307.6110433  +6.5603671     1303.708     2122.118     2817.778     91.58164     183.2364     366.8382      1.724     6.49     1197.573     64.70625     177.3264        14     1.522     0.776  50.58   3
       283    759.5228    337.0231 307.6102321  +6.5613745     1266.264     2898.113     3779.742     91.58164     183.4556     367.0208      2.424     8.10     1197.353     64.70625     153.9827        20     2.042     0.897  57.76   3
       284    913.8539    335.8822 307.5460862  +6.5669972      537.926     1295.547     1679.616     92.01949     183.6016     367.1668      2.704     7.64     1190.033     64.70625     95.36523         7     1.664     0.981  34.93   0
       285    152.4081    330.1927 307.8629394  +6.5438537     570.2308     1198.355     1640.029     91.28858     183.3826     366.9478      2.383     4.28     1216.828     64.70625     76.40051         5     0.938     0.557 -40.72   0
       286    379.3633    323.4943 307.7687839  +6.5542413     3353.643     9519.751      11308.8     92.16497     183.4556     367.2033      2.653     6.80     1202.501     64.70625     337.6858        55     1.988     1.783 -63.08   0
       287    234.0584    325.2766 307.8291505  +6.5486284      770.995     2241.246      3177.13     92.16497     183.6016     367.0573      3.110     6.22     1210.671     64.70625     149.9816        11     1.405     0.775  51.45   0
       288    746.9552    319.0917 307.6160588  +6.5683647     28024.98     70703.09     81641.26     92.01949     183.5287     367.2398      2.459     5.74     1195.883     64.70625     3037.427        97     2.098     1.813 -80.43   0
       289    419.4601    318.6073 307.7522732  +6.5576052     915.3262     2654.837     3177.997     91.28858     183.3826     366.8382      2.811     9.63     1199.324     64.70625     127.1066        18     1.903     1.359  71.33   0
       290    981.6656    316.3889 307.5185349  +6.5773136     1207.689     2247.529     2443.396     91.43523     183.3826     366.9478      1.989     6.25     1185.067     64.70625     136.9185        12     1.176     1.005  75.25   0
       291    922.5222    314.9402 307.5431808  +6.5759406     1446.739     3125.501     3705.586     92.16497     183.6746     367.0573      2.367     7.47     1188.197     64.70625     151.7732        22     1.460     1.210 -81.53   0
       292    405.4081    314.4550 307.7582564  +6.5588500       910.95      2515.74     3010.385     91.28858     183.3826     366.7652      2.593     8.14     1199.806     64.70625     104.2739        14     1.586     1.167  13.62   0
       293    745.4203    303.6331 307.6172145  +6.5747017     3159.599     8130.782     9264.187     91.43523     183.3826     366.9113      2.527     6.65     1194.515     64.70625       340.23        48     2.073     1.564  89.58   0
       294    182.1637    305.3521 307.8514016  +6.5551186     1128.749     2751.408     2581.323     91.72782     183.5287     367.0208      2.281     8.75     1213.932     64.70625     115.0015        25     1.694     1.262 -32.35   0
       295    760.6757    302.2869 307.6109149  +6.5757677     1108.012     1869.958     2490.354     92.01949     183.9662     367.1668      1.705     6.55     1194.269     64.70625     190.1702        11     1.576     0.763  33.37   3
       296    761.9598    300.3204 307.6104467  +6.5766232     1259.176     2297.232     2518.514     91.87377     183.6016     367.0573      1.984     7.24      1194.09     64.70625     150.5125        16     1.672     0.879  23.31   3
       297    351.4997    296.1838 307.7812890  +6.5645926      928.313     2502.729     3151.624     92.01949     183.3095     366.8748      2.715     7.12      1203.25     64.70625     114.3567        15     1.680     0.846  51.60   0
       298     65.5220    295.5137 307.9002388  +6.5552623     780.1447     1278.212     1623.302     92.01949     183.9662     367.2033      1.799     5.73     1220.765     64.70625      104.343         9     1.322     0.700  26.82   0
       299    999.9050    292.2888 307.5117536  +6.5878810     4175.877     8415.063     9502.725     92.01949      184.039     367.1668      2.183     4.72     1182.881     64.70625     457.8844        41     1.708     1.396  75.88   0
       300    477.0032    293.9430 307.7291703  +6.5697259     786.1704     1737.017     2314.599     91.28858     183.3826     366.7286      2.147     4.49     1193.929     64.70625     121.5985         6     1.015     0.564  49.93   0
       301    240.9559    288.1823 307.8275298  +6.5641887     2613.929     7470.257     8554.221     91.58164     183.4556     366.8017      2.530     6.82     1208.943     64.70625      267.245        47     1.930     1.619 -64.42   0
       302    376.3519    278.3977 307.7715511  +6.5727760     730.0867     1847.334      2216.51     91.28858     183.2364      366.619      2.693     4.63     1199.478     64.70625     96.15808         6     1.080     0.563  54.54   0
       303    960.9838    276.6751 307.5284626  +6.5930361     693.8026     1158.336     1312.326     91.43523     183.3095     366.9843      1.719     3.85     1183.679     64.70625     110.8928         5     0.837     0.507  52.29   0
       304    144.9814    276.3795 307.8678395  +6.5658413     790.8181      1738.36     2057.155     91.72782     183.5287     366.9843      2.050     6.88     1215.715     64.70625     102.6782         9     1.573     0.844 -42.43   0
       305    554.3204    270.6722 307.6977957  +6.5819317     948.5002     2513.723     3236.092     92.31023     183.8933     367.0938      2.677     8.66     1189.598     64.70625     121.6591        19     1.659     1.263  -1.61   0
       306    716.8761    268.2324 307.6302709  +6.5883772     2386.312      5255.97     6031.663     91.87377     183.6016     367.0208      2.339     6.86     1190.695     64.70625      236.965        31     1.909     1.199  62.75   3
       307    719.3542    266.6712 307.6292925  +6.5891051      1556.27     2452.817     3061.693     92.01949     183.6017     367.0938      1.861     5.40     1190.641     64.70625     219.1024        11     1.360     0.711  58.95   3
       308    658.7755    267.8765 307.6544469  +6.5865819     995.4489     2826.346     3092.341     91.58164     183.5287     367.0573      2.461     8.63      1189.69     64.70625     138.6218        19     2.068     1.194 -67.35   0
       309    897.7573    269.0939 307.5550124  +6.5940607     1109.159     2405.382     2980.448     92.16497     183.5287     367.2398      2.514     7.37     1185.734     64.70625     128.2477        14     1.422     1.069  71.69   0
       310    912.4235    259.4858 307.5492336  +6.5985204     584.1148     1354.068     1967.699     92.01949     183.3826     366.9478      2.909     5.04     1184.256     64.70625     115.7096         6     1.222     0.587  67.09   0
       311    218.3750    253.0997 307.8381007  +6.5779276     990.9254     2907.036     3676.969     92.16497     183.3095     366.9478      2.840     8.30     1210.057     64.70625     124.5852        17     1.808     1.066  73.09   2
       312    860.2112    252.1132 307.5711959  +6.5998252     1047.995     2489.325     2955.646     91.58164     183.3095     366.9113      2.659     7.23     1186.073     64.70625     107.2328        15     1.414     1.036 -48.90   0
       313    749.0119    251.0889 307.6174793  +6.5965355     696.4993     1643.422     1629.899     91.72782     183.2364     366.9843      2.273     5.64     1189.478     64.70625     119.9858         7     1.588     0.565  61.86   2
       314    450.4676    244.4984 307.7418656  +6.5892693     9312.731     19791.15     23212.49     92.01949     183.7475     367.1303      2.295     7.33     1190.765     64.70625     926.9164        48     2.110     1.285  65.89   3
       315    453.2241    242.0076 307.7408028  +6.5903909     8406.324     16571.35     21576.41     91.43523     183.4556     366.9113      2.338     7.16     1190.307     64.70625     932.1023        50     2.145     1.457  61.10   3
       316    777.1919    242.1242 307.6060589  +6.6011815     6883.177     17447.62     20469.82     91.58164     183.0169     366.8748      2.462     5.76     1188.613     64.70625     792.5337        60     1.909     1.720 -86.94   0
       317    140.0439    236.5803 307.8712328  +6.5821215     1145.792      3046.85      4197.53     91.43523     183.4556     366.9113      3.001     9.10      1214.94     64.70625     122.0428        23     1.557     1.484  72.27   0
       318    913.6693    232.6207 307.5496132  +6.6096640     1041.825     2122.066     2434.541     91.58164     183.4556     366.9843      2.030     6.40      1181.81     64.70625     135.9441        14     1.165     1.132  62.41   0
       319    575.2933    228.7747 307.6904779  +6.5999475     2082.558     6204.479     7269.399     92.16497     183.3095     366.9113      2.664     7.66     1185.877     64.70625       223.29        48     1.913     1.753 -77.58   0
       320    539.1721    228.8935 307.7054969  +6.5986892     844.5004     2335.802     2727.974     92.16497     183.3095     366.9843      2.821     6.25     1185.837     64.70625     124.0105         9     1.301     0.843 -46.37   2
       321    380.7000    228.4916 307.7714192  +6.5935449     707.5657     1887.254      2157.93     92.01949      184.039     367.0573      2.345     7.74     1194.937     64.70625     94.61548        11     1.983     0.844 -81.99   0
       322    936.2211    225.8821 307.5404584  +6.6132008     1655.697     3582.967     3939.988     91.72782     183.2364     367.0208      2.326     6.14     1180.137     64.70625     220.7183        27     1.736     1.306  80.93   0
       323    882.2430    225.1594 307.5629334  +6.6116991     6718.405     15139.87      16820.7     91.72782     183.6016     366.9478      2.293     5.15     1182.782     64.70625     684.5667        56     1.852     1.629  89.59   0
       324      8.6513    222.2942 307.9263570  +6.5836045     12616.67     33928.51     40560.23     91.87377     183.5287     367.3492      2.620     6.15     1222.814     64.70625     1370.562        89     2.209     1.864 -79.28  16
       325    968.9116    223.0741 307.5269553  +6.6154512     6499.591     13264.32     14560.94     92.01949     183.9662     367.1668      2.168     4.62     1178.774     64.70625     715.0474        44     1.727     1.410  88.01   0
       326    679.9456    223.9399 307.6471138  +6.6054464      1377.92     3362.771     4550.271     92.16497     183.5287     367.0573      2.780     6.50     1185.766     64.70625      156.054        18     1.417     1.023  23.09   2
       327    489.5442    218.0329 307.7265018  +6.6015152     946.2579     2476.195     2648.696     91.87377     183.6016     367.0938      2.511     8.07     1185.309     64.70625      116.483        17     1.808     1.008 -36.76   0
       328    873.1161    213.9758 307.5671034  +6.6160161     1351.467     3075.595     3266.172     91.87377     183.3095     367.0573      2.246     7.57     1182.553     64.70625     139.4895        25     1.565     1.293 -35.53   0
       329    732.5338    211.2822 307.6256652  +6.6124349     20555.41     52589.43     60895.76     92.31023     183.8933     367.1668      2.517     5.88      1185.86     64.70625     2054.005        86     2.049     1.822 -82.85   0
       330    502.5615    214.5715 307.7212040  +6.6033816     1186.984     2129.468      3071.67     91.43523     183.3095     366.9478      2.396     5.86     1185.161     64.70625     135.4291        16     1.364     0.915 -62.84   2
       331    499.8219    214.1238 307.7223585  +6.6034749     1053.566     2167.466     3092.959     91.58164     183.3826     367.0208      2.490     5.98      1185.13     64.70625     144.1484         9     1.373     0.734 -77.38   3
       332    820.8060    214.3943 307.5888465  +6.6140972     1222.026     2539.293     2985.767     91.28858     183.3826     366.8748      2.261     7.10     1185.011     64.70625     164.1288        18     1.531     0.985 -22.09   0
       333    335.7067    210.8818 307.7907235  +6.5993126     3200.304      9218.89     12329.87     91.72782     183.8933     367.2033      2.966     7.67     1198.102     64.70625     292.6752        66     2.412     1.789 -80.01   0
       334    966.1276    210.0542 307.5285481  +6.6207388     2064.161     3965.071     4035.457     91.87377     183.4556     367.0208      2.021     5.00     1178.117     64.70625     243.7166        23     1.387     1.134 -85.53   0
       335   1004.5554    209.0026 307.5125998  +6.6224542     1165.734     2292.829     2162.331     91.28858     183.0901     366.6921      1.943     6.47     1176.972     64.70625     150.0878        17     1.329     1.249 -77.37   0
       336    900.3869    208.2003 307.5559537  +6.6193127     4816.987     10456.21     11794.44     91.58164     183.2364     366.8748      2.264     4.95     1180.647     64.70625     554.5139        49     1.810     1.523 -89.45   0
       337    444.2598    207.4522 307.7456911  +6.6043701     2119.924       6238.4     7626.143     92.01949     183.5287     367.0938      2.700     7.93     1188.333     64.70625       252.71        48     2.037     1.717 -83.81   0
       338    101.5406    199.0504 307.8885096  +6.5963352     2263.503     6006.115     6869.211     92.01949     183.6016     367.0938      2.554     7.04     1216.561     64.70625     245.5499        44     1.880     1.643 -88.74   0
       339    271.7461    195.6989 307.8178351  +6.6034399     15187.85     44007.22     52951.54     91.87377     183.6016     367.3857      2.690     6.59     1206.629     64.70625     1527.096        95     2.204     1.971 -78.18   0
       340    247.0442    196.6726 307.8280758  +6.6022080     2986.704     8953.536     9925.673     91.87377     183.6746     367.1303      2.645     7.51     1207.996     64.70625     337.3495        54     2.091     1.740  87.65   0
       341    395.7607    191.1487 307.7664098  +6.6094814     21453.23     64034.92     77839.79     91.72782     183.6016     367.0938      2.724     6.64     1190.746     64.70625     2054.574       103     2.224     1.997 -78.22   0
       342    151.6628    194.3291 307.8678233  +6.5999715     1763.335     3557.174     4344.377     92.01949     183.6017     367.1303      2.372     7.85     1212.974     64.70625     211.2108        21     1.942     0.899  58.54   3
       343    153.3625    192.0398 307.8671936  +6.6009747     1794.756     3181.732     4446.086     91.72782     183.6017     366.9478      1.949     7.02      1212.87     64.70625     222.2668        17     1.710     0.808  54.29   3
       344    300.3759    188.8713 307.8061575  +6.6072224      7918.95     22819.11     29715.58     91.58164     183.4556     367.0208      2.868     7.06     1203.765     64.70625     750.9503        98     2.674     2.094  -6.05   0
       345    734.9536    187.2315 307.6254638  +6.6224546     17046.17      43683.4     51108.02     91.72782     183.6016     366.9843      2.495     5.79     1184.089     64.70625     1865.685        89     2.079     1.829 -81.36   0
       346     52.1202    184.7417 307.9095450  +6.6005852     4419.276     12177.13     14253.06     92.01949     183.6016     367.0573      2.586     6.15     1219.724     64.70625     497.8811        63     2.007     1.840 -72.96   0
       347     85.8779    181.5209 307.8956141  +6.6030520     566.5132     1785.431     2087.219     92.31023     183.8933     367.2762      2.434     6.67      1216.88     64.70625      99.3573         9     1.910     0.653   4.98   2
       348    992.8114    180.3761 307.5184404  +6.6338927     651.3156       1004.8     1492.507     91.58164     183.3826     367.0208      1.528     3.52     1175.963     64.70625     95.36646         5     0.821     0.435 -17.79   0
       349    994.3395    167.5021 307.5182346  +6.6392638     1377.182     3127.059     3371.914     91.72782     183.6017     367.2398      2.320     7.00     1175.397     64.70625     159.9436        24     1.613     1.210  49.17   0
       350    270.6252    162.0057 307.8194344  +6.6173254     13434.45        39758      49021.2     91.43523     183.3826     366.9113      2.722     6.58     1206.781     64.70625     1346.642        92     2.225     1.962 -83.81   0
       351    585.3811    163.8918 307.6884575  +6.6270975     974.9673      2430.61     2870.212     91.87377     183.3095     366.9478      2.618     8.50     1183.042     64.70625      110.078        17     1.545     1.306 -37.75   0
       352     15.9390    160.7682 307.9254006  +6.6092738     2110.112     5727.239     6407.995     91.72782     183.6746     367.0208      2.515     6.88     1222.679     64.70625     223.8497        45     1.890     1.665 -70.26   0
       353    702.1128    158.2163 307.6400950  +6.6333474     4066.604     10440.04      12478.3     91.72782     183.3095     366.9478      2.525     6.22     1182.137     64.70625     426.6194        59     2.106     1.686  85.98   0
       354    113.2629    155.7607 307.8850926  +6.6146179     2477.787     6683.128     7655.403     92.01949     183.5287     367.1668      2.591     6.74     1213.936     64.70625     262.2854        46     1.855     1.674 -39.77   0
       355    382.9259    152.6407 307.7730415  +6.6249639      1625.35     3668.023     4151.328     91.87377     183.6016     367.1303      2.368     5.75     1189.293     64.70625     200.9729        18     1.706     0.934  61.48   3
       356    384.5015    150.4423 307.7724601  +6.6259252     1629.382     3720.388     4526.733     92.01949     183.4556     367.3492      2.399     6.78     1188.996     64.70625     228.9076        26     2.024     0.939  44.78   3
       357    348.6647    150.6821 307.7873573  +6.6246240     1377.216      3729.19     4873.988     92.16497     183.7475     367.0938      2.783     8.81     1193.744     64.70625     141.1421        29     1.776     1.289 -59.85   2
       358    102.6263    151.2842 307.8896672  +6.6161099     906.4989      2240.23     2845.502     92.16497     183.3095     366.9478      2.700     8.64     1214.179     64.70625     111.3125        17     1.861     1.119 -35.99   0
       359    994.6513    144.1750 307.5188839  +6.6489142     976.3173     1774.975     1323.415     91.58164     183.6016     366.9843      1.944     6.47     1172.925     64.70625     128.7538        12     1.163     1.041  44.05   0
       360    200.2504    139.5040 307.8494613  +6.6242598      2648.08     7373.587     8865.332     91.87377     183.5287     367.3127      2.693     7.11     1209.688     64.70625     298.6985        53     2.049     1.781 -87.34   0
       361     82.4850    138.0235 307.8984908  +6.6209120      1086.31     2966.721     4630.115     92.01949     183.3095     366.9843      3.394    10.19     1215.447     64.70625     142.9218        21     1.879     1.541 -70.63   2
       362    661.8561    138.1889 307.6575102  +6.6402776      3080.26     7857.661     8887.156     91.28858     183.5287     366.7286      2.478     6.04     1180.981     64.70625     295.3889        47     1.818     1.694  83.63   0
       363    614.0473    135.3094 307.6774924  +6.6398682     4508.137     12921.61     15375.52     92.01949     183.4556     367.2398      2.674     7.12     1181.263     64.70625     456.2852        54     1.974     1.773 -83.89   3
       364    617.4517    127.0114 307.6763545  +6.6434112     25347.27     69009.35     82589.95     91.28858     183.4556     366.8017      2.603     6.13     1180.728     64.70625      2540.23       101     2.203     1.906 -80.77   3
       365    341.4052    131.4165 307.7910242  +6.6323416     1611.766      5006.11     6506.311     91.58164     183.2364     366.9113      2.826    10.38     1195.358     64.70625     179.1268        42     2.035     1.654  80.87   0
       366    522.5369    127.8626 307.7158049  +6.6398822     625.0413     1170.605     1927.161     92.01949     183.6016     367.1303      2.647     5.03     1181.231     64.70625     102.0847         5     1.135     0.631  31.50   0
       367    296.7837    120.9607 307.8099349  +6.6351647     1739.382     4752.548     6308.985     91.58164     183.4556     366.8382      2.817     7.45     1204.234     64.70625     209.2365        40     1.948     1.554 -73.41   0
       368    666.9718    115.5689 307.6561402  +6.6497962      590.524     1249.163      1147.48     91.43523     183.3095     366.8382      1.801     3.89     1179.369     64.70625     80.97485         5     1.304     0.333  49.45   0
       369    682.0351    111.0027 307.6500276  +6.6521868      1633.24     4234.521     5256.963     90.99458     183.3826     366.8382      2.583     7.35     1178.905     64.70625     184.3693        32     1.645     1.459  72.15   0
       370      2.7838    102.2817 307.9328441  +6.6329988     3732.836     10039.95     17244.69     91.58164     168.2164     302.3714      4.779    11.17     1222.991     64.70625     688.0193       104     4.283     2.006 -88.69  24
       371    424.9939    101.6678 307.7572563  +6.6474383     1626.953     3438.968     4070.015     91.43523     183.1633     366.8748      2.220     7.47     1182.997     64.70625      194.905        21     1.785     0.876  82.90   3
       372    422.5244    103.0014 307.7582387  +6.6468044     1740.879     3298.581     4033.124     91.14169     182.9437     366.9113      1.937     7.46     1183.116     64.70625     196.6863        20     1.978     0.803  78.37   3
       373    895.9813     97.0740 307.5615005  +6.6650884     2285.268      5098.98     5536.367     91.43523     183.5287     366.9843      2.299     6.00     1173.765     64.70625     265.4404        34     1.706     1.358  67.96   0
       374    878.2332     97.9346 307.5688543  +6.6641406     1276.579     2766.931     3135.927     91.87377     183.6016     367.0573      2.395     7.70     1174.799     64.70625     151.5626        21     1.590     1.098 -49.86   0
       375    588.4133     96.6548 307.6894507  +6.6549841     732.5212      1947.24     2172.815     91.28858     183.5287     366.8017      2.567     6.94     1179.009     64.70625     140.3002         8     1.503     0.898 -40.25   0
       376    387.6261     94.3036 307.7730465  +6.6492284      916.503     2053.066     2911.887     92.16497     183.3095     366.9843      2.645     8.28     1187.658     64.70625     116.1974        15     1.609     1.192 -54.87   0
       377    135.2173     90.9505 307.8781445  +6.6421374     1489.481     4021.634     4705.656     91.43523     183.6746     366.8017      2.503     8.52     1211.035     64.70625     185.4092        34     1.876     1.446  85.43   0
       378     16.8216     88.7051 307.9274634  +6.6390816     6693.204     17669.06     22226.14     91.87377     183.3826     366.9113      2.683     6.07     1220.396     64.70625     669.2737        66     2.083     1.760  89.83   0
       379    818.4232     83.0329 307.5942317  +6.6683023      3522.15      8392.74     9706.149     91.43523     183.3826     366.8748      2.383     5.67     1175.522     64.70625     379.3121        41     1.722     1.488  89.65   0
       380    763.7166     83.3371 307.6169777  +6.6663494     1726.701     4225.631     4686.878     92.16497     183.6746     367.0573      2.409     6.27     1176.464     64.70625     198.0303        29     1.518     1.465 -10.74   0
       381    409.1354     84.5386 307.7644278  +6.6539850     619.9797     1462.729     1434.396     92.01949     183.6016     367.1303      2.201     5.76     1184.714     64.70625     84.46289         6     1.415     0.661 -15.33   0
       382     57.4237     80.5107 307.9108525  +6.6438344     1733.089      4315.84     5254.202     92.01949     183.3826     366.9478      2.644     7.14     1215.661     64.70625     175.0342        33     1.742     1.402  89.10   0
       383    417.0094     78.8894 307.7613424  +6.6565834     578.4153     1058.399     1725.574     91.72782     183.2364     366.8748      1.397     3.75     1183.686     64.70625     114.5739         5     1.019     0.396  59.43   0
       384      1.3579     75.9199 307.9343262  +6.6438440     1052.297     1893.321     2098.378     80.52745      146.322     276.5434      1.946     5.71      1220.32     64.70625     210.3267        12     1.599     0.574  89.54  24
       385    757.4763     71.9162 307.6199558  +6.6708606     954.9505     2468.498     3139.713     92.16497     183.9662     367.2033      2.975     8.00     1175.507     64.70625     140.1415        14     1.595     1.122  29.50   2
       386     84.9659     64.9376 307.8999218  +6.6511963     4522.458      12632.6     14841.92     91.87377     183.6746     367.0208      2.588     6.46     1212.382     64.70625     430.4102        58     2.051     1.687 -82.04   0
       387    414.3334     64.9569 307.7629235  +6.6622511     1194.072     2828.294     3417.778     92.01949     183.5287     367.1303      2.551     8.59      1184.55     64.70625     139.5282        21     1.739     1.185  85.80   0
       388    251.0847     59.7371 307.8310020  +6.6589296      731.744     2071.942     3056.418     92.16497     183.7475     367.0573      7.294     9.13     1205.795     64.70625     106.0177        14     1.650     1.411  41.06   1
       389    627.5667     56.7088 307.6745036  +6.6728015     9383.325     24271.29     28451.62     92.16497     183.4556     367.1303      2.547     6.05     1176.554     64.70625     905.2679        71     2.044     1.795 -83.35   0
       390    527.4883     52.7282 307.7162663  +6.6710964     2426.244      6835.61     7248.883     92.16497     183.8933     367.1303      2.548     6.95     1178.227     64.70625     246.6493        49     1.937     1.738  81.05   0
       391    246.8925     52.6627 307.8329837  +6.6617121     974.0151     2820.729     7113.479     92.01949     183.6746     367.1668      8.417    19.49     1205.827     64.70625     232.0883        34     4.881     2.162 -44.80   2
       392    252.7376     50.0039 307.8306420  +6.6630071     3520.406     6381.507     8601.789     91.28858     183.3095     366.8017      1.956     5.35     1205.475     64.70625     388.9856        19     1.666     0.786  50.12   3
       393    255.2250     48.2147 307.8296675  +6.6638300     3805.613     6892.137     8110.515     91.72782     183.3826     367.0208      2.012     5.97     1205.329     64.70625     440.0513        26     1.777     0.950  63.13   3
       394    432.9516     48.4352 307.7557341  +6.6697026     10830.56     29795.91     36097.42     91.87377     183.6016     367.0208      2.652     6.28     1183.586     64.70625     1023.602        82     2.169     1.874 -79.48   0
       395    613.8508     46.6952 307.6805446  +6.6764806     1679.642     4556.418     6159.604     91.87377     183.5287     367.3127      2.927     7.48     1176.275     64.70625     195.0092        40     1.908     1.558  89.76   0
       396     18.7724     48.5629 307.9280056  +6.6557348     1190.201     2974.502     3389.195     91.43523     183.2364     366.8748      2.405     8.83      1215.64     64.70625     176.6464        24     1.625     1.341  75.80   0
       397    910.5228     48.0191 307.5570913  +6.6858453      1310.71     2690.351     2677.241     91.43523     183.3095     367.0573      2.087     5.32     1168.776     64.70625     161.3866        19     1.429     1.086  69.42   0
       398    241.7451     45.6742 307.8353599  +6.6644271     1373.203     3889.437     5142.846     91.87377     183.5287     367.0573      2.944    10.67     1205.943     64.70625     158.8574        36     2.098     1.512 -75.47   0
       399    683.0750     38.5794 307.6520211  +6.6821499     1037.468     2642.047     2935.576     91.58164     183.3826     367.0208      2.404     8.41     1174.542     64.70625     127.1434        21     1.545     1.279 -27.85   0
       400    538.0793   1012.1763 307.6796969  +6.2749633     3381.843     6565.798     7803.766     91.58164     183.3095     367.0573      2.189     4.30     1244.163     64.70625      408.462        36     1.567     1.340 -66.68   3
       401    515.4455     29.0859 307.7220690  +6.6804629     1526.246     4194.223     4652.539     92.01949     183.4556     367.0938      2.476     9.18      1178.31     64.70625     162.3352        31     1.716     1.459  57.62   0
       402    916.5147     28.1695 307.5552622  +6.6942479     2872.156     5785.772     6096.224     92.01949     183.3826     366.9478      2.087     5.03     1167.066     64.70625     330.5857        36     1.644     1.408 -75.33   0
       403    454.2044     27.7861 307.7475871  +6.6789480     939.9079     2331.796     2183.726     91.58164     183.3095     366.9478      2.307     8.54     1182.486     64.70625     157.6559        14     1.613     1.262 -22.16   0
       404    716.7106     27.9754 307.6383846  +6.6876564      1071.72     2221.465     2232.553     92.16497     183.3826     366.9113      2.076     5.70     1172.857     64.70625     167.7444        12     1.458     0.724  -4.26   2
       405    717.8370     25.2224 307.6380083  +6.6888317     742.7935     1271.627     1718.817     91.58164     183.3095     366.8382      1.632     4.66     1172.608     64.70625      103.162         7     1.043     0.589  14.83   3
       406    981.2207     24.4025 307.5284707  +6.6979622     1442.609     2956.001     3244.986     91.58164     183.2364     366.8017      2.067     5.34      1161.91     64.70625     184.9967        20     1.500     1.062  86.70   0
       407    535.1526   1004.7438 307.6811624  +6.2779368     6604.338     11971.08     13467.72     92.01949     183.6016     367.2033      2.010     4.28     1243.931     64.70625      714.323        39     1.561     1.352  85.85   3
       408    288.1469   1011.2902 307.7836081  +6.2669561     11614.48     21746.91      24115.3     92.01949     183.3826     367.2398      2.044     4.28     1248.135     64.70625     1332.547        59     1.801     1.526 -52.24   0
       409    742.4419   1011.7443 307.5947680  +6.2819733     6976.239     11723.05     12603.94     91.87377     183.5287     367.0938      1.819     3.85     1239.987     64.70625     786.0203        41     1.475     1.340 -78.66   0
       410    508.5336   1013.5401 307.6919317  +6.2734109     858.3059     1496.207     1284.037     92.16497     183.5287     367.0938      1.794     5.02     1244.122     64.70625     105.9979         9     1.388     0.514 -44.28   0
       411    803.2791   1010.9923 307.5695057  +6.2843151     1154.822     1702.478     1436.347     91.58164     183.0169     366.8748      1.637     5.68     1238.474     64.70625     147.9453        12     1.145     0.795  69.29   0
       412    413.0762   1010.7734 307.7317005  +6.2713576     772.6451     1118.669     1165.805     91.87377     183.5287     367.0573      1.600     3.92     1244.896     64.70625      148.433         6     0.887     0.623  40.90   0
       413    260.0557   1009.1526 307.7953554  +6.2668970     706.2712     1370.598     1278.116     92.01949     183.6016     367.2033      1.957     5.81     1248.187     64.70625     100.1793         8     1.418     0.671 -79.70   0
       414    903.7034   1005.1186 307.5279593  +6.2900924      8295.08     13370.33      13623.4     91.87377     183.9662     367.1668      1.706     3.47     1235.655     64.70625     1050.606        44     1.548     1.228 -83.99   0
       415    877.2639   1001.3593 307.5390748  +6.2907643      11632.7     18972.75     20254.09     92.01949     183.5287     367.2033      1.778     3.50     1236.808     64.70625     1480.901        48     1.545     1.341 -60.04   0
       416    999.0455   1000.7285 307.4884752  +6.2950840     5004.379     7523.862      8029.64     91.87377     183.6016     367.0938      1.633     3.29     1231.087     64.70625     718.0905        28     1.341     1.102  66.95   0
       417    589.8077   1002.1221 307.6585328  +6.2808487     1108.984     1953.433     2112.937     91.58164     183.0169     366.8382      1.883     6.10      1242.58     64.70625     166.7936        13     1.326     0.909 -71.57   0
       418    521.4761   1000.4601 307.6869905  +6.2792493     3485.513      6275.65      7010.18     92.31023     183.6746     367.0573      2.001     4.25     1243.789     64.70625     394.7646        32     1.386     1.336 -75.43   0
       419    631.0609    999.7059 307.6414667  +6.2832266     1156.761     1840.868     2007.927     91.87377     183.6746     367.1303      1.797     6.25     1241.159     64.70625     131.8386        13     1.162     0.990  63.03   0
       420     56.3845    999.1254 307.8803431  +6.2642002     755.4299      1143.29     1138.925     91.43523     183.3095     366.9113      1.561     4.55     1248.763     64.70625     112.2892         7     1.428     0.413  17.84   0
       421    474.7786    996.8568 307.7065210  +6.2791752     1676.644     2988.325     3126.629     91.58164     183.5287     366.8748      1.851     5.02     1243.866     64.70625     261.2223        19     1.293     1.132  84.99   0
       422    909.0137    988.9083 307.5262930  +6.2969684     41312.79     66959.48     71072.59     91.72782     183.3095     366.8382      1.731     3.50     1234.569     64.70625     5223.232        71     1.603     1.347 -78.39   0
