#   1 NUMBER                 Running object number                                     
#   2 X_IMAGE                Object position along x                                    [pixel]
#   3 Y_IMAGE                Object position along y                                    [pixel]
#   4 ALPHA_J2000            Right ascension of barycenter (J2000)                      [deg]
#   5 DELTA_J2000            Declination of barycenter (J2000)                          [deg]
#   6 FLUX_APER              Flux vector within fixed circular aperture(s)              [count]
#   9 FLUXERR_APER           RMS error vector for aperture flux(es)                     [count]
#  12 FLUX_RADIUS            Fraction-of-light radii                                    [pixel]
#  13 FWHM_IMAGE             FWHM assuming a gaussian core                              [pixel]
#  14 BACKGROUND             Background at centroid position                            [count]
#  15 THRESHOLD              Detection threshold above background                       [count]
#  16 FLUX_MAX               Peak flux above background                                 [count]
#  17 ISOAREA_IMAGE          Isophotal area above Analysis threshold                    [pixel**2]
#  18 A_IMAGE                Profile RMS along major axis                               [pixel]
#  19 B_IMAGE                Profile RMS along minor axis                               [pixel]
#  20 THETA_IMAGE            Position angle (CCW/x)                                     [deg]
#  21 FLAGS                  Extraction flags                                          
         1    910.7454     14.5113 307.5486436  +6.6905102     980.2975     1676.523     2074.338     78.42134     156.3456      312.971      1.788     6.40     827.6995     55.14431      154.903        15     1.615     0.769 -29.67   0
         2    662.2625     13.8148 307.6519330  +6.6824967     1733.098     2867.756     2833.527     77.92342     156.3456       312.66      1.679     4.78     827.1974     55.14431     263.2822        17     1.528     0.730 -28.32   0
         3    173.0375      9.5283 307.8553837  +6.6678602     753.9547     1065.347     1202.086     78.29716       156.47     312.9088      1.595     5.33     831.1796     55.14431     115.5313        10     1.250     0.641 -30.61   0
         4    227.3100      9.0598 307.8328461  +6.6698779     683.2755      837.374     939.0047     78.29716       156.47     312.9088      1.323     3.62     833.9786     55.14431     106.2428         7     0.839     0.618 -67.89   0
         5    150.6929      6.5853 307.8647681  +6.6683241      9773.87      16072.1     16629.01     78.17278      156.221     301.9573      1.787     4.99      830.377     55.14431     1425.375        35     1.718     0.941 -25.52  16
         6    896.2772      4.3523 307.5549959  +6.6942224     3756.463     6163.365     6513.632     78.29716     156.1587     278.6965      1.761     4.75     827.4803     55.14431     548.8128        26     1.703     0.875 -24.45  16
         7    494.7691      4.7248 307.7218445  +6.6806426     2555.524     4220.573     4564.649     78.29716     156.5322     283.2336      1.809     4.68      827.744     55.14431     411.4293        25     1.618     0.889 -32.59  16
         8    697.1042      2.9591 307.6378169  +6.6881447     1839.183     2906.461     3145.878     78.42134     145.5141     260.3185      1.682     4.97     827.0494     55.14431     267.9948        18     1.542     0.732 -29.26  24
         9    432.7616      3.1588 307.7476658  +6.6792108     1649.105     2594.619     2659.145     78.17278     147.5067     263.1071      1.637     3.62     829.6109     55.14431     266.0416        17     1.310     0.812 -29.68  24
        10     51.2652      2.9740 307.9062070  +6.6664700     587.5966     850.1521     699.3588     78.04819     145.6478     260.3933      1.522     4.92     828.8383     55.14431     90.73236         7     1.047     0.683 -22.55  16
        11    960.7054      1.4757 307.5283159  +6.6975595     1352.117     1864.434     2469.758     70.03111     126.6352     237.8555      1.585     5.01     825.3327     55.14431     271.5307        12     1.396     0.628  -7.79  24
        12    703.7415   1000.3956 307.6016905  +6.2764805     845.7078     1502.861     855.1877     77.79845     156.3456     312.6288      1.804     6.16     859.4813     55.14431     114.0699        11     1.573     0.678 -45.98   0
        13    935.8353   1022.8162 307.5045640  +6.2749685     506.9402      801.935     1035.054     76.53745      136.116     248.7345      1.265     3.36     858.2646     55.14431     94.78461         5     0.973     0.337 -45.37  24
        14    765.3900   1020.9261 307.5754048  +6.2700618     5447.034     10213.08     11031.59     78.04819     154.5301     275.1121      1.976     4.97     859.3667     55.14431     672.8688        39     1.795     1.138 -29.32  24
        15    554.7530   1023.3279 307.6627902  +6.2620287       101273     154030.8     159617.1     72.35472     129.5222      240.985      1.632     5.72     859.8808     55.14431     16920.49        53     1.861     0.836  -8.18  27
        16    556.1024   1016.8906 307.6624454  +6.2647321     62132.89     112284.8     122575.2     78.42134     156.9047     311.7873      1.950     4.63      859.829     55.14431     8003.165        88     1.959     1.278 -27.09  19
        17    411.9522   1001.7686 307.7228089  +6.2661495       706.04     1250.829     1331.428     78.17278       156.47     312.7533      2.045     5.38     859.7496     55.14431     126.0635         9     1.749     0.467 -26.30   0
        18    335.0526    998.3731 307.7548543  +6.2649737     1613.479     2805.844     3164.636     78.04819     156.5943     312.7845      1.966     5.23     858.6247     55.14431     224.3813        20     1.587     0.831 -20.46   0
        19    487.5793    990.0270 307.6917988  +6.2735314     1007.886     1853.015     1917.791     78.04819     156.2833     312.7845      1.833     6.91     860.1035     55.14431     126.4424        14     1.465     0.913 -30.57   0
        20    722.0303    988.0143 307.5945098  +6.2822044     6545.667     12044.01     12311.66     78.04819      156.221     312.7844      1.934     4.79     859.2117     55.14431     836.1537        44     1.812     1.163 -24.13   0
        21    517.5280    988.5744 307.6794113  +6.2751340     3598.591     6489.072     7290.967      78.0482     156.3456     312.7533      1.938     4.95     859.8072     55.14431     487.4191        31     1.699     1.038 -28.39   0
        22    267.7178    987.2448 307.7831876  +6.2673101        12811     23194.41     25127.76     78.42134       156.47     312.8156      1.967     4.92     857.7454     55.14431     1675.557        56     2.113     1.106 -29.76   0
        23    391.1957    988.4603 307.7318740  +6.2709493     795.5098     1284.859     1455.464     77.79845     156.3456     312.6288      1.774     5.50     859.1526     55.14431     104.8167         8     1.132     0.753 -29.82   0
        24    783.0671    987.3328 307.5691864  +6.2845244     837.7441     1494.891      2046.74     78.42134       156.47     312.8777      2.036     6.30     858.5107     55.14431     128.5546        12     1.352     0.826 -26.11   0
        25    238.3338    985.2469 307.7954559  +6.2671489     713.8464     1497.914     1724.844     78.42134     156.4078     312.8466      2.031     5.16      857.596     55.14431     93.30103         8     1.346     0.558 -50.08   0
        26    883.2426    981.4897 307.5277823  +6.2902804     7407.583      13653.1     14765.49     78.42134     156.4078     312.8777      1.975     4.63     857.2944     55.14431     825.4996        45     1.789     1.223 -27.49   0
        27    514.5637    980.8368 307.6809014  +6.2782299     7358.398     12907.89      14514.5     78.17278     156.3456     312.6288      1.894     4.59     859.6782     55.14431     1058.506        43     1.774     1.136 -24.78   0
        28    978.7228    977.0595 307.4882801  +6.2952933     3650.363     7507.341     7661.529     78.54533     156.5322     312.8156      2.162     5.11     856.0339     55.14431     442.3647        41     1.869     1.288 -27.69   0
        29    856.8611    977.6425 307.5388660  +6.2909890     10091.15     19251.41     21482.13     78.42134       156.47      312.971      2.080     4.77     857.3904     55.14431     1191.582        58     1.980     1.275 -25.36   0
        30    569.4615    978.1752 307.6581940  +6.2811664     1127.266     2142.956     2274.085     78.04819     156.4078     312.7533      1.965     6.75     859.4927     55.14431     146.2488        17     1.610     0.794 -33.11   0
        31    501.2346    976.6824 307.6865755  +6.2794992     3470.877     6465.289     7265.018     78.42134       156.47     312.8156      2.095     5.05     859.6649     55.14431     500.7516        35     1.916     1.111 -13.06   0
        32    610.5146    975.9824 307.6412199  +6.2834452     1166.659       2125.6     2140.538     78.04819      156.221     312.7845      1.986     6.28     859.5042     55.14431     151.9937        13     1.366     0.812 -22.17   0
        33     35.3646    975.7432 307.8800541  +6.2642533     834.8534     1421.038     1710.619     78.29716       156.47     312.8777      1.725     4.40      853.092     55.14431     137.7416         8     1.068     0.516 -36.86   0
        34    454.1279    973.2704 307.7062509  +6.2793305     1986.403     3052.389     2562.979     78.54533     156.5943     312.8156      1.671     4.61      859.418     55.14431     268.7876        20     1.525     0.828 -29.41   0
        35    888.6550    965.2106 307.5260778  +6.2971834     35733.73     67102.16     72806.73     77.79845     156.4078     312.5355      2.003     4.74     856.9465     55.14431     4254.416        78     1.931     1.343 -26.17   0
        36    196.0130    963.7788 307.8137502  +6.2745929     1389.921      2705.81     2446.594     78.17278     156.1587     312.7533      2.055     6.37     856.2892     55.14431     175.8929        25     1.819     1.079 -20.51   0
        37    594.4628    961.5844 307.6483673  +6.2888539     872.7877     1215.055     1013.676     77.92342     156.4078     312.6911      1.650     5.93     859.3615     55.14431     116.7249        12     1.278     0.774 -10.31   0
        38    786.1974    959.0336 307.5688317  +6.2963150     2019.179     3436.333     3513.827     77.67326     156.2833     312.5977      1.781     4.42     858.0545     55.14431     252.5907        24     1.520     0.961 -32.14   0
        39    734.8778    956.8170 307.5902173  +6.2955164     5622.852     10240.44     11421.12     77.92342      156.221     312.7222      1.943     4.76     858.4641     55.14431     753.6915        41     1.760     1.179 -25.45   0
        40    203.8244    956.1394 307.8107632  +6.2780097     1200.293     1996.021     2231.931     78.04819     156.4078     312.7533      1.860     6.28     856.2856     55.14431     185.1892        15     1.523     0.728 -40.26   0
        41    521.3820    956.0801 307.6788992  +6.2886812     776.3066     1360.021      2135.28     78.04819     156.1587     312.7533      2.419     5.49     859.2091     55.14431     115.9713         9     1.333     0.638 -21.19   0
        42     28.9823    954.1481 307.8834310  +6.2729559     2374.095     4143.244      4121.82     77.92342     156.5322     312.5977      1.843     4.52     853.0114     55.14431     313.2288        28     1.606     1.041 -26.78   0
        43    168.5701    955.5165 307.8254232  +6.2770829     857.1202     1235.192     1051.513     78.42134     156.2833     312.7533      1.678     4.49     855.4453     55.14431     115.7576         8     1.157     0.495  -3.88   0
        44    922.9911    951.9611 307.5122610  +6.3037999     5417.478     10457.52     11069.81     77.79845     156.2833     312.5666      2.023     4.81     856.4698     55.14431       666.69        41     1.798     1.192 -23.79   0
        45    604.3743    946.0872 307.6447700  +6.2955849     695.2097     1252.923     1295.771     78.54533     156.2833     312.7222      1.881     4.71     859.2104     55.14431     105.8253         7     1.001     0.628  37.35   0
        46    896.7953    943.5997 307.5234184  +6.3063791     1643.636      2985.02     2983.806     77.79845      156.034     312.5977      1.928     4.98     856.4504     55.14431     184.2038        22     1.464     1.031 -33.67   0
        47    229.4833    939.7189 307.8006601  +6.2856518     3842.552     6525.002     6996.033     78.29716     156.7185     312.9088      1.850     4.97     856.4269     55.14431     549.8934        28     1.656     0.972 -24.72   0
        48    756.2233    940.0930 307.5819119  +6.3031355     1128.121     2104.523     2395.226     78.42134     156.2833     312.6911      1.932     6.99     857.9466     55.14431     145.2402        18     1.620     0.846 -23.77   0
        49    617.4286    939.5300 307.6395684  +6.2987293      4060.72     6788.557     6634.538     78.17278       156.47     312.7845      1.789     4.64     859.1368     55.14431     523.5705        27     1.662     0.922 -26.21   0
        50    966.7263    939.2090 307.4945239  +6.3105239     631.9142     1065.583     1043.512     78.04819      156.034     312.6911      2.122     6.24     854.7667     55.14431     88.53198         9     1.302     0.840 -66.14   0
        51    439.6659    938.0428 307.7134370  +6.2933930     960.2319     1535.329     1911.169     78.42134     156.4078     312.8777      1.782     6.14     858.3776     55.14431     127.2021        12     1.430     0.744 -24.40   0
        52    848.9005    936.1601 307.5435565  +6.3078535     933.7962     1627.384      1495.07     78.42134     156.3456     313.0643      1.868     6.94     856.8098     55.14431     114.3362        13     1.412     0.958 -38.14   0
        53    542.0177    932.0765 307.6711337  +6.2992841     1522.682     2672.353     2901.678     77.92342      156.221     312.7844      1.923     5.22     859.0351     55.14431     205.1882        21     1.561     0.995 -39.31   0
        54    974.3589    932.3276 307.4915836  +6.3136199     630.9663     1449.282     1641.281     78.29716       156.47     312.9088      2.834     5.24     854.2246     55.14431     94.66577         9     1.218     0.636 -39.17   0
        55    179.0436    947.9362 307.8213289  +6.2805649     572.5452     1060.028     990.2041     78.42134     156.4078     312.8466      1.630     3.88     855.4973     55.14431      102.723         5     1.340     0.323 -32.04   0
        56    581.3922    928.3458 307.6549075  +6.3021423       1122.5     1715.099     1617.081     77.92342     156.3456     312.5666      1.649     6.21     859.0292     55.14431     153.5546        15     1.629     0.668 -30.62   0
        57     30.3148    929.2460 307.8837157  +6.2832835     614.5015     992.9482     1484.608     78.42134     156.4078     312.8466      2.007     5.14     853.0493     55.14431     96.77081         7     1.141     0.653  30.06   0
        58    260.9235    926.3461 307.7880536  +6.2922293     1392.347     2111.539     2126.844     78.54533       156.47     312.8466      1.605     4.69     856.6161     55.14431     199.1945        15     1.355     0.802 -20.47   0
        59    265.0790    933.6639 307.7860823  +6.2893469      827.618     1189.989     1268.139     78.66911     156.5322     312.8466      1.548     4.57       856.81     55.14431     140.4551         9     1.204     0.627  -9.54   0
        60    727.9856    922.4451 307.5942282  +6.3094799     890.5297     1700.338     2156.085     77.79844     156.2833     312.6288      2.136     5.01      857.846     55.14431      157.491        11     1.286     0.812 -13.64   0
        61    865.5696    918.8705 307.5372112  +6.3155495     5892.758     10721.84     11267.44     78.29716       156.47     312.8156      1.956     4.65     856.3091     55.14431     735.6669        39     1.760     1.159 -28.35   0
        62    104.6415    920.5284 307.8531454  +6.2893825     605.8979     950.5364     849.3395     78.29716       156.47     312.9088      1.686     5.97     853.2141     55.14431     127.5976         9     1.398     0.717 -14.48   0
        63    401.6195    915.9764 307.7299760  +6.3012301     1867.799     3115.714     3656.458     78.17278     156.2833     312.7845      1.764     4.84     857.6434     55.14431     269.2034        16     1.420     0.753 -34.03   0
        64    303.2950    914.3121 307.7708625  +6.2986203     8439.884     14712.63     15227.54     78.42134     156.8427     312.9088      1.859     5.03     857.0103     55.14431     1182.309        42     1.816     1.045 -24.26   0
        65    223.2554    913.2946 307.8041339  +6.2963542     6375.986     11013.23     11564.52     78.29716       156.47     313.0643      1.830     4.65     855.7098     55.14431     854.6566        39     1.763     1.028 -29.60   0
        66    736.1011    907.4180 307.5913602  +6.3159564     715.8427     1185.997     1216.497     78.42134     156.3456     312.5977      1.882     4.89     857.4827     55.14431     107.7148         7     1.318     0.581 -50.64   0
        67    550.8784    907.9387 307.6682623  +6.3095482     1068.391      1730.31     2201.205     78.54533     156.5322     312.8156      1.847     4.70     858.7736     55.14431     145.8226        12     1.249     0.668 -18.97   0
        68    881.3187    903.9328 307.5311693  +6.3222434     805.6556     1551.168     1757.218     78.54533     156.7185     312.9088      2.127     5.24     855.9622     55.14431     120.0665         9     1.510     0.514 -20.48   0
        69    379.9344    901.7206 307.7394593  +6.3063900      569.073     630.8289     872.4818     78.66911     156.5943     312.8156      1.401     4.65     857.1965     55.14431      115.471         6     1.208     0.507 -25.29   0
        70    947.8306    899.7577 307.5036866  +6.3261855     615.8908     1058.744      1058.69     78.04819     156.4078     312.6911      2.343     5.18     854.5864     55.14431     87.48083         8     1.264     0.601 -65.79   0
        71    717.8060    896.9612 307.5993074  +6.3196634     1519.855     2633.827     3241.795     77.54788      156.221     312.5666      1.883     5.23     857.5253     55.14431     196.1517        21     1.558     0.960 -38.81   0
        72    540.6268    897.6508 307.6728641  +6.3134534     580.5256        689.9     190.7017     78.04819     156.5943     312.7845      1.058     2.83     858.6069     55.14431     119.1005         6     0.819     0.496 -44.26   0
        73    592.6262    893.7460 307.6514004  +6.3168059     502.3365     740.1343     487.7305     78.04819     156.5943     312.7222      1.651     4.54      858.528     55.14431     89.40106         5     0.985     0.595 -41.52   0
        74    948.8620    892.8546 307.5034885  +6.3290705     1138.892     2007.378     2414.595     78.54533     156.4078     312.8156      1.852     5.40     854.4313     55.14431     143.2287        14     1.226     0.849 -19.67   0
        75    582.1068    893.2620 307.6557852  +6.3166538     865.2569     1342.647     1039.165     78.42134       156.47     312.9088      1.621     5.04     858.5309     55.14431     113.6622        10     1.232     0.584 -18.79   0
        76    502.8733    892.6802 307.6887088  +6.3142421     1063.952      1943.83     2176.595     78.66911     156.7185     312.9088      2.125     6.08     858.1098     55.14431     152.8706        14     1.546     0.672 -21.65   0
        77    636.1527    890.2595 307.6334411  +6.3197014      2254.51     3189.977     3681.033     78.42134       156.47     312.9399      1.532     4.48     858.1806     55.14431     306.1864        19     1.529     0.787 -27.23   0
        78    926.3959    888.6146 307.5129601  +6.3300724     563.3683     921.1516     1256.562      78.0482     156.0964     312.6911      1.743     5.55     855.0261     55.14431     95.22125         6     1.171     0.743  -5.51   0
        79     32.7466    886.4803 307.8841452  +6.3010244     2566.674     4391.354     4268.007     78.42134       156.47     312.9088      1.858     5.30     851.5292     55.14431     354.3414        27     1.753     0.969 -36.39   0
        80    796.7330    886.5938 307.5668761  +6.3265807     590.1516     1211.517     1488.441     77.92342      156.221       312.66      2.259     6.07     856.8237     55.14431     106.5879        10     1.598     0.649  -4.35   0
        81    176.4055    885.5682 307.8245204  +6.3062300     1974.734     3031.169     2677.757     77.79845     156.3456     312.6288      1.716     4.29     854.0154     55.14431     313.5964        21     1.487     0.876 -33.75   0
        82     49.8970    884.9586 307.8770747  +6.3022296     1815.626     3791.613     3677.226     78.42134     156.3456     313.0643      2.086     8.40     851.7455     55.14431     892.6239        22     1.493     1.320  86.67   0
        83    914.3859    885.5021 307.5180516  +6.3309572     763.2093     1261.545     1786.026     78.29716      156.221     312.6288      2.054     5.75     855.1716     55.14431     106.2413        10     1.066     0.872  -0.44   0
        84    209.9264    882.5830 307.8107007  +6.3085885      731.058     1077.632     1094.257     77.92342     156.2833     312.7222      1.735     4.61     854.7735     55.14431     102.9229         7     1.087     0.555 -30.62   0
        85    630.9423    879.4656 307.6359661  +6.3239845     6117.144     10328.86     11010.46     78.54533     156.4078     312.8777      1.831     4.96     858.0099     55.14431     888.4277        37     1.787     0.989 -26.84   0
        86    768.3189    880.1710 307.5788909  +6.3282842     685.6047     1110.173     929.7141     78.29716     156.3456     312.8156      1.736     4.05      856.871     55.14431     120.5399         7     1.072     0.478 -22.97   0
        87    868.5449    875.7187 307.5374159  +6.3334683     2376.865     4155.372     4538.311     78.42134       156.47     312.8777      1.877     5.74     855.8533     55.14431     299.6124        30     1.794     1.075 -22.90   0
        88      4.0265    875.8328 307.8964298  +6.3044548     1003.028     1724.639     1664.585     77.92342     154.4671     274.6165      1.790     6.37     850.6675     55.14431     167.4241        14     1.622     0.718 -32.42  16
        89    313.9820    872.5906 307.7678249  +6.3162072     14724.52     25079.42     26890.42     78.17278      156.221     312.7222      1.826     4.84     856.5897     55.14431     2270.427        48     1.816     1.047 -27.59   0
        90     48.3796    873.4794 307.8780911  +6.3069187      1155.95      2150.19     2569.762      78.0482     156.1587     312.8466      2.206     6.29     851.3436     55.14431     153.8063        18     1.506     0.944 -27.40   0
        91    184.5908    872.0860 307.8215744  +6.3120722     1284.835     2261.228     2082.182     78.04819     156.1587     312.6911      1.727     5.18     853.9227     55.14431     180.0358        17     1.426     0.842 -28.42   0
        92     77.4144    863.1943 307.8663801  +6.3121421      1517.51     2855.476     3062.914     78.04819     156.1587     312.6911      1.901     6.14     851.6495     55.14431     244.0792        20     1.851     0.778 -34.62   0
        93    391.4524    863.5829 307.7359552  +6.3225247     957.6749     1810.285     1712.835     77.92342     156.5322     312.5666      1.830     5.78     856.5133     55.14431     132.3154        13     1.477     0.636 -27.62   0
        94     60.3907    857.1202 307.8736538  +6.3140778     2175.978     3852.554     4467.995     78.04819     156.0964     312.6911      2.086     5.88     851.1346     55.14431     290.1379        29     2.160     0.933 -38.35   0
        95    645.2690    859.7115 307.6306772  +6.3326209     935.1206     1571.551     1828.182     78.54533     156.7185     312.8156      1.721     5.72     857.4548     55.14431     121.5455        12     1.443     0.639 -29.43   0
        96    471.7257    860.0012 307.7027389  +6.3266935     542.5457     892.3574     851.0797     77.79844     155.9093     312.7222      1.836     5.73     857.2111     55.14431     101.1376         8     1.381     0.671  -8.06   0
        97    858.9778    857.4526 307.5419988  +6.3406920     1555.952     2639.343     2236.299     77.92342       156.47       312.66      1.742     4.92     855.7756     55.14431     247.0637        21     1.580     0.925 -15.92   0
        98    829.9648    856.7817 307.5540706  +6.3400009     1676.627     3017.612     3009.626     77.92342     156.2833     312.6288      1.832     5.22     856.0269     55.14431     229.7351        23     1.675     0.918 -24.02   0
        99    793.1382    856.3320 307.5693798  +6.3389572      2599.83     4621.841     5491.482     78.42134     156.4078     312.8466      1.949     4.40     856.3159     55.14431     353.7635        26     1.661     0.953 -27.28   0
       100    423.7221    854.7852 307.7228491  +6.3272391     620.1973     1028.634     1269.423     78.04819      156.221     312.6911      1.876     4.09     856.3776     55.14431     101.1489         6     1.563     0.305 -23.07   0
       101    529.0229    847.8310 307.6793515  +6.3336377     296425.5     505840.5     536471.8     77.79844     156.2833       312.66      1.814     4.57     857.2915     55.14431     45559.09       164     1.905     1.259 -26.64   0
       102    373.2287    850.3845 307.7439660  +6.3273639     6945.699     11586.12     11776.92     78.04819      156.221     312.7533      1.754     4.58     855.9325     55.14431     1011.813        36     1.691     0.988 -26.20   0
       103    616.4225    850.7978 307.6429553  +6.3353371     891.3489     1511.935     1336.355     78.04819     156.1587     312.6288      1.641     6.72     857.6964     55.14431     134.1228        14     1.740     0.728  -6.55   0
       104    316.5043    848.8238 307.7675751  +6.3261060     11547.75      19301.4     20723.97     78.54533      156.221     312.7222      1.836     4.65     855.9476     55.14431     1728.954        47     1.800     1.046 -24.57   0
       105    867.3649    843.9774 307.5389654  +6.3465365     4633.508     8033.442     8632.986     77.92342      156.221     312.6288      1.885     4.67     855.5082     55.14431     579.9833        34     1.707     1.072 -25.95   0
       106    634.7509    845.1954 307.6355310  +6.3382636     3151.284     5161.034     5336.687     77.79844     156.2833     312.5043      1.766     4.91     857.3618     55.14431     431.7269        23     1.557     0.869 -22.40   0
       107    706.3909    841.9660 307.6058866  +6.3419920     875.6869     1161.202     770.5924     77.92342     156.2833     312.6911      1.467     4.59     856.6848     55.14431     140.3722         8     1.207     0.496 -24.11   0
       108    609.6516    839.1479 307.6461572  +6.3399214     3118.638     5346.057       5854.7     78.54533     156.3456     312.8466      1.790     4.58     857.5432     55.14431     419.7697        27     1.690     0.896 -28.40   0
       109   1000.7854    838.2612 307.4837446  +6.3533455     3744.514     7161.037     7854.641     77.92342     156.4078     312.6288      1.976     4.92     852.5946     55.14431     468.4344        37     1.826     1.138 -23.62   0
       110    798.1716    838.2310 307.5678941  +6.3466001     1461.746     2229.078     2491.129     77.92342      156.221     312.6288      1.716     5.52     855.9857     55.14431     199.0022        18     1.573     0.810 -28.66   0
       111    599.5169    838.4951 307.6503880  +6.3398520     745.1484     1283.867     1328.339     78.29716     156.8427      312.971      1.562     5.12     857.4589     55.14431      120.727         9     1.202     0.627 -26.43   3
       112    602.5786    833.7364 307.6492757  +6.3419195     1994.825     3379.513      3780.65      78.0482       156.47     312.7222      1.844     5.53     857.3971     55.14431     304.5697        25     1.770     0.928 -35.48   2
       113    925.2485    836.8615 307.5151630  +6.3514057     704.8578     1055.372       1430.3     78.42134     156.4078     312.9088      1.914     5.18     854.2211     55.14431     108.0263         8     1.026     0.738  -9.29   0
       114    886.1733    831.7931 307.5315607  +6.3521954     2782.292     4807.554     4864.778     77.92342     156.3456       312.66      1.807     4.20       854.96     55.14431     383.2968        29     1.684     0.985 -19.54   0
       115    296.4498    832.7545 307.7764429  +6.3320688     980.8483     1513.317     1273.816     78.42134     156.3456     312.8777      1.616     5.20     855.5739     55.14431     135.9551        12     1.182     0.729 -31.96   0
       116    344.3849    827.8475 307.7567006  +6.3357031     2290.575     3956.106     3956.948     77.79844     156.3456     312.5977      1.833     4.73     854.9558     55.14431     357.3102        22     1.670     0.842 -24.60   0
       117    480.3686    817.5937 307.7005707  +6.3444948      2849.59     4434.951     5111.996     77.79845     156.2833     312.6288      1.711     4.61     855.4535     55.14431     409.3221        25     1.607     0.908 -31.46   0
       118    825.3903    816.4520 307.5573172  +6.3565023     834.6171     1354.001     1638.481     77.79845     156.3456     312.5977      1.834     5.76     855.4399     55.14431     114.4208        10     1.374     0.681 -40.49   0
       119    545.6557    815.4886 307.6735271  +6.3475501     666.6614     1056.199      1176.82     78.42134     156.3456     313.0021      1.653     4.28     855.9531     55.14431     100.4523         5     0.970     0.539 -40.06   0
       120    527.3723    813.6619 307.6811815  +6.3476924     5600.175     9130.809     9613.565      78.0482       156.47     312.8156      1.759     4.57     855.7173     55.14431     799.7424        33     1.692     0.963 -24.96   2
       121    533.7741    813.0303 307.6785439  +6.3481675     1428.697     2316.816     2570.993     77.92342     156.2833     312.6911      1.842     6.64     855.7382     55.14431     228.3917        18     1.672     0.853 -23.42   3
       122    239.2984    813.6288 307.8008196  +6.3380483     734.1595     1182.433     893.5077     78.54533      156.221     312.8466      1.598     4.97      853.923     55.14431     101.0441         8     1.081     0.647 -32.13   0
       123    863.1030    811.6330 307.5418152  +6.3597509     1155.664     1955.335     1803.528     78.54533     156.3456     312.9399      1.826     5.88     855.1348     55.14431     160.9461        16     1.560     0.815 -39.16   0
       124    445.2387    812.5995 307.7153276  +6.3453803     1499.099     2516.868     2412.042     77.54788     156.2833     312.5666      1.780     5.04     855.1302     55.14431     249.9193        17     1.471     0.800 -26.24   0
       125     86.7621    811.7169 307.8642302  +6.3337129     1272.871     2007.782     2061.772     78.42134     156.4078     312.8156      1.636     4.88     850.7267     55.14431        184.6        13     1.304     0.662 -32.86   0
       126    663.2260    810.5056 307.6248656  +6.3535407     798.9903     1306.747     1193.388     78.54533      156.221     312.6911      1.765     5.14     856.6388     55.14431     101.1804         9     1.289     0.580 -30.39   0
       127    498.1331    807.5146 307.6935307  +6.3492518     17903.93     29990.82     31804.65     78.54533     156.7185     312.8777      1.804     4.71     855.1699     55.14431     2718.581        45     1.777     1.021 -26.46   0
       128    338.7233    809.5363 307.7596664  +6.3430746     682.9294     1153.376     1309.937     78.66912       156.47     312.8156      1.772     4.58     854.2776     55.14431      90.8999         8     1.165     0.511 -67.95   0
       129    911.7736    805.7378 307.5217979  +6.3638089     3134.998     5313.442     5554.448     78.04819     156.4078     312.7533      1.802     4.89     854.1151     55.14431     428.4153        28     1.667     0.954 -21.01   0
       130      8.3508    798.0116 307.8972541  +6.3367348     1428.269      2170.01      2490.14     77.79844     156.4078     312.2551      1.765     4.62     848.1201     55.14431     222.2184        18     1.425     0.905 -32.19  16
       131    756.2995    792.0378 307.5868278  +6.3642772     49437.81     83330.15     88546.45     78.42134     156.3456     313.0643      1.816     4.49     855.5309     55.14431     6741.414        72     1.826     1.140 -27.17   0
       132    290.8478    796.2117 307.7799963  +6.3469707     2832.372     4856.934      4491.31     77.79844     156.3456     312.5355      1.743     4.81     854.4873     55.14431     403.3599        24     1.740     0.810 -24.24   0
       133    694.2161    794.2587 307.6125382  +6.3612857     584.4417     812.0598     745.9352     77.79844     156.4078     312.5977      1.707     4.11     855.9615     55.14431     100.9313         6     0.935     0.577 -63.13   0
       134    262.7491    792.1733 307.7918013  +6.3476953     857.3258      2301.63     2842.346     78.04819     156.5943     312.7845      2.740     9.05     853.7291     55.14431      101.564        18     1.727     1.325 -49.71   0
       135    213.5360    789.8152 307.8123186  +6.3470168     4712.819     8133.705     10660.07     77.92342     156.3456     312.7222      2.081     4.75     852.6561     55.14431     712.0964        37     1.806     1.045 -26.90   0
       136    398.9552    790.7353 307.7352826  +6.3528579     752.6639     1236.611     1192.615     78.42134     156.4078     312.8466      1.817     4.54     853.9689     55.14431     118.9036         9     1.066     0.745 -40.82   0
       137    881.5353    787.2169 307.5349748  +6.3704485     7470.684     12776.17     13733.26     77.92342     156.4078     312.7222      1.858     4.47     854.3759     55.14431     974.6135        42     1.721     1.114 -28.55   0
       138    684.4318    786.6729 307.6168555  +6.3640913     19661.31     33065.43     36126.03     78.29716       156.47     312.8777      1.831     4.55     855.6544     55.14431     2808.954        56     1.854     1.106 -24.32   3
       139    678.2274    783.1417 307.6195505  +6.3653421     78911.55     132747.4     140615.5     78.04819     156.5322     312.7222      1.789     4.54     855.4505     55.14431     10710.84        83     1.846     1.132 -27.43   3
       140    323.0822    784.0754 307.7670167  +6.3530637     18782.43      31519.1     33176.96     78.66911     156.7806     312.9088      1.801     4.49     853.4975     55.14431     2660.785        53     1.804     1.072 -27.04   0
       141    372.3978    784.2053 307.7465312  +6.3546640     1241.509     2130.886     2177.216     77.79845     156.1587     312.6288      1.833     5.44     853.3443     55.14431     184.5656        16     1.675     0.681 -22.51   0
       142    384.9694    781.8941 307.7413876  +6.3560399     19970.48     33769.13     35254.95     78.54533      156.221     312.8156      1.781     4.62     853.4156     55.14431      3136.67        50     1.775     1.050 -26.21   0
       143    921.9808    780.9838 307.5183845  +6.3743715     1898.542     3500.568     3546.671     78.17278      156.221     312.7533      1.994     4.89     853.5052     55.14431     236.7614        23     1.554     1.013 -28.88   0
       144    265.7051    781.4987 307.7909321  +6.3522025     668.6019     915.4412      1046.49     78.42134     156.9667     312.6911      1.650     4.99      853.262     55.14431     97.71741         6     1.135     0.623 -46.22   0
       145    213.2194    768.3754 307.8131706  +6.3558594     749934.1      1818431      2045494     78.04819     156.2833     312.7845      2.413    13.34     851.6606     55.14431      63306.8       539     2.519     1.966 -28.69   4
       146    619.0464    777.7861 307.6443090  +6.3655747     5814.569     9672.321      9807.01     77.79844     156.2833     312.6288      1.740     4.53     855.3611     55.14431     947.5109        30     1.622     0.927 -25.25   0
       147    234.3228    776.0829 307.8041473  +6.3533853     416.3907     1275.825     3169.788     78.54533     156.7806      312.971      4.095     4.37      852.312     55.14431      78.8219         5     1.109     0.490 -89.00   2
       148    407.9137    775.7964 307.7320631  +6.3593270     1616.863     2764.045     2981.774     77.92342     156.0964     312.5977      1.789     5.22     853.3961     55.14431      262.047        19     1.554     0.815 -31.33   0
       149    132.8379    774.8992 307.8463337  +6.3504650     655.0005     1134.149     1058.467     78.42134     156.3456     313.0643      1.684     4.30     850.8854     55.14431     101.3439         5     0.796     0.661 -44.77   0
       150   1001.4803    770.8030 307.4857049  +6.3812257     589.8065     994.4796     977.0279     77.79845      156.034     312.5977      1.843     5.40     852.2798     55.14431     81.55902         6     1.268     0.650 -49.07   0
       151    571.7111    769.9720 307.6642301  +6.3672179     838.3777     1358.833     1330.667     78.54533      156.221     312.7533      1.704     5.65     854.1658     55.14431     111.2855        10     1.183     0.761 -27.22   0
       152    846.8621    769.4544 307.5499688  +6.3766266     732.8542     1150.287     833.2946     78.54533     156.4078     312.8156      1.463     5.17     854.4634     55.14431     112.1036         9     1.432     0.527 -26.87   0
       153    654.2805    767.9263 307.6300053  +6.3708246     2204.153      3673.28     3732.121     78.66911     156.7185     312.9088      1.735     5.06     854.6562     55.14431      277.959        21     1.584     0.831 -26.64   0
       154    123.1049    768.6260 307.8505868  +6.3527283      974.847     1495.099     1408.523     78.54533      156.221     312.7222      1.603     4.43     850.4459     55.14431     152.4201        11     1.357     0.638 -35.51   0
       155     98.4596    768.3032 307.8608328  +6.3520331     1006.048     1639.236     1822.059     78.17278       156.47     312.9399      1.758     5.46      849.812     55.14431     148.3339        11     1.485     0.566 -30.98   0
       156    387.8929    764.5609 307.7407548  +6.3632955     49059.44     81512.13     86793.41     78.54533     156.4078     312.9088      1.799     4.70     852.7475     55.14431     7725.831        76     1.849     1.103 -26.74   0
       157    930.9081    766.0267 307.5151757  +6.3808457     680.0787     1023.623     999.4194     78.54533      156.221     312.6911      1.649     5.80     853.0863     55.14431     91.90027        10     1.463     0.647 -17.02   0
       158    505.6791    763.5803 307.6918688  +6.3676469     6476.033     10807.38     10784.72      78.0482     156.1587     312.8156      1.802     4.83     853.1555     55.14431     986.6968        35     1.725     0.957 -25.56   0
       159    422.5418    762.1407 307.7264457  +6.3654563     3955.423     6769.379     7299.888     78.42134     156.4078     312.8777      1.894     4.84     852.8199     55.14431     609.6978        29     1.829     0.858 -23.99   0
       160    878.4637    778.6968 307.5365349  +6.3738644     5917.182     10242.87     10684.31     78.29716     156.5943     312.8777      1.855     4.45     854.2992     55.14431     854.6641        38     1.743     1.089 -27.69   0
       161    750.9315    760.1134 307.5901243  +6.3772810     10282.23     17391.22     18271.48     78.42134     156.7185     312.8777      1.806     4.60      854.752     55.14431     1409.992        41     1.767     0.995 -24.66   0
       162    418.8938    755.6570 307.7281783  +6.3680114     2056.155     3253.924     3805.637     78.29716       156.47     313.0021      1.641     4.61     852.5193     55.14431     310.9012        22     1.637     0.800 -22.89   0
       163    772.5231    754.5424 307.5813426  +6.3803027     1078.977      1635.52     1548.717     78.42134     156.4078     312.7845      1.648     6.28     854.5685     55.14431     168.1071        13     1.409     0.785 -18.58   0
       164    116.8741    752.4193 307.8537196  +6.3592111     2644.831      4515.76     4622.331     78.04819     156.4078     312.7845      1.848     4.97     849.7611     55.14431     407.5589        23     1.680     0.808 -28.12   2
       165    108.6404    752.1481 307.8571482  +6.3590463     10357.57     17710.37     19788.82     78.42134     156.5322     312.8466      1.853     4.73     849.5786     55.14431     1456.067        48     1.898     1.046 -22.31   3
       166    100.8518    749.4553 307.8604734  +6.3598964     2684.016     4626.871     5439.695     78.42134       156.47     312.8156      1.837     4.63     849.3046     55.14431     443.2589        26     1.673     0.877 -26.03   3
       167    896.4117    748.7307 307.5300806  +6.3868377     5464.869     9696.184     9592.709     77.92342     156.2833     312.7222      1.865     4.74     853.4034     55.14431     731.2604        35     1.780     1.028 -26.90   0
       168    945.4526    748.6637 307.5097140  +6.3885008     1211.965     2050.329     2820.421     78.42134     156.4078     312.8156      1.994     5.80     852.6427     55.14431     175.5106        14     1.567     0.681 -25.97   0
       169    651.7469    746.4352 307.6317766  +6.3796145     1694.982     2644.034       3444.8     78.29716       156.47     312.8466      1.758     4.28     853.3797     55.14431     223.0228        18     1.330     0.884 -21.51   0
       170    538.7310    745.6833 307.6787410  +6.3761439     2119.861     3285.365     3442.535     78.66911     156.7185     312.8777      1.747     4.42     852.3361     55.14431      396.362        19     1.584     0.734 -27.87   0
       171    386.6172    745.0995 307.7419376  +6.3712891     966.4766     2044.219      2390.59     78.42134     156.2833       312.66      2.282     5.95     851.9199     55.14431     162.4638        16     1.568     0.948 -15.91   0
       172    670.3987    743.5226 307.6241272  +6.3814409     586.3928     1033.096     1266.468     77.67326     155.9093       312.66      2.086     5.32     853.2523     55.14431     89.21722         6     1.157     0.690 -41.42   0
       173    100.9496    743.0543 307.8606481  +6.3625428      1807.07     2895.367     3441.171     78.42134       156.47     312.8777      1.700     5.16     849.1215     55.14431      251.072        21     1.578     0.849 -28.76   0
       174    950.8938    740.0724 307.5077406  +6.3922299     1541.725     2751.588     2878.067     78.29716     156.5322     312.8777      1.950     5.44     852.4397     55.14431     213.9173        23     1.657     0.996 -24.03   0
       175    920.1085    740.2772 307.5205204  +6.3911189     2623.423     4614.032     4814.908     78.17278     156.7185     312.8466      1.836     4.93      852.815     55.14431     358.0995        23     1.604     0.870 -25.52   0
       176    890.6154    740.7056 307.5327560  +6.3899583       2584.2     4252.127      4329.73     78.17278     156.2833     312.6911      1.822     4.53      853.343     55.14431     410.9398        24     1.541     0.930 -26.80   0
       177    402.6925    741.2145 307.7353914  +6.3734323     417.2498     417.4157     656.3932     78.17278      156.221       312.66      1.201     4.42     851.7717     55.14431     84.12463         5     0.756     0.734 -62.08   0
       178    642.9836    739.8013 307.6356383  +6.3820610     1260.979     2106.618     2361.887     78.04819      156.034     312.5666      1.732     4.55     853.0324     55.14431     226.3885        17     1.390     0.936 -18.79   0
       179    790.2737    738.0925 307.5745197  +6.3876885       976.34     1470.073     1463.227     78.29716     156.5943     312.8777      1.488     5.58     854.1843     55.14431     144.7164        12     1.341     0.654 -17.12   0
       180    865.3372    736.4061 307.5433988  +6.3908904     537.9425     892.5182     1256.542     77.79845      156.221     312.6288      1.839     4.58     853.6931     55.14431     104.3565         6     1.237     0.481 -44.48   0
       181    215.4392    735.0163 307.8133696  +6.3697090     1820.495     3168.942     3887.407     78.04819     156.2833     312.6288      1.845     6.17     850.1796     55.14431     223.0925        19     1.578     0.840 -24.92   0
       182    907.7906    730.5613 307.5259608  +6.3947203     771.3651     1366.042     1451.784     77.79845     156.2833     312.5666      1.658     4.84     852.8009     55.14431     114.8063         9     1.308     0.507 -19.01   0
       183    882.0701    729.4962 307.5366794  +6.3943022     1082.779     1812.111     2008.546     78.29716     156.5322     312.8466      1.895     5.27     853.1953     55.14431     144.1055        13     1.328     0.738 -19.64   0
       184    131.2795    729.5040 307.8485077  +6.3691577     691.6991     1374.256      1488.69     78.17278     156.7185     312.9399      1.864     6.32     849.3927     55.14431     99.66815        12     1.838     0.611 -29.89   0
       185    934.8281    728.0864 307.5148134  +6.3966440     2223.416     3757.884     4106.913     78.54533     156.1587     312.7222      1.815     4.66     852.3021     55.14431     325.0233        21     1.457     0.936 -27.88   0
       186    654.7818    726.9600 307.6311677  +6.3877583     820.0908     1434.396     2434.708     78.04819     156.2833     312.5977      1.955     5.26     852.7717     55.14431     123.0612        10     1.466     0.533 -20.62   0
       187   1008.9384    722.0778 307.4842317  +6.4015954     6243.239     11162.63     11776.27     78.66911     156.5322     312.8466      1.890     4.70     851.5953     55.14431       825.74        37     1.756     1.093 -25.25   0
       188    976.7256    721.5636 307.4976286  +6.4007343     1388.824     2344.037     2500.733     78.29716     156.5322     312.8777      1.992     5.09     851.8303     55.14431     174.6901        18     1.454     0.809 -15.30   0
       189    445.6435    722.3830 307.7181841  +6.3826480     482.0462     849.6754     453.8662     77.92342     156.3456     312.6288      1.689     4.58     851.3061     55.14431     79.85779         6     1.255     0.474 -28.28   0
       190    601.7769    721.6149 307.6533617  +6.3881927      608.478     880.7322     782.5433     78.17278     156.2833     312.7533      1.523     3.04     852.4523     55.14431     101.5481         5     0.720     0.462  16.18   0
       191    777.9650    719.8259 307.5802425  +6.3948207     967.4562     1613.661     1469.905     77.79844     156.2833     312.6288      1.715     5.86     853.7012     55.14431     115.4879        12     1.321     0.733 -16.70   0
       192    864.0898    717.4810 307.5445487  +6.3986640     1329.704     2247.229     2526.081     78.17278     156.6564     312.9399      1.886     5.29     853.1497     55.14431     153.8301        18     1.515     0.838 -19.70   0
       193    838.6092    712.3652 307.5553030  +6.3999262     753.3638      1128.31     1700.043     77.92342     156.2833       312.66      1.722     5.69     853.1781     55.14431     115.7681        10     1.403     0.650 -29.66   0
       194    821.3374    708.6045 307.5626026  +6.4009027     1322.933     2413.139     2341.007     77.67326      156.221     312.6288      1.848     5.22     853.2159     55.14431     197.0211        17     1.561     0.851 -21.91   0
       195     20.2002    707.6240 307.8953765  +6.3744571     2119.331     3862.844     4076.772     78.04819     156.1587       312.66      1.927     5.03     848.3494     55.14431     282.2569        25     1.709     0.926 -28.32   0
       196    432.3613    706.6674 307.7242276  +6.3886925     490.8198     895.7952     569.0649     78.29716     156.4078     312.9088      1.566     5.91     850.7861     55.14431     85.40875         7     1.626     0.605 -65.16   0
       197     83.9371    708.0411 307.8688917  +6.3764288     645.3494     1266.672     1834.299     78.42134     156.4078     312.9399      1.796     4.86     848.3929     55.14431     123.2004         9     1.663     0.402 -21.02   0
       198     83.8873    705.0501 307.8690130  +6.3776622     593.6621     1223.545     1791.587     78.42134     156.3456     312.9399      1.778     3.68     848.3495     55.14431     81.52496         5     1.016     0.384 -32.62   0
       199    538.3010    701.9900 307.6803832  +6.3941724     591.1782      1135.72      1623.77     78.17278     156.0964       312.66      2.241     5.16     851.2653     55.14431     111.5236         6     1.558     0.483 -38.66   0
       200    633.0748    696.0446 307.6412181  +6.3997988     5625.695     9435.491     10395.97     78.29716     156.5322     312.8777      1.767     4.77     852.2838     55.14431     846.5102        35     1.760     0.940 -23.58   0
       201    490.0777    695.9446 307.7006151  +6.3950541     662.9062     1323.854     1351.298     78.54533       156.47     312.8777      1.699     5.68     850.9651     55.14431     123.1243        10     1.731     0.525 -43.00   0
       202    579.8900    695.2899 307.6633337  +6.3983312     1296.089     2325.465     2591.648     78.42134     156.9667     312.9399      1.968     5.50     851.6342     55.14431     219.5059        16     1.538     0.747 -26.53   0
       203    606.8697    691.7194 307.6522472  +6.4007083     1970.597     3165.531     2940.592     78.66911     156.7806     312.8777      1.733     5.52     851.9282     55.14431     323.9424        18     1.526     0.775 -28.00   0
       204     95.8818    691.9531 307.8644721  +6.3834737     3508.155     5577.856     5909.071     78.42134       156.47     312.8777      1.706     4.85      848.154     55.14431     535.6786        27     1.601     0.890 -28.10   0
       205    970.1568    691.1487 307.5013714  +6.4130752     2218.547     3893.832     4199.862     78.54533       156.47     312.8777      1.990     4.68      851.201     55.14431     295.3174        24     1.634     0.893 -27.63   0
       206    749.8465    688.1841 307.5929792  +6.4069479     17741.71     29959.78     31760.61     77.92342     156.3456     312.5977      1.788     4.68     852.9299     55.14431     2518.005        49     1.773     1.045 -27.41   0
       207    282.2631    692.3655 307.7870488  +6.3895645     572.9498     829.0244     602.5709     78.29716     156.5322     312.8466      1.222     4.16     848.8064     55.14431     96.71509         6     1.065     0.463  -8.00   0
       208    879.9450    687.9404 307.5389494  +6.4113918     3233.204     5455.119     5821.417     78.54533       156.47     312.8156      1.830     4.82     852.0508     55.14431     458.5504        27     1.674     0.926 -25.56   0
       209    476.9200    688.0436 307.7063449  +6.3978760     835.4579     1182.162     1212.527     78.42134       156.47     312.8156      1.535     4.91     850.7041     55.14431     146.7074        10     1.420     0.658 -28.59   0
       210    448.5701    688.4458 307.7181064  +6.3967601     1269.997     2111.885     1593.789      78.0482     156.5322     312.7222      1.657     4.01     850.4127     55.14431     217.5936        15     1.441     0.667 -26.85   0
       211    294.3530    688.3436 307.7821625  +6.3916310     656.1533     885.8919      410.711     78.42134       156.47     312.9399      1.512     4.91     848.7474     55.14431     114.8222         7     1.144     0.596 -24.00   0
       212    251.1121    688.4177 307.8001195  +6.3901491     604.4911     922.2565     1172.718     78.17278      156.221     312.7222      1.817     5.25     848.1995     55.14431     115.6027         6     1.117     0.696  12.49   0
       213    630.3890    680.9906 307.6428375  +6.4059254     6507.512     10517.06     11033.93     78.17278     156.2833     312.7845      1.720     4.48     852.0322     55.14431     889.4968        31     1.645     0.924 -22.75   0
       214    223.3814    681.7815 307.8118600  +6.3919583     5708.962     9642.664     10488.93     78.17278     156.2833     312.7845      1.828     4.88     847.6102     55.14431     813.2299        32     1.772     0.907 -26.64   0
       215    612.8563    682.1752 307.6500802  +6.4048498      779.314     1190.026      1199.11     78.04819       156.47       312.66      1.726     4.42     851.8096     55.14431     111.1516         8     1.335     0.416 -28.58   0
       216    324.8670    681.3700 307.7697230  +6.3955345      749.684     1167.001     1038.181     78.17278       156.47     312.8156      1.767     3.45     848.9919     55.14431     117.7979         5     0.806     0.428 -19.10   0
       217    889.8369    674.0107 307.5353056  +6.4174741     936.6869     1475.343     1357.459     77.92342     156.2833     312.5355      1.514     3.82     851.4819     55.14431     154.8239         9     1.154     0.592 -27.71   0
       218    702.1007    669.4534 307.6134373  +6.4130873     3213.887     5734.967     5855.338     78.29716       156.47     313.0643      1.859     4.69     852.4158     55.14431     451.7048        30     1.606     1.102 -28.57   0
       219    657.2095    670.0015 307.6320651  +6.4113602     918.7908     1520.751     1097.673     77.79844     156.1587     312.6288      1.636     4.45      852.202     55.14431     163.6241        11     1.206     0.724 -44.28   0
       220    968.3860    665.9736 307.5029467  +6.4234123     7809.495     13391.16     13955.96     78.17278     156.2833     312.7845      1.835     4.50     850.6951     55.14431     1020.747        40     1.771     1.049 -24.08   0
       221    907.0284    666.3487 307.5284206  +6.4212115     1891.914     3359.357     3208.104     78.04819     156.5943     312.7533      1.851     5.09     851.0267     55.14431     281.7634        20     1.545     0.901 -28.13   0
       222    520.3792    664.4852 307.6890836  +6.4090598     705.7634     1154.953     1072.716     78.17278      156.221     312.7845      1.806     5.20     850.2964     55.14431      103.694         8     0.969     0.790 -10.52   0
       223    506.7458    661.8221 307.6948355  +6.4097029     1772.776     2772.948     2915.464     77.92342       156.47       312.66      1.629     4.21     850.1474     55.14431      293.984        18     1.483     0.770 -22.45   0
       224    405.0935    663.2462 307.7370095  +6.4057090     578.6074     785.1634     1205.912     78.29716     156.4078      312.971      2.109     4.44       849.04     55.14431      105.237         7     1.383     0.405 -31.98   0
       225     45.7414    660.8234 307.8863444  +6.3946417     22884.06     38745.93     41076.63     78.04819       156.47     312.7222      1.801     4.68     847.6638     55.14431     3502.628        54     1.793     1.052 -26.84   0
       226    475.9678    658.9733 307.7077149  +6.4098485     1227.102     1858.165     1935.812     77.92342      156.221       312.66      1.582     5.51      849.822     55.14431     223.7228        14     1.504     0.654 -26.46   0
       227    896.7259    658.0547 307.5329768  +6.4242929     905.4035     1469.778     1534.026     78.29716     156.4078     312.7845      1.724     5.23     850.9951     55.14431     139.0914        10     1.412     0.603 -18.08   0
       228    515.9057    655.7157 307.6912355  +6.4125313     976.7296     1416.702     1178.259     78.29716     156.8427      312.971      1.514     4.06     849.9586     55.14431     178.0116        14     1.341     0.719 -33.71   0
       229    691.8285    653.0560 307.6182525  +6.4195152     3116.356     5389.677     5411.618     78.04819     156.5322     312.7533      1.836     4.91     851.6021     55.14431     446.9454        26     1.617     0.941 -24.20   0
       230    713.8158    651.3380 307.6091771  +6.4209595     3643.162      6092.95     6250.658     77.92342     156.4078       312.66      1.747     5.12     851.5615     55.14431     548.0408        28     1.643     0.909 -30.59   0
       231    545.1679    649.2548 307.6792976  +6.4161790     2922.257     4725.484     4818.199     78.29716       156.47     312.8156      1.727     4.33      849.799     55.14431     414.5262        25     1.573     0.884 -27.52   0
       232    381.1639    649.8467 307.7473982  +6.4104399     1212.315     2036.359     1823.335     78.04819     156.5322     312.7533      1.726     4.57     848.2581     55.14431     174.2618        14     1.403     0.757 -24.06   0
       233    205.9056    648.7415 307.8202287  +6.4050147     1571.715     2710.391     2348.901     78.29716       156.47      312.971      1.804     5.69     846.6993     55.14431     243.4768        19     1.703     0.753 -26.22   0
       234    986.6730    647.4507 307.4959685  +6.4316709     4136.494     7097.179     6892.777     78.42134     156.5322     312.8777      1.805     4.81     850.3948     55.14431     537.6768        29     1.684     0.958 -23.17   0
       235    952.0490    646.3651 307.5103869  +6.4309651     6994.344     11964.44     12168.54     78.29716       156.47     312.7845      1.822     4.64     850.3791     55.14431     969.7054        39     1.749     1.057 -25.52   0
       236    289.4546    648.2099 307.7855448  +6.4080393     1341.165      2137.26     1796.759     77.79845     156.4078     312.5666      1.652     4.89     847.0917     55.14431     200.3889        18     1.525     0.794 -19.91   0
       237   1000.9280    645.3641 307.4901168  +6.4330076     728.6627     1345.895     580.1447     78.29716       156.47     312.8777      1.780     5.48     850.3633     55.14431     106.0177        11     1.552     0.546 -32.61   0
       238    671.6096    645.0198 307.6269197  +6.4221578     806.4199     1546.815     1408.123     78.04819     156.1587     312.6911      2.140     5.06     851.1196     55.14431     121.4712         9     1.319     0.550 -38.36   0
       239     63.6513    643.1731 307.8795000  +6.4025325     793.8908     1321.067     1509.276     78.04819     156.5943     312.7845      1.970     5.96     847.0729     55.14431     105.3083        12     1.547     0.646 -14.87   0
       240    397.5092    640.5044 307.7409226  +6.4148458     2562.417     4344.267     4559.219     78.42134     156.9047     312.8156      1.809     5.30     847.8737     55.14431     416.9039        25     1.750     0.941 -33.60   0
       241    110.5294    639.7399 307.8601452  +6.4055266     21980.32     36546.32     38106.37     78.54533       156.47     312.9088      1.807     4.70     846.7051     55.14431     3305.569        54     1.807     1.042 -27.47   0
       242    778.4901    640.5029 307.5826753  +6.4275945     1159.859     1768.132     1342.728     78.42134     156.9047     312.8466      1.655     5.14     851.0796     55.14431     205.3021        15     1.372     0.810 -21.39   0
       243    330.2764    634.5245 307.7690489  +6.4150603     744.7754     1315.842     921.7397     78.66912     156.7185     312.9399      1.770     4.43     847.1454     55.14431     112.6703         7     1.310     0.426 -12.18   0
       244    946.8951    629.2977 307.5130972  +6.4378413     6038.832     11274.92     11967.92     78.42134     157.0287     312.6911      1.988     4.46     850.1104     55.14431      825.574        41     1.676     1.238 -20.43   0
       245   1002.3319    624.4219 307.4902320  +6.4417025     81234.77     139453.6     148222.2      78.0482     156.4078     312.8156      1.865     4.73     850.0314     55.14431      10788.3        92     1.856     1.242 -26.17   0
       246    540.5350    624.5599 307.6820492  +6.4262215     44606.37     72631.72     76865.73     78.42134     156.4078      312.971      1.786     4.69     848.7755     55.14431     6698.591        72     1.812     1.098 -28.02   0
       247    904.3503    626.3721 307.5308673  +6.4376306     602.1422     1078.439     818.6783     78.04819     156.5943     312.7845      1.473     4.11     850.2213     55.14431     120.4384         7     1.207     0.453 -38.56   0
       248    499.2012    625.4957 307.6991867  +6.4244510     630.2185     922.5354     858.6223     77.92342     156.1587     312.4732      1.325     4.10     848.7079     55.14431     121.9099         6     0.988     0.490   6.73   0
       249    765.2728    624.1960 307.5887106  +6.4338870      440.957     788.3394     461.0174     77.92342      156.034     312.6911      1.855     4.29     850.3812     55.14431     91.99951         6     1.751     0.299  -8.71   0
       250    147.9729    621.2341 307.8452158  +6.4144269     2632.438     4303.452      4163.93     77.92342      156.221     312.6288      1.697     4.81     846.0428     55.14431     390.8761        23     1.577     0.862 -26.81   0
       251    470.4207    621.5221 307.7112744  +6.4251278     673.1545     746.3005     1053.343      78.0482      156.221     312.8156      1.223     3.77     848.2965     55.14431     127.7945         6     0.949     0.431 -17.37   0
       252     40.3962    615.7073 307.8900833  +6.4130916     1184.777     2041.427     1525.596     78.04819     156.1587     312.5666      1.723     6.21      846.608     55.14431     162.3487        15     1.687     0.643 -26.97   0
       253    437.8099    608.3737 307.7252608  +6.4294646     57134.25     95790.97       100676     78.04819     156.2833     312.7222      1.778     4.87     846.8663     55.14431     8896.599        72     1.813     1.086 -27.06   0
       254   1016.0411    607.6201 307.4850975  +6.4490977     3055.513     5005.328     4829.416     78.04819     156.2833     312.6288      1.689     4.40     849.7142     55.14431     440.8997        25     1.569     0.913 -30.05  16
       255    623.4146    605.7291 307.6482536  +6.4367710     733.7216     1117.617     1029.746     77.92342     156.3456     312.7533      1.689     4.70     848.8803     55.14431     144.3527         8     1.209     0.519 -17.95   0
       256    112.0041    603.5497 307.8607504  +6.4205202     1593.729     2556.904     2235.677     77.79844     156.2833     312.4732      1.704     4.67     845.5099     55.14431     212.1995        19     1.476     0.883 -35.27   0
       257    391.0975    601.2335 307.7449033  +6.4308473     833.0972     1343.576     1279.258     78.42134     156.3456      312.971      1.426     5.21     846.0318     55.14431     115.5844        10     1.581     0.485 -37.45   0
       258    583.9022    600.2823 307.6648487  +6.4376983     839.0539     1286.587     1224.003     78.42134     156.8427     312.9399      1.447     4.94     848.3554     55.14431     140.8947         9     1.253     0.551 -24.69   0
       259    464.8804    599.5681 307.7143118  +6.4340079     477.2396     989.2273     1174.062     78.29716     156.4078     312.8156      2.251     4.25     847.3494     55.14431     80.03876         5     0.949     0.541 -46.85   0
       260    283.0391    597.5343 307.7899116  +6.4287498     1971.171     3252.394     3331.173     78.29716     156.4078     312.9399      1.721     4.36      845.755     55.14431     342.2882        21     1.646     0.790 -28.72   0
       261    435.1120    596.3359 307.7267852  +6.4343451      768.872     1291.134      2064.36     78.42134     156.7185     312.8466      1.677     4.69     846.4858     55.14431     136.6765         8     1.368     0.457 -27.62   0
       262    709.8436    591.8675 307.6128161  +6.4453850     4769.469     7821.938     8059.679     78.42134     156.4078     312.8777      1.709     4.86     849.3172     55.14431     798.1616        28     1.635     0.873 -24.93   0
       263    763.3692    587.1258 307.5907405  +6.4491315     12480.15     20368.95     21111.59     78.29716       156.47     312.8777      1.745     4.52     849.4599     55.14431     1749.079        43     1.744     0.974 -27.41   0
       264    980.4325    587.4593 307.5005617  +6.4562365     917.6102     1423.963     1418.996     78.29716     156.5322     312.8156      1.635     5.93     848.3816     55.14431     137.2574         9     1.424     0.696 -36.80   0
       265    505.3382    587.1667 307.6979221  +6.4404842     1016.019     1871.127     1968.478     78.17278     156.5322     312.7845      2.000     5.06     847.3417     55.14431     165.4198        10     1.177     0.615 -42.30   0
       266   1002.9783    586.1877 307.4912385  +6.4575130     1869.651     3018.212     3118.764     78.04819     156.2833     312.7533      1.698     4.61     848.0829     55.14431     247.4375        22     1.626     0.878 -15.04   0
       267      8.1563    586.9190 307.9044436  +6.4238942     562.9899     769.4254     1032.192     78.42134       156.47     311.9433      1.746     5.30     845.8674     55.14431     101.0748         7     1.667     0.476 -16.54  16
       268    587.3438    585.2165 307.6639237  +6.4440348     2674.372     4396.935     3996.483     77.92342     156.4078     312.5977      1.738     4.67     848.0649     55.14431     402.9832        24     1.604     0.926 -23.46   0
       269    904.3879    581.5992 307.5323463  +6.4561209     1091.305     1971.495     2221.946      78.0482     156.1587       312.66      1.976     5.11      848.851     55.14431     140.7021        16     1.447     0.770 -17.45   0
       270    199.5996    578.9229 307.8251949  +6.4336333     1217.445     2266.438     3351.267     77.67326     155.8468     312.5977      1.941     5.72     844.8837     55.14431     207.4544        13     1.538     0.600 -30.13   0
       271    346.0495    578.6106 307.7643743  +6.4386784     840.1232      1367.07     1403.804     77.92342     156.3456     312.5355      1.879     5.34     845.3488     55.14431     146.9968        11     1.622     0.496 -34.12   0
       272    839.2668    570.3760 307.5597725  +6.4585826     2552.526     4279.797     4349.215     78.04819     156.4078     312.7845      1.756     4.59     848.9884     55.14431     357.9795        24     1.587     0.883 -26.94   0
       273    134.5587    570.0373 307.8525095  +6.4351168     566.9227     857.0579     305.9109     78.17278       156.47     312.7222      1.532     4.78     844.6306     55.14431     84.90314         8     1.377     0.471 -22.90   0
       274    798.1184    567.9247 307.5769475  +6.4582211     2394.679     3911.414     4076.636     78.66911     156.7185     312.9088      1.742     4.55     849.2898     55.14431     438.0594        22     1.605     0.829 -23.10   0
       275    769.1442    563.8172 307.5891208  +6.4589496     1997.672      3832.68     4845.565     77.92342     156.4078     312.5977      1.996     5.73     849.1823     55.14431     327.5411        22     1.741     0.897 -22.67   3
       276    778.7646    559.0295 307.5852844  +6.4612480     140855.2     236337.5     250055.5     78.04819      156.221       312.66      1.791     4.66      849.145     55.14431     21766.43       121     1.853     1.207 -28.69   2
       277    226.1686    562.7546 307.8147025  +6.4412022     7171.656     12205.59     13481.16     78.04819     156.5322     312.7222      1.855     4.69     844.4868     55.14431     1045.281        40     1.765     1.045 -27.19   0
       278    160.3850    557.3483 307.8422089  +6.4412246     53056.51     89135.02     94315.95     77.79845       156.47     312.5977      1.809     4.77      844.326     55.14431     7559.938        78     1.852     1.123 -27.23   0
       279    708.6121    559.3966 307.6144137  +6.4587526     452.0029     910.1864      1738.57      78.0482     156.1587     312.7222      2.158     5.46     848.9146     55.14431       80.297         7     1.439     0.583 -18.12   0
       280     84.3690    553.5603 307.8739111  +6.4402331     5678.413     9596.256     10132.52      78.0482     156.2833     312.6911      1.844     5.14     844.1884     55.14431     797.2471        32     1.748     0.915 -27.27   0
       281    949.3259    551.0294 307.5146990  +6.4702433     1113.796     1918.669     1754.439     78.29716       156.47     312.8156      1.744     5.25     846.8666     55.14431     162.5757        15     1.474     0.792 -26.54   0
       282    197.8531    549.7935 307.8268997  +6.4456032     703.6009     1127.815     1164.842     77.92342      156.221     312.5666      1.678     4.76     844.1502     55.14431     117.4877         7     1.372     0.468 -51.48   0
       283    970.6885    549.4558 307.5058772  +6.4716053        660.8     1300.722     1416.414     78.42134     156.3456     313.0021      1.909     5.92     846.1806     55.14431     111.7525         6     1.410     0.701 -12.41   0
       284    815.3873    546.2327 307.5704988  +6.4677554     3906.375     6545.808     6869.913     77.92342      156.221     312.7533      1.756     4.99     848.8325     55.14431     576.2023        24     1.650     0.818 -26.81   0
       285    333.7377    544.4661 307.7706347  +6.4523650      15605.7     25854.28     27452.19     78.42134       156.47     312.8466      1.784     4.85     844.4976     55.14431     2384.847        47     1.754     1.022 -26.96   0
       286    423.2564    544.9913 307.7334320  +6.4551500     597.6189     896.0693     560.4305     77.79844     156.4078     312.5977      1.386     3.12     845.1157     55.14431     114.0686         5     0.792     0.492  29.67   0
       287    136.6378    542.7832 307.8525628  +6.4464408     1403.969     3002.055     3520.994     78.04819     156.3456     312.5977      2.531     8.78     843.9435     55.14431     232.0293        27     2.815     0.765 -29.87   0
       288    210.4182    541.0378 307.8219748  +6.4496408     888.8848     1406.067      1583.67     78.04819     156.3456     312.5977      1.552     5.71     843.8795     55.14431     149.1489        12     1.505     0.674 -32.15   0
       289    769.3673    539.5859 307.5898381  +6.4689633     5241.176     8507.104     8932.911      78.0482      156.221     312.7533      1.781     4.97     848.7545     55.14431     803.7397        31     1.700     0.934 -26.88   0
       290    500.0650    539.4022 307.7017135  +6.4600316     5879.822     9896.957     10357.65     77.79844      156.221     312.6288      1.798     4.75     845.5516     55.14431     934.3774        36     1.720     0.971 -28.03   0
       291     72.9312    540.7446 307.8790934  +6.4451404     907.0488     1388.471     1465.229     78.42134     156.3456     312.8156      1.619     5.64     843.8485     55.14431     165.6043        10     1.594     0.562 -27.43   0
       292    358.4535    535.8900 307.7606560  +6.4567354     1230.013     2037.704      2375.46     78.42134     156.2833      312.971      1.943     5.62     844.1118     55.14431     158.8503        16     1.541     0.755 -32.60   0
       293    147.0730    532.4553 307.8485757  +6.4510563     6076.858     10164.48        10896     78.29716     156.3456     312.7845      1.790     4.70     843.7257     55.14431     930.4823        37     1.736     0.992 -26.68   0
       294    544.9203    532.2654 307.6833198  +6.4644807     2316.289     4007.684     4489.944     78.66911     156.5943     312.8156      1.903     5.15     845.6749     55.14431     354.5699        25     1.850     0.825 -31.02   0
       295     18.7311    531.2395 307.9019266  +6.4472417     4441.433     7698.978     8724.941     78.29716       156.47     312.9399      1.892     4.63     843.7086     55.14431     645.6942        32     1.687     0.995 -26.76   0
       296    785.7209    531.7842 307.5833054  +6.4727312      1124.93     1875.085     1468.255     78.04819      156.221     312.6911      1.797     5.30     848.5145     55.14431     174.1339        11     1.408     0.564 -29.80   0
       297    242.3724    528.9640 307.8091074  +6.4556997     77601.47     130959.6     138681.9     77.92342      156.221       312.66      1.804     4.65     843.4812     55.14431     11039.76        89     1.857     1.142 -26.78   0
       298    531.3160    526.6870 307.6891580  +6.4663288     855.3381     1400.385     1963.465     78.17278     156.6564     312.8777      1.685     5.11     845.2946     55.14431      138.785        10     1.366     0.542 -20.28   0
       299    225.7858    524.2202 307.8161566  +6.4571015     1116.283     1895.553     1687.821     78.17278     156.1587     312.7533      1.724     6.47     843.1797     55.14431     180.5165        16     1.771     0.664 -35.63   0
       300    469.1197    519.7968 307.7152255  +6.4670908      36815.3     65378.07     71114.83     77.79844      156.034     312.5977      1.912     4.62     844.3487     55.14431     5114.839        82     1.965     1.248 -21.81   0
       301    942.1104    522.5942 307.5186453  +6.4817451     1412.037     2486.955     2384.374     77.92342     156.1587     312.5977      1.783     6.19     846.2052     55.14431     230.4242        17     1.794     0.637 -26.57   0
       302    765.5463    521.3572 307.5920348  +6.4763632     14537.03     24216.84     25398.04     78.42134       156.47     312.8466      1.807     5.06     848.0059     55.14431     2053.765        47     1.773     1.017 -27.21   0
       303    619.3579    518.4398 307.6528610  +6.4726810     875.1068     1286.457     1146.723     78.17278       156.47     312.7222      1.552     4.42     846.4983     55.14431     154.3437        10     1.238     0.620 -19.94   0
       304     16.3542    516.9271 307.9033959  +6.4530717     1133.861     1904.922     1896.822     78.29716     156.5322     312.8466      1.729     5.26     843.5009     55.14431     174.7839        14     1.342     0.999 -36.99   0
       305    181.5631    516.0057 307.8348023  +6.4590079     1699.279     2972.672     3523.601     77.54788      156.221     312.6288      1.933     5.40     843.2157     55.14431     234.6157        23     1.600     0.961 -37.11   0
       306    628.9849    514.7985 307.6489837  +6.4745067     2776.591     4440.175     4559.478     78.04819     156.1587     312.6288      1.693     4.45     846.4919     55.14431     406.6061        25     1.623     0.884 -25.78   0
       307     67.9735    516.0645 307.8819835  +6.4551647     459.8563     905.2103     939.6738     78.04819     156.4078     312.7533      1.759     4.85     843.4053     55.14431     85.07001         7     1.593     0.419 -24.40   0
       308    691.1387    513.8334 307.6231965  +6.4769837     1152.003     1848.921     1859.443     78.17278     156.5322     312.7845      1.610     4.88     847.1993     55.14431     193.4481        13     1.379     0.701 -38.30   0
       309    638.8332    514.7483 307.6448943  +6.4748569     1240.122     1943.989     1931.925     78.29716       156.47     312.7533      1.692     4.71     846.6305     55.14431     205.4426        14     1.376     0.698 -32.00   0
       310    366.6703    510.6034 307.7580916  +6.4674528     1565.652     2548.495     2224.792     77.92342     156.0964     312.6911      1.708     4.87     842.8776     55.14431     304.0023        19     1.733     0.788 -28.06   0
       311     47.5542    511.9170 307.8906049  +6.4561904     728.6847     1352.536     1240.052     78.42134       156.47     312.8466      2.350     6.52     843.3695     55.14431     130.6908        10     1.485     0.804  18.83   0
       312    478.0779    508.2359 307.7118919  +6.4721649      2015.38     3410.004     3421.997     78.29716     156.5322     312.8466      1.768     4.80      843.874     55.14431     284.9238        22     1.618     0.872 -27.67   0
       313    298.3195    508.7357 307.7865470  +6.4659309     3409.558     5664.009     5588.319     78.66911     156.5322     312.8156      1.741     4.75     842.7734     55.14431      477.739        28     1.644     0.907 -29.75   0
       314    113.4666    507.3399 307.8633801  +6.4602974     23545.27     39036.74      40969.8     78.54533     156.4078     312.8466      1.814     4.81     843.1895     55.14431     3242.225        50     1.794     1.042 -26.87   0
       315   1016.9062    508.1035 307.4880567  +6.4902221      1122.31     2166.837     1778.638     78.42134     157.0287     311.6624      1.919     6.36     844.3477     55.14431     161.0049        16     1.738     0.738 -30.28  16
       316    841.3215    507.4649 307.5610206  +6.4846303     1366.309     2040.552     1996.984     78.66912     156.5322     312.8156      1.667     4.88     847.4369     55.14431     205.7256        17     1.545     0.674 -25.72   0
       317     78.5379    505.5674 307.8779486  +6.4598547      2409.21     4180.456     4461.651     78.17278     156.5322     312.7845      1.905     4.55     843.2047     55.14431     352.6417        24     1.587     0.905 -29.22   0
       318    938.9916    501.9477 307.5206300  +6.4901671     4446.681     7451.995     7468.433     77.92342     156.3456     312.5666      1.729     4.57     845.7283     55.14431     677.3403        30     1.668     0.943 -24.68   0
       319    315.3676    503.9466 307.7796261  +6.4684806     1027.645     1709.052     2094.011     78.29716       156.47     312.7845      1.773     5.24     842.4749     55.14431     156.3529        10     1.337     0.581 -22.03   0
       320    511.9381    494.4178 307.6982892  +6.4790052       1341.7     2401.342     2505.377     78.04819     156.4078     312.6911      1.829     4.44     843.5388     55.14431     251.1801        17     1.520     0.720 -34.51   0
       321    410.4856    488.4500 307.7406339  +6.4780700     38932.98     63970.72      67216.7     78.42134     156.3456     312.9088      1.805     4.88     842.1826     55.14431     5467.184        66     1.823     1.072 -27.71   0
       322    387.2627    491.1227 307.7501912  +6.4761878     540.4639     969.6143     1605.018     78.66911     156.5322     312.8156      1.691     3.46     842.0621     55.14431     81.67383         5     1.003     0.344 -45.58   0
       323    258.0854    489.0231 307.8039225  +6.4727203     947.9348      1464.99     1171.902     78.42134      156.221     312.7222      1.590     5.66     841.7922     55.14431     127.6652        12     1.327     0.814 -60.81   0
       324    618.4639    488.1718 307.6542458  +6.4851501      11025.9      18077.9     18874.34     78.04819       156.47     312.7845      1.763     4.72     845.0367     55.14431     1564.431        41     1.766     0.958 -25.60   0
       325    952.2092    486.6160 307.5156507  +6.4969391     1025.026      1682.45     2087.262     78.17278      156.221     312.7533      1.904     4.38     845.1458     55.14431     139.3307        12     1.241     0.739 -48.41   0
       326    141.4142    487.1149 307.8524515  +6.4695885     1445.325     2228.164     2136.678     78.04819      156.221     312.7222      1.607     5.10     842.7755     55.14431     195.9276        18     1.595     0.763 -26.27   0
       327    880.8287    485.9989 307.5453252  +6.4948131     705.6147      1085.95     1483.845     77.92342     156.2833       312.66      1.736     5.45     846.5497     55.14431     101.3815        10     1.431     0.586 -20.83   0
       328    792.7066    486.0065 307.5819335  +6.4918684     816.4056       1235.6     1567.968     78.04819     156.1587     312.6911      1.821     5.87     846.8458     55.14431     101.6424        11     1.428     0.680 -24.20   0
       329    540.2453    484.9103 307.6868486  +6.4838791     2691.877     4463.217     4267.176     78.42134     156.4078      312.971      1.780     4.94     843.3687     55.14431     365.3976        24     1.601     0.865 -28.23   0
       330    914.1611    482.1245 307.5316071  +6.4975250     4244.793     6904.291     7125.937     78.29716       156.47     312.9088      1.723     4.60     845.6948     55.14431     568.6522        26     1.558     0.903 -23.80   0
       331    587.2917    480.5086 307.6674521  +6.4872716     5813.073     9553.161     10839.06     78.42134     156.9667     312.8777      1.757     4.71     844.1178     55.14431     934.4159        30     1.709     0.890 -27.17   0
       332     74.9962    481.1169 307.8802429  +6.4698318     1067.599     1907.712     1968.771     77.92342     156.0964     312.5355      1.750     6.18     842.7594     55.14431      160.756        14     1.639     0.656 -31.64   0
       333    485.1931    480.4010 307.7098694  +6.4838975     560.4479     1004.258     1443.234     77.79845     156.1587       312.66      2.002     5.78     842.6362     55.14431     82.41766         9     1.372     0.685 -22.13   0
       334    936.6387    474.4318 307.5225259  +6.5014513     3051.153     5074.802     5513.679      78.0482     156.2833       312.66      1.801     4.48     845.0289     55.14431     381.0014        25     1.563     0.921 -25.71   0
       335    499.5275    471.8088 307.7042027  +6.4879257     6723.391     11301.74     11917.32     77.92342      156.034     312.6911      1.818     4.81     842.5031     55.14431       1041.6        38     1.818     0.963 -26.69   0
       336    374.7243    473.2282 307.7560004  +6.4831566     598.4839     953.1583     1568.471     78.29716       156.47     312.8156      1.701     3.59     841.1296     55.14431     109.7204         5     0.942     0.394 -44.08   0
       337    345.2708    472.0522 307.7682752  +6.4826543     2376.788     3751.098     3886.799     78.29716     156.4078     312.8466      1.777     4.23      840.864     55.14431     339.5182        20     1.503     0.774 -27.71   0
       338    175.6191    486.0602 307.8382784  +6.4711737      16707.2     30272.96     31882.56     78.04819     156.4078     312.6911      1.910     4.52     842.4835     55.14431     2196.564        54     1.819     1.182 -22.60   0
       339    856.1201    467.5510 307.5562061  +6.5016066     2932.339     4973.532     4905.567     78.42134     156.5322     312.8466      1.759     4.66     846.1934     55.14431     448.8822        24     1.564     0.920 -24.61   0
       340    507.8841    468.8382 307.7008308  +6.4894323     598.8294     1005.164     1000.247     78.42134     156.4078     312.7844      1.863     4.73     842.5076     55.14431     95.47772         5     0.909     0.700 -26.47   0
       341    203.7115    467.0923 307.8272467  +6.4799500     578.1299     572.8275      486.282     78.42134     156.9047     312.9399      1.433     4.34     841.3807     55.14431     107.9159         6     1.238     0.433 -53.63   0
       342    863.5004    461.9870 307.5533259  +6.5041506     2091.605       3330.2     3404.351     78.17278      156.221     312.5977      1.712     5.12     845.9184     55.14431     267.0399        20     1.551     0.839 -27.28   0
       343    902.6025    461.1704 307.5371086  +6.5057924     971.4498     1488.952     1285.632     77.92342     156.2833       312.66      1.673     6.34     845.2571     55.14431     138.8402        13     1.529     0.739 -29.76   0
       344    687.1979    458.0185 307.6267012  +6.4999005     2738.333     4525.507     3991.538     78.04819      156.034     312.5977      1.700     5.22     844.8653     55.14431     399.2126        24     1.715     0.776 -25.42   0
       345    398.3972    456.5485 307.7467260  +6.4908381     874.7981     1455.712     1693.442     77.79845     156.1587      312.442      1.839     6.19     840.8456     55.14431     130.0352        12     1.704     0.632 -33.80   0
       346    358.1871    456.1459 307.7634436  +6.4896559     3404.075     5480.626     5471.057     77.79844     156.4078     312.5666      1.708     4.55     840.3567     55.14431      493.657        24     1.705     0.793 -31.09   0
       347     49.2252    456.9716 307.8917610  +6.4789351     1808.886     3159.237     3145.699     77.92342     156.2833     312.7222      1.789     5.34     842.1354     55.14431     244.7002        19     1.655     0.783 -26.92   0
       348    585.9443    452.8059 307.6689397  +6.4986661     8912.539     14912.04     15607.19     77.92342     156.3456     312.5666      1.766     4.74     843.3615     55.14431     1510.934        40     1.739     1.022 -29.66   0
       349    748.9722    448.9718 307.6013405  +6.5057009     13690.99     24016.78     26634.04     77.92342     156.2833       312.66      1.930     6.37     844.9822     55.14431     2120.611        56     2.289     1.026 -40.99   0
       350    268.3203    449.5507 307.8009972  +6.4893634     2409.598     3779.251     3213.285     78.42134     156.5322     312.8466      1.716     4.60     840.3062     55.14431     337.9528        19     1.529     0.762 -22.80   0
       351    351.2840    446.2769 307.7666426  +6.4934996     1542.182     2447.057     2709.561     78.54533     156.7806     312.9399      1.621     4.53     839.9722     55.14431     220.5135        20     1.515     0.866 -30.05   0
       352    777.7687    446.1969 307.5894700  +6.5078088     1159.456      2043.25     2141.786     77.92342     156.2833     312.6288      1.806     6.13     845.0005     55.14431     181.2744        16     1.659     0.692 -26.76   0
       353    878.0089    446.1269 307.5478282  +6.5111841     595.5685     1032.249     1105.526     78.04819      156.034     312.6911      1.659     4.86     845.0208     55.14431     92.86023         6     0.926     0.722  43.61   0
       354    934.0736    443.9364 307.5246094  +6.5139589     1672.057     2907.375     2774.002     78.54533       156.47     312.8466      1.762     5.74     844.3226     55.14431     250.9252        23     1.729     0.928 -26.92   0
       355    820.5493    444.0706 307.5717682  +6.5101154     451.2021     467.0959     899.2759     78.29716     156.4078     312.8777      1.110     3.94     845.0358     55.14431     90.24005         5     0.892     0.497 -88.60   0
       356    338.3582    443.1133 307.7721185  +6.4943723      585.372     946.4991     925.4093     78.42134     156.4078     312.8777      2.128     5.08     839.8972     55.14431     108.6852         8     1.574     0.464 -44.42   0
       357     86.1137    441.2172 307.8769679  +6.4866815     3908.362     6660.772     7384.263     78.04819      156.221     312.7845      1.836     4.53     841.6127     55.14431     544.5395        31     1.725     0.934 -26.37   0
       358    724.2657    440.1751 307.6118987  +6.5085079     2039.016      3329.49     3374.476     78.04819       156.47     312.7222      1.719     4.74     844.4905     55.14431     307.9033        22     1.637     0.811 -30.32   0
       359    987.8853    438.8831 307.5024220  +6.5178397     3570.593     6902.869     7377.663     78.17278     156.6564     312.9399      2.019     5.27     842.9921     55.14431     398.4393        38     1.801     1.164 -12.66   0
       360    243.7776    438.2148 307.8115736  +6.4932203     1384.662     2283.659     2281.675     78.17278     156.2833     312.7533      1.831     4.46     839.9462     55.14431      217.184        15     1.359     0.748 -26.57   0
       361    322.1540    435.9755 307.7790898  +6.4967760     2861.176     4695.544     4361.411     78.04819       156.47     312.7222      1.685     4.74     839.6795     55.14431     423.7665        25     1.571     0.897 -28.85   0
       362    677.7031    434.0661 307.6314472  +6.5094741     1461.215     2390.068     2077.117     78.42134     156.5322     312.8777      1.736     4.32     844.1002     55.14431     247.1594        16     1.387     0.766 -35.17   0
       363    209.5756    431.7204 307.8260000  +6.4947533     705.9371     1124.869     481.6229     78.17278     156.2833     312.8466      1.747     6.28     840.1322     55.14431     105.8054        10     1.506     0.736 -36.36   0
       364    518.8789    426.7990 307.6976724  +6.5071603     897.1649      1430.26     957.0968     77.67326     155.9093     312.6288      1.661     4.83     841.5008     55.14431     141.8316        10     1.411     0.547 -14.96   0
       365    804.1658    423.8997 307.5792488  +6.5178979     1119.983     1930.202     1852.104     78.42134     156.3456     313.0021      1.724     5.30      844.104     55.14431     169.8207        13     1.635     0.630 -26.14   0
       366    441.8013    424.6373 307.7297655  +6.5054706     1200.816     2120.333     2395.932     77.54788     156.2833     312.6288      1.806     6.18     840.0759     55.14431     214.2725        15     1.483     0.725 -26.80   0
       367    789.9727    422.8059 307.5851819  +6.5178756     1731.419       2872.7     2818.625     77.92342     156.2833       312.66      1.760     5.09     844.0231     55.14431     299.5123        16     1.542     0.680 -17.88   0
       368    687.1381    420.9949 307.6279649  +6.5151872     13262.86     22118.18     23459.08     77.79845      156.221     312.6288      1.742     4.73     843.7344     55.14431       1998.6        43     1.726     1.000 -26.69   0
       369    589.3058    422.8635 307.6685462  +6.5111431     746.3558      1033.49      1159.69     78.29716     156.5322     312.9088      1.570     4.95     842.6031     55.14431     105.1974         8     0.990     0.700 -28.40   0
       370    608.1798    416.9628 307.6609027  +6.5142114     2252.709     3816.279      3989.07     78.04819      156.221     312.5977      1.830     4.66     842.6042     55.14431     332.3355        23     1.659     0.813 -28.34   0
       371    680.7530    415.6806 307.6307954  +6.5171682     786.8373     1134.497     859.5663     78.42134       156.47     312.8777      1.580     4.98     843.5804     55.14431     119.3076         9     1.281     0.547 -36.15   0
       372    583.1129    414.1008 307.6714125  +6.5145544     4871.864     8476.441     9268.856     78.42134     156.9047     312.9088      1.851     4.72     842.2142     55.14431     671.6849        27     1.739     0.874 -23.43   3
       373    579.5283    411.5257 307.6729880  +6.5154977     13410.89     21876.94        23183     78.66912     156.5943     312.8777      1.784     4.83      842.068     55.14431     2003.683        39     1.737     0.994 -24.99   3
       374    912.4181    410.9037 307.5347091  +6.5268775     3540.784     5744.453     6028.947     78.29716     156.2833       312.66      1.701     4.72     843.6312     55.14431     507.1681        25     1.613     0.855 -25.94   0
       375    351.5371    406.8271 307.7678620  +6.5097983     26243.54     43891.65     46668.82     78.04819     156.4078     312.7845      1.811     4.63     838.3852     55.14431     3970.655        58     1.834     1.060 -27.20   0
       376    868.1868    406.3666 307.5532369  +6.5272754     1102.556     2520.114     3533.377     77.92342      156.221     312.7533      2.597     6.68     843.5596     55.14431     160.0562        18     1.664     1.007 -39.74   0
       377     97.5180    406.3331 307.8734047  +6.5014698     2201.529     3706.465     3360.199     78.54533     156.7185     312.9088      1.779     5.14     840.7484     55.14431     328.0793        21     1.632     0.869 -26.65   0
       378    562.1414    402.6316 307.6805093  +6.5185885      524.741     920.9006     880.0218     78.17278     156.5322     312.7845      1.777     4.20     841.3297     55.14431     71.81238         6     0.759     0.663  59.14   0
       379    881.2474    401.1729 307.5479842  +6.5298559     4549.906      7738.23     8164.675     78.04819     156.5322     312.7845      1.795     4.85     843.4354     55.14431     687.7731        27     1.680     0.877 -25.10   0
       380     31.1575    401.7267 307.9011270  +6.5011392     1305.136     2356.042      2850.81     78.29716     156.5322     312.8777      1.869     5.50     840.7616     55.14431     208.1559        17     1.626     0.752 -16.10   0
       381    937.2345    399.1633 307.5247908  +6.5325534     513.9049     733.1101     790.8442     78.17278      156.221     312.5977      1.265     3.47      843.092     55.14431      96.2337         5     1.106     0.315 -10.51   0
       382    704.1396    391.0634 307.6219031  +6.5281157     754.4601     1229.668     1128.359     78.42134     156.4078     312.8777      1.699     5.63     842.8382     55.14431     129.1989        11     1.248     0.716 -37.36   0
       383    209.0545    397.4443 307.8273690  +6.5088895     12696.84     21100.49     22291.06     78.42134       156.47     312.8466      1.776     4.60      839.066     55.14431     1918.075        43     1.768     1.000 -26.79   0
       384    980.5773    390.7160 307.5070652  +6.5374867     491.9975     751.8505     425.2136     78.29716     156.1587     312.7533      1.195     3.45     841.7918     55.14431      83.8974         5     0.743     0.463  72.71   0
       385    932.0392    389.6519 307.5272667  +6.5363078     959.8029       1528.9     2033.503     78.29716       156.47     312.8466      1.933     5.85     842.9786     55.14431      155.751        11     1.489     0.681 -46.04   0
       386   1013.9131    388.0135 307.4933054  +6.5397138     7721.592     13222.29      13929.8     78.04819     156.2833     312.7533      1.797     4.78     840.9154     55.14431     1141.378        39     1.744     1.011 -26.66  16
       387    672.4195    389.9879 307.6351175  +6.5274992     634.5117     1085.081     984.3466     78.04819      156.221     312.7533      1.791     4.73     842.7151     55.14431     105.6463         8     1.278     0.497 -25.11   0
       388    321.7551    387.0923 307.7808973  +6.5169483     1178.413     2050.362     2118.928     78.42134     156.4078      312.971      1.955     5.25     837.3546     55.14431      200.688        13     1.466     0.803 -33.97   0
       389    154.3433    387.5113 307.8504316  +6.5111525     729.5126     1235.865     1328.713     78.42134     156.3456      312.971      1.640     3.88     840.1343     55.14431     121.0345         8     1.093     0.517 -39.92   0
       390    109.3539    386.0101 307.8691719  +6.5102597     4524.517     7606.834      8220.78     77.92342     156.3456     312.5355      1.773     4.71      840.333     55.14431     631.3489        27     1.639     0.915 -27.89   0
       391    213.9554    384.9829 307.8257520  +6.5141998     1192.542     2154.753     2581.805     78.04819     156.3456     312.6288      1.860     6.09     838.5656     55.14431     169.6231        15     1.595     0.653 -35.41   0
       392    602.3977    384.7635 307.6643834  +6.5273144     417.7012     635.5882     417.0798     77.54788     156.2833       312.66      1.428     4.39     840.7904     55.14431     74.62213         5     1.163     0.471 -32.42   0
       393    795.3187    382.7889 307.5842986  +6.5345791     683.0362     994.0636     1057.199     78.04819      156.221     312.6911      1.522     4.38     842.9426     55.14431     112.0649         7     0.968     0.565 -28.47   0
       394    131.4339    381.9472 307.8601360  +6.5126799     2134.391     3926.776     4037.133     78.29716       156.47     312.7845      1.961     5.44     840.1332     55.14431     306.7826        26     1.736     1.015 -25.81   0
       395    526.7444    380.7377 307.6959486  +6.5264442     835.6595     1554.957     1549.135     78.54533       156.47     312.8466      1.895     5.87     839.0778     55.14431        121.1        13     1.436     0.676 -25.16   0
       396    354.9164    376.7464 307.7674682  +6.5223331     1998.616     3479.412     3333.948     78.42134       156.47      312.971      1.769     5.03     836.5299     55.14431     295.4598        21     1.641     0.859 -31.77   0
       397    242.4686    377.0401 307.8141736  +6.5184374     778.4808     1167.704     1392.188     78.29716       156.47     312.9399      1.441     5.18     837.7633     55.14431     141.7333         9     1.271     0.597 -27.56   0
       398    943.1061    375.9122 307.5231274  +6.5423507     944.1584     1442.782     1390.875     78.42134     156.9047     312.9088      1.684     4.60     842.3459     55.14431      112.345         9     0.956     0.697 -70.64   0
       399    408.6892    370.1674 307.7453493  +6.5268532     6603.529     10954.81     11894.55     78.54533     156.2833     312.8466      1.781     4.56     836.4005     55.14431     916.5467        34     1.714     0.954 -26.49   0
       400      5.1179    370.8479 307.9129846  +6.5130133     2729.136     5256.925     5687.624     78.42134       156.47     287.7667      2.082     5.73     840.4747     55.14431     382.0004        30     1.896     0.961 -36.81  16
       401    741.2457    369.0691 307.6072228  +6.5384382     1661.832     2894.107     3388.652     78.42134     156.4078     312.8466      1.946     4.84     842.3333     55.14431     273.0934        18     1.568     0.762 -29.88   1
       402    749.2947    367.5451 307.6039297  +6.5393365      11737.6     19083.56     20230.83     78.29716       156.47     313.0643      1.756     4.97     842.3469     55.14431     1828.057        38     1.715     0.949 -26.77   0
       403    312.3402    365.9805 307.7855177  +6.5253501     931.7305     1621.115     1413.411     78.04819     156.3456     312.7222      1.989     5.09     836.3175     55.14431     141.9441        11     1.432     0.512 -25.81   0
       404    993.2471    362.7006 307.5027360  +6.5494780     3160.302     5364.221     5083.478     78.42134     156.3456     313.0643      1.782     4.74     840.8927     55.14431     478.8342        26     1.710     0.862 -26.69   0
       405    924.1132    359.3715 307.5315707  +6.5485478     529.5361     876.1176     1231.458     78.54533      156.221     312.7222      2.287     3.99     842.2479     55.14431     91.45618         6     1.077     0.422 -13.75   0
       406    157.7408    358.4081 307.8499993  +6.5232843     811.9666     1381.027     1106.118     77.79845     156.3456     312.5977      1.837     6.27     839.4448     55.14431      104.899        13     1.563     0.706 -28.64   0
       407    456.7270    353.8094 307.7259407  +6.5352184     2876.171      4793.12     4957.346     77.92342     156.0964     312.6911      1.786     4.96     835.5757     55.14431     434.8145        24     1.580     0.901 -30.12   0
       408    428.9080    354.4029 307.7374784  +6.5340409     1903.349     3098.525     2937.807     77.92342     156.1587     312.5977      1.734     4.60     835.4267     55.14431     307.6555        20     1.537     0.801 -25.72   0
       409    814.6714    350.4919 307.5773377  +6.5485623     29383.12     50904.09        54096     78.29716     156.6564     312.8466      1.882     5.11     842.1778     55.14431     4364.896        64     1.837     1.147 -32.97   0
       410     31.8243    346.8461 307.9026986  +6.5238232       568.72     895.5287     642.9528     78.04819       156.47     312.7222      1.574     3.41     839.9512     55.14431     107.8828         6     0.907     0.589 -27.10   0
       411    306.9819    346.2308 307.7884073  +6.5333256     618.3058     1010.589     1221.719     78.04819     156.2833     312.7222      2.040     3.86     835.5226     55.14431     90.98279         6     0.931     0.459 -35.56   0
       412    586.4708    342.7889 307.6724064  +6.5441144     2308.529     4050.929     4338.486     77.92342     156.1587       312.66      1.845     5.29     838.2368     55.14431     348.7206        25     1.716     0.921 -30.46   0
       413    671.1450    336.4300 307.6374397  +6.5495731     71236.39     117529.9     124325.8     78.29716     156.5322     312.8156      1.775     4.82     840.2843     55.14431     11789.43        89     1.835     1.118 -27.06   0
       414    829.2969    337.9044 307.5716819  +6.5542485     1059.715     1682.068     1446.011     78.42134     157.0287     312.6911      1.680     5.57     841.7022     55.14431     176.5491        12     1.572     0.557 -27.99   0
       415     50.4327    335.9660 307.8953345  +6.5289422     1149.507     2036.594     1700.355     78.04819      156.221     312.5977      1.774     5.92     839.4586     55.14431     159.9218        14     1.443     0.683 -15.75   0
       416    912.2339    333.7338 307.5373624  +6.5587386     738.3526     1243.163     1205.372     78.29716     156.5322     312.8466      1.882     4.60     841.0831     55.14431      116.178         8     1.233     0.488 -45.17   0
       417    533.5531    333.2610 307.6947113  +6.5462773     2439.972     3851.354     4019.618     78.29716     156.4078     312.9088      1.701     4.88     836.4968     55.14431     334.9951        20     1.617     0.722 -29.22   0
       418     70.7457    332.0895 307.8870263  +6.5312264     5648.737     9580.177     10091.97     78.42134     156.2833      312.971      1.779     4.67     839.1579     55.14431     812.6441        33     1.778     0.946 -28.89   0
       419    361.2959    332.8895 307.7662904  +6.5406572     512.4078      1034.87     1447.107     78.42134     156.8427     312.8777      2.387     5.61     834.7055     55.14431     99.65704         8     1.462     0.606 -33.93   0
       420    740.2909    331.0602 307.6088909  +6.5541019     410.5948     609.9109     676.9265     78.29716     156.5322     312.9088      1.987     4.26     841.0714     55.14431     75.90625         5     1.078     0.479 -25.14   0
       421    516.8047    329.3632 307.7018004  +6.5473260      6413.29     10906.22     11150.08     77.54788      156.221       312.66      1.775     4.70     835.8864     55.14431     1038.716        34     1.724     0.935 -28.37   0
       422    245.7861    327.0788 307.8144749  +6.5391795     2391.105     3836.306     3658.579     78.04819      156.221       312.66      1.717     4.59     835.8185     55.14431     338.0827        21     1.596     0.787 -21.67   0
       423    379.7495    324.5430 307.7589039  +6.5447228     23533.46     39363.75     41727.11     78.42134       156.47     312.8466      1.810     5.04     834.6094     55.14431     3698.845        55     1.788     1.058 -25.37   0
       424    557.9869    324.5658 307.6848512  +6.5506860     603.8768      1022.89     1189.367     77.92342      156.221     312.7533      1.728     5.54     836.7056     55.14431      79.2652         8     1.292     0.669 -28.21   0
       425    487.5156    323.2786 307.7141731  +6.5488574     1051.284      1856.82     1553.845     78.42134     156.7806      312.971      1.882     5.36     834.9921     55.14431     173.8947        14     1.573     0.815 -25.46   0
       426    358.7538    323.1979 307.7676719  +6.5445740     1020.757     1899.286     2874.445     77.79844     156.1587     312.4732      2.142     4.05     834.5245     55.14431      156.699         9     0.997     0.644 -57.65   2
       427    458.9231    319.9933 307.7261626  +6.5492559     1242.344     2133.098     2242.802     78.04819     155.9717     312.6911      1.837     4.90     834.6987     55.14431     206.9258        15     1.440     0.855 -21.68   0
       428    355.9595    317.5529 307.7690224  +6.5468112     747.6239     944.5044     2277.735     78.29716       156.47       312.66      1.365     3.68     834.4312     55.14431     119.3611         8     0.999     0.551 -45.61   0
       429    774.7499    317.0844 307.5950412  +6.5610245     744.7616     1266.614     1366.697     78.42134       156.47     312.9399      2.155     5.58     840.6488     55.14431      113.347         9     1.555     0.565 -13.05   0
       430    468.8311    314.9902 307.7222140  +6.5516539      7975.92     13291.36     14312.76     77.92342     156.2833     312.6911      1.750     4.60     834.5961     55.14431     1246.207        35     1.679     0.963 -30.03   0
       431    738.1659    313.6599 307.6103559  +6.5612163     2754.002     4780.348     5290.719     78.29716       156.47     312.7845      1.841     5.77     840.4274     55.14431     468.0402        27     1.878     0.853 -23.10   0
       432    684.8594    313.7938 307.6324994  +6.5593791     641.2882     1059.048     1110.546     77.79844     156.3456     312.6288      1.774     4.27     839.0948     55.14431     106.6962         7     0.871     0.597 -35.96   0
       433    893.9741    313.2824 307.5456321  +6.5665748      771.274     1347.505     1021.553     78.29716      156.221     312.8466      1.701     4.87     840.1741     55.14431     109.7314         9     1.235     0.545 -20.70   0
       434    295.2920    311.8844 307.7944179  +6.5471160     985.7769     1725.084     1400.809     78.17278     156.8427     312.9399      1.797     6.22     834.7089     55.14431     125.3688        15     1.516     0.716 -23.48   0
       435    406.8352    306.1461 307.7482682  +6.5532279     421.4626     613.4619     822.7295     78.29716       156.47     312.8777      1.906     3.83     834.2805     55.14431     85.17212         5     1.014     0.415 -44.57   0
       436    130.8296    305.3730 307.8629640  +6.5442793     1035.886      1910.86     2107.815     77.92342     156.2833     312.6911      2.183     5.83     837.4964     55.14431     156.9031        14     1.724     0.555 -29.67   0
       437    358.6534    299.1332 307.7685218  +6.5545078     6829.851      11385.3     11887.79     78.42134     156.4078     312.7845      1.753     4.70     834.1039     55.14431     985.8336        34     1.749     0.922 -26.77   0
       438    214.3721    299.7899 307.8284436  +6.5493927     2111.505     3408.782     4367.056     78.04819     156.2833     312.7222      1.798     4.36     835.3259     55.14431     320.0745        19     1.455     0.793 -28.12   0
       439    712.2714    298.7791 307.6216126  +6.5664957     1006.593     1650.306     1813.864     78.04819     156.3456     312.8156      1.700     4.94       839.03     55.14431     145.7913        12     1.329     0.756 -15.33   0
       440    726.6141    294.9726 307.6157807  +6.5685470     48836.96     80468.52     84510.56     78.04819     156.2833     312.7533      1.749     4.67     839.3608     55.14431     7501.421        67     1.786     1.055 -26.42   0
       441    398.1877    294.5567 307.7522500  +6.5577236     2092.278       3555.1      3839.67     77.92342     156.2833     312.5977      1.810     4.82     834.0493     55.14431     307.4849        22     1.557     0.866 -24.14   0
       442    961.4183    292.2256 307.5183124  +6.5775196      1501.19     2412.552     2583.947     78.04819     156.2833     312.7845      1.785     4.71     837.6431     55.14431     234.6844        19     1.520     0.943 -33.77   0
       443    902.2692    291.3007 307.5429197  +6.5759288     2174.634     3170.039     3556.963     78.42134     156.5943     312.8466      1.626     4.76     838.8295     55.14431     352.2552        19     1.526     0.739 -29.35   0
       444    544.2053    291.9069 307.6916718  +6.5637108     1203.907     1898.532     1869.464     78.04819     156.1587     312.5977      1.628     5.02      834.656     55.14431     207.4177        14     1.545     0.622 -13.89   0
       445    384.8508    290.1814 307.7579380  +6.5590830     1911.184     3440.539     3418.041     77.92342     156.5322     312.5977      1.869     4.93     833.9479     55.14431     261.5219        25     1.688     0.979 -20.63   0
       446    435.0565    290.8948 307.7370548  +6.5604719     1009.552     1587.495     2300.795     78.29716       156.47     313.0332      1.911     5.20     833.9744     55.14431     135.0975        11     1.242     0.614 -25.09   0
       447    264.8912    289.6441 307.8077958  +6.5552791      643.884     1016.003     1180.664     78.42134     156.4078      312.971      1.708     4.64     834.2707     55.14431     101.1811         6     1.358     0.450  -7.35   0
       448    806.2565    284.4877 307.5830404  +6.5755375     1018.743     1771.273     1548.694     78.42134     156.3456      312.971      1.963     6.22     839.2654     55.14431     150.2968        13     1.607     0.677 -28.12   0
       449    435.1342    284.9672 307.7372214  +6.5629222     647.9736     1122.287     1594.708     78.29716     156.5322     312.8156      1.715     5.11     833.8055     55.14431     91.56421         7     1.280     0.577 -44.26   0
       450    161.2471    281.4366 307.8511323  +6.5551860      2151.55     3765.827     4042.583     78.17278       156.47     312.7845      1.849     5.22     836.2187     55.14431     294.8235        22     1.662     0.844 -26.73   0
       451    415.1032    281.6065 307.7456567  +6.5636384     1012.123     1772.367     2383.586     78.17278     156.0964     312.5977      2.110     5.70     833.7163     55.14431     166.9082        13     1.583     0.639 -27.99   0
       452    725.1064    279.5607 307.6169228  +6.5748609     5667.187     9217.504     9932.538     78.54533     156.4078     312.9399      1.755     4.88     838.6116     55.14431     931.1708        32     1.731     0.893 -24.24   0
       453     57.6692    278.7732 307.8942545  +6.5528020     940.1004     1549.158     1927.088     78.04819     156.3456     312.7533      1.887     6.76     837.5206     55.14431     164.2535        14     1.571     0.842 -26.99   0
       454    741.2963    277.6229 307.6102608  +6.5762022     2365.016     3737.341     4285.045     78.42134      156.221     312.6911      1.756     4.31     838.9052     55.14431     368.1111        24     1.531     0.919 -22.82   0
       455    315.4818    279.1505 307.7871295  +6.5613106     634.9541     757.3986     246.9063     78.42134       156.47     312.8777      1.388     4.69     833.8336     55.14431     93.70013         7     1.042     0.599 -38.63   0
       456    196.5536    279.4078 307.8365319  +6.5572103     676.5986      1036.15      1177.93     77.92342     156.3456     312.4732      1.846     3.47     835.1246     55.14431     128.3195         7     1.165     0.649 -10.74   0
       457    330.8542    272.4372 307.7809682  +6.5645987     1640.499     3401.038     3091.313     78.29716       156.47     312.8777      2.131     7.00     833.6873     55.14431     195.1207        25     1.850     0.898 -12.07   0
       458     44.8072    272.9721 307.8997935  +6.5547646     1134.077      2074.61     2508.969     77.92342     156.2833       312.66      1.879     6.38     837.5382     55.14431     204.4293        16     1.740     0.658 -19.90   0
       459    979.6216    268.4035 307.5115439  +6.5879638     5315.987     8710.153     9245.777      78.0482     156.1587     312.6288      1.737     4.40      836.835     55.14431     765.6089        32     1.653     0.948 -29.41   0
       460    457.8700    268.0508 307.7283427  +6.5706697     1922.395     3284.271     3104.407     78.29716     156.4078     312.8777      1.811     5.96     833.2819     55.14431     271.4189        20     1.622     0.774 -31.09   0
       461    228.0450    265.2094 307.8239257  +6.5641314     563.4099     872.5928     1943.294     77.92342     156.3456     312.5355      1.440     3.78     834.0125     55.14431     80.99963         5     0.810     0.507 -51.25   0
       462    220.2055    263.8972 307.8272270  +6.5644098     5390.672     8964.003     9685.352     78.17278     156.1587     312.5977      1.773     4.62     834.1433     55.14431     765.1899        32     1.688     0.927 -28.98   0
       463    739.4702    257.3538 307.6116976  +6.5845112     745.2666      1199.63      916.848     78.42134     156.4078     312.8466      1.738     4.93      837.779     55.14431     116.9993         8     1.357     0.507 -19.40   0
       464    196.5094    257.0669 307.8373018  +6.5664341     642.0142     1028.868      1326.91     78.54533     156.5943     312.8777      1.856     5.35     834.5784     55.14431     85.99103         8     1.500     0.539 -34.21   0
       465    354.2162    254.9447 307.7718493  +6.5726058     1552.711     2541.808     2770.269     77.79844     156.4078     312.5666      1.822     5.49     833.3709     55.14431     249.2973        14     1.411     0.695 -26.59   0
       466    941.5014    253.3909 307.5278845  +6.5928922     946.1118     1583.475     2083.852     78.17278     156.0964       312.66      1.945     5.79     837.0123     55.14431     170.3399        11     1.450     0.662 -22.89   0
       467    123.9850    250.5398 307.8676533  +6.5666912     1652.423     2576.552     2956.262     77.92342     156.4078     312.5977      1.798     4.64      836.153     55.14431      238.556        19     1.480     0.883 -38.83   0
       468    276.4726    250.5169 307.8042991  +6.5718248     1092.087     1785.752     1817.798     78.66912     156.7806     312.8777      1.799     4.49     833.4441     55.14431     174.8925        12     1.314     0.646 -30.45   0
       469    533.7332    246.0975 307.6975584  +6.5822766     2024.629     3304.746      3001.83     78.42134     156.5322     312.9088      1.704     5.11     833.3452     55.14431     307.3667        20     1.627     0.822 -30.01   0
       470    877.5005    245.3646 307.5547457  +6.5940715      1697.85     2984.972     3017.592     78.42134     156.3456     313.0021      1.947     4.85       836.89     55.14431     245.9166        19     1.429     0.888 -18.88   0
       471    697.4825    243.6973 307.6296006  +6.5887470     4600.471     7457.561     7401.773     78.42134     156.8427     312.9088      1.742     4.60     836.6238     55.14431     738.0079        30     1.697     0.876 -27.92   0
       472    638.1500    243.6312 307.6542558  +6.5867900     2098.101      3345.23     3528.953     78.17278       156.47     312.7845      1.714     5.25     835.6692     55.14431     346.4492        20     1.617     0.771 -23.22   0
       473    352.6122    237.8466 307.7730899  +6.5796124     748.5407     1094.686     1282.748     77.79844     156.2833     312.5666      1.601     5.74     833.1037     55.14431      115.299         9     1.379     0.672  -1.34   0
       474    893.3362    235.7818 307.5484859  +6.5985571     951.3935     1671.566     1604.907     78.04819       156.47     312.7222      1.680     5.97     836.4819     55.14431     155.7769        12     1.622     0.617 -30.85   0
       475    196.9310    229.0926 307.8380676  +6.5779997     2136.406     3295.723     3613.772     78.42134     156.5943     312.8466      1.708     5.23     833.8831     55.14431     298.9403        20     1.634     0.760 -31.92   0
       476    839.7405    227.7935 307.5710227  +6.6000671     1549.845     2481.917     2684.294     77.79844     156.3456     312.6288      1.699     4.58     836.0034     55.14431     287.7942        17     1.461     0.746 -33.44   0
       477    729.9111    227.3643 307.6166729  +6.5965756     1443.353     2443.831     2598.257     78.42134     156.4078     312.8466      1.804     6.33     836.1635     55.14431     224.9583        15     1.541     0.730 -27.04   0
       478    550.6544    223.0098 307.6913016  +6.5923770     547.3139     806.4235     1143.389     77.79844     156.4078     312.5666      1.710     5.52     833.0944     55.14431      83.3161         7     1.395     0.615 -45.49   0
       479    430.9286    218.8746 307.7411867  +6.5900732     20662.49     34678.75     36738.88     78.66911     156.5943     312.8777      1.786     4.72      831.937     55.14431     3225.305        49     1.769     1.030 -27.73   2
       480    436.2189    213.6747 307.7391631  +6.5923978     1409.543       2219.7     2769.091     77.92342     156.3456     312.7845      2.079     4.45     831.9137     55.14431     222.2841        18     1.498     0.820 -22.47   3
       481    291.3207    220.7921 307.7991290  +6.5845977      561.102     1060.833     810.5467     78.04819      156.034     312.6911      2.002     4.47     832.8934     55.14431     76.45209         5     1.143     0.497 -33.78   0
       482    756.9213    217.9617 307.6057643  +6.6013610     11805.89     19997.17      21807.6     78.29716     156.5322     312.8466      1.814     5.07     835.8339     55.14431     1801.914        48     1.864     1.051 -24.95   0
       483    694.6442    213.7335 307.6317829  +6.6010254     706.2285      1061.13     1000.095     78.42134     156.4078     312.8777      1.479     4.38      835.754     55.14431     108.2935         7     1.020     0.536 -63.48   0
       484    119.0846    212.1545 307.8709815  +6.5823767     2200.279     3796.977     4068.127     78.42134     156.4078     312.8466      1.821     4.75     835.2332     55.14431     349.2543        23     1.620     0.869 -29.01   0
       485     93.2669    211.1605 307.8817417  +6.5819187     959.9047     1681.221     2114.302     78.29716     156.4078     312.9399      2.062     6.35     835.7877     55.14431     135.5605        14     1.401     0.928 -30.19   0
       486    145.1200    210.3478 307.8602250  +6.5839983      605.424     838.0691     792.1432     78.42134       156.47     312.8466      1.691     3.91     834.4957     55.14431     105.7409         5     1.255     0.349 -47.58   0
       487    749.7982    210.2635 307.6089816  +6.6043019     558.6544     1114.921     2099.418     77.79844      156.221     312.6288      2.345     4.82     835.6033     55.14431     100.2961         7     1.687     0.391 -19.59   0
       488    893.0486    208.6769 307.5495108  +6.6097404     1334.696     1991.645     2651.525     78.29716     156.5322     312.8466      1.680     4.25     835.2126     55.14431     232.9637        14     1.450     0.738 -19.22   0
       489    275.1680    205.4591 307.8063556  +6.5903868     982.2605     1708.673     1461.764     78.17278     156.5322     312.8156      1.670     5.36     832.9523     55.14431     137.8025        11     1.429     0.798 -41.65   0
       490    554.9875    204.6311 307.6901172  +6.6001114     4220.405     7054.247     7506.317     77.92342     156.2833     312.7845      1.765     4.99     832.7217     55.14431     660.9295        27     1.667     0.894 -27.02   0
       491    517.6779    204.5705 307.7056218  +6.5988869     1957.035     3318.217     3608.167     78.29716     156.5322     312.8466      1.816     5.36     832.1925     55.14431     297.2583        19     1.523     0.834 -29.93   0
       492    915.8099    201.8416 307.5402812  +6.6133223      2368.85     4099.854     3831.821     77.79844     156.2833     312.5977      1.800     4.96     835.0157     55.14431     365.6268        24     1.602     0.959 -32.57   0
       493    359.2375    203.6611 307.7714852  +6.5939510     1340.135     2167.714     1922.899     78.42134     156.5322     312.8466      1.639     4.84      832.802     55.14431     222.3599        16     1.502     0.810 -27.53   0
       494    861.9921    201.1862 307.5626659  +6.6117972     9926.693     16731.08     17510.35     78.04819      156.221     312.6911      1.774     4.69     834.6822     55.14431     1517.623        41     1.768     0.980 -25.93   0
       495    536.4954    200.9924 307.6979229  +6.6009947     724.7479     1160.913     1187.445     78.17278     156.0964       312.66      1.641     5.40     832.3026     55.14431     89.82703         9     1.261     0.653 -35.34   0
       496    289.4446    201.5114 307.8005564  +6.5924963     855.2891     1399.392     1806.224     78.42134     156.3456     312.8777      1.972     5.19     832.8934     55.14431     138.9644        10     1.425     0.535 -44.99   0
       497    948.6603    198.9903 307.5267261  +6.6155954       8590.6     14402.57     14992.61     77.79844     156.3456     312.5666      1.781     4.72     834.8663     55.14431     1245.746        43     1.800     0.999 -27.33   0
       498    660.0018    199.0081 307.6466704  +6.6059477     2685.377      4387.05     4937.094     77.79845     156.1587     312.6288      1.726     4.42      834.995     55.14431     451.7552        24     1.598     0.899 -22.02   0
       499    234.5024    198.8701 307.8234735  +6.5917417     1145.385     1995.651     1549.169     78.29716     156.6564     312.8466      1.765     6.97     833.1101     55.14431     157.1359        17     1.587     0.858 -22.87   0
       500    468.4312    194.0129 307.7264384  +6.6015966     1892.652     2925.375     2921.415     77.92342      156.221     312.7845      1.709     5.41     831.7222     55.14431     251.6394        20     1.648     0.798 -28.72   0
       501    852.7031    189.7077 307.5669094  +6.6162271     1863.195     2913.593     3118.636     78.42134     156.9667     312.8156      1.689     5.36     834.2472     55.14431     340.2955        22     1.843     0.762 -30.11   0
       502    800.5538    190.5037 307.5885523  +6.6141572     1882.313     2822.441     2960.732     78.42134     156.4078     313.0021      1.649     5.48     834.4674     55.14431     275.1113        17     1.426     0.772 -26.33   0
       503    712.1555    187.1738 307.6253956  +6.6125785     36825.84     59775.29     62446.13     77.92342     156.5322     312.7533      1.720     4.46     835.0158     55.14431     5645.736        63     1.759     1.053 -27.07   0
       504    480.6818    189.8035 307.7214894  +6.6037453     2316.087     3939.996     3691.382     77.92342     156.0964     312.5666      1.791     5.10     831.6404     55.14431     344.7881        25     1.664     0.903 -24.52   0
       505    315.2811    186.5919 307.7903227  +6.5995243     5321.609     11794.49     13479.62     78.04819     156.0964     312.6911      2.308     6.74     832.8934     55.14431     610.1173        51     2.100     1.333 -53.23   0
       506    946.0032    185.8998 307.5282673  +6.6209125     2421.614     4028.801      4471.86     78.17278      156.221     312.5043      1.699     5.45     834.1339     55.14431     381.1136        19     1.655     0.730 -29.62   0
       507    880.1198    184.2490 307.5556992  +6.6193963      6773.04     10933.83     11431.68     78.42134     156.5322     312.8466      1.733     4.73     833.9896     55.14431     1022.494        33     1.673     0.940 -25.64   0
       508    984.3608    184.4922 307.5123753  +6.6227727     1481.037      2446.28     2671.673     78.54533     156.4078     312.9088      1.830     5.90     833.8347     55.14431     231.0633        19     1.652     0.790 -24.16   0
       509    423.5492    183.3211 307.7454462  +6.6045071     4601.428     7458.759     7252.538     78.42134     156.5322     312.8466      1.743     4.67     831.8475     55.14431     637.5063        27     1.635     0.894 -29.08   0
       510    197.5346    180.2369 307.8394603  +6.5981938     638.0167     1106.236     1188.257     78.29716     156.4078     312.9088      1.645     4.54     833.1609     55.14431     95.84436         8     1.120     0.523 -19.52   0
       511    251.2598    171.3398 307.8174365  +6.6036727     31263.91     52404.69     55434.29     78.42134       156.47     312.8777      1.805     4.75     833.0104     55.14431      4621.52        57     1.802     1.079 -29.33   0
       512     80.8887    174.6288 307.8881150  +6.5965871     4373.891     7343.135     7489.866     78.54533      156.221     312.7533      1.773     4.89      834.411     55.14431     636.2975        29     1.662     0.919 -27.84   0
       513    900.2352    174.0694 307.5476807  +6.6242711     852.1483     1602.388      2249.26     78.29716       156.47     312.9399      2.345     6.78     833.5443     55.14431     161.1692        12     1.737     0.741 -18.54   0
       514    226.5443    172.4611 307.8276682  +6.6023795     6176.942     10245.44     10569.32     78.54533       156.47     312.8777      1.820     5.05     833.0864     55.14431     864.3798        34     1.745     0.950 -26.03   0
       515    577.4637    172.9678 307.6818392  +6.6139389     784.9221     1380.838     1726.423     78.17278     156.5322     312.8156      1.878     5.74      832.353     55.14431     123.6252        10     1.271     0.730 -36.72   0
       516    680.2104    170.8637 307.6392156  +6.6182455     762.2784     1106.633     1057.088     77.92342     156.2833     312.6911      1.586     6.00     834.5074     55.14431     119.8869        11     1.533     0.660 -40.93   0
       517    375.3321    166.8232 307.7660350  +6.6097026     46501.35     76866.51     80953.99     78.04819     156.4078     312.8156      1.771     4.68     832.5352     55.14431     6718.618        68     1.807     1.080 -26.81   0
       518    131.3491    168.1700 307.8673664  +6.6009515     3680.922     6351.645     6526.846     78.04819     156.5943     312.7533      1.813     4.75     833.2024     55.14431      542.199        32     1.741     0.980 -24.87   0
       519    392.4883    167.4571 307.7588850  +6.6100163     1414.637     2082.611      2278.88     78.42134     156.3456      312.971      1.725     5.83     832.2584     55.14431     205.9208        13     1.314     0.729 -26.55   0
       520    279.3170    164.5290 307.8060075  +6.6074274     17037.72      28234.9     30215.79     78.66912     156.7806     312.8777      1.801     4.70     832.9222     55.14431     2433.115        46     1.763     1.038 -28.89   2
       521    286.6231    164.7048 307.8029658  +6.6076001     1971.291     3730.319     4749.603     78.42134      156.221     312.7222      2.086     5.60     832.8991     55.14431     258.7188        22     1.775     0.798 -22.58   3
       522    662.4958    164.8563 307.6467777  +6.6201337     886.2291      1136.33     770.5441     78.29716       156.47     313.0332      1.525     5.07     834.0562     55.14431     133.4901        10     1.325     0.549 -26.71   0
       523    762.9000    163.8390 307.6050905  +6.6239103     1143.628     1707.656     1838.222     78.42134     156.3456     313.0643      1.636     5.78     833.9355     55.14431     176.9305        13     1.488     0.632 -19.37   0
       524     31.3624    160.3195 307.9091749  +6.6008289     8387.191     14172.76     15554.23     78.29716     156.5322     312.8156      1.831     4.66     835.7344     55.14431     1150.378        41     1.806     1.015 -27.36   0
       525    714.5905    163.0211 307.6251921  +6.6226335     30413.68     49426.96     51665.04     78.04819      156.221       312.66      1.739     4.64     834.3604     55.14431     4621.352        57     1.745     1.027 -26.33   0
       526     65.3762    158.2868 307.8951108  +6.6028131     1392.378      2194.31     2293.185     78.42134     156.2833     312.6911      1.621     5.11     834.3286     55.14431     250.9149        15     1.574     0.682 -30.88   0
       527    972.7885    157.4616 307.5180864  +6.6335490     881.4963     1688.508     1944.293     77.92342     156.2833     312.5977      2.180     6.27     832.3359     55.14431     119.6552        13     1.610     0.686 -22.04   0
       528    548.4199    147.5700 307.6947590  +6.6234541     801.7139      1254.28     1033.512     77.92342     156.2833     312.7222      1.596     4.10     831.2201     55.14431     163.4405        10     1.199     0.585 -35.58   0
       529    973.8637    143.6482 307.5181007  +6.6392891     2055.841     3575.569     4578.222     78.29716     156.3456     312.8777      1.917     4.69     831.7874     55.14431     371.5869        17     1.564     0.688 -24.52   0
       530    557.0920    141.1913 307.6913693  +6.6263785     893.7742     1498.164     1913.256     78.04819     156.1587       312.66      1.838     5.43     831.2427     55.14431     142.9852        11     1.508     0.594 -32.84   0
       531    565.2494    139.3218 307.6880423  +6.6274237     1718.884     2857.048     2881.888     78.42134     156.5322     312.8156      1.712     4.76     831.3257     55.14431     283.6356        19     1.726     0.717 -24.07   0
       532    309.8136    139.6184 307.7941730  +6.6187376     904.5742     1424.458     1130.649     78.17278     156.1587     312.7533      1.534     5.84     833.0941     55.14431     156.0367        12     1.659     0.578 -28.91   0
       533    250.1268    137.5940 307.8190420  +6.6175693     28103.63     47070.97     50232.15     78.04819      156.034     312.7533      1.810     4.71     833.1163     55.14431     4295.818        67     1.885     1.101 -27.43   0
       534    681.8323    134.1887 307.6397696  +6.6334443     7234.711     11909.08     12911.84     77.92342      156.221     312.7222      1.727     4.96      832.738     55.14431     1134.073        35     1.690     0.946 -25.49   0
       535    159.0468    135.4963 307.8569576  +6.6153746     865.8357     1469.437     1314.588     78.42134     156.4078     313.0021      1.864     5.92     831.9888     55.14431     162.2092        12     1.557     0.686 -24.98   0
       536     92.4906    131.3313 307.8847526  +6.6148560     4449.256     7563.909     7785.317     78.42134     156.5943     312.8156      1.828     4.54     832.2417     55.14431     583.5422        32     1.678     0.994 -27.16   0
       537    237.6274    132.1250 307.8244196  +6.6194077     598.2788     797.9527     738.9878     78.29716     156.4078     312.8156      1.258     3.41     833.1094     55.14431     91.59045         5     0.766     0.439 -71.10   0
       538    554.6264    129.3818 307.6927897  +6.6311726     642.5563     1249.606     1674.713      78.0482     156.2833     312.7533      2.010     6.60     830.9897     55.14431     105.2778        11     1.811     0.674 -21.34   0
       539    620.2223    128.3877 307.6655654  +6.6337788     810.0526     1200.711     1344.798     78.04819     156.2833     312.7533      1.525     5.01     831.7733     55.14431     98.69409         9     1.138     0.625 -28.04   0
       540    431.4687    128.7608 307.7439868  +6.6273024     1258.316     1854.424     1519.094     78.29716       156.47     312.9399      1.571     5.82     831.3185     55.14431     169.0841        17     1.689     0.727 -19.28   0
       541    363.2451    127.2089 307.7723878  +6.6256551     3477.169     6690.161     7281.767     77.92342     156.3456     312.5355      2.020     4.72     832.7422     55.14431     480.3337        40     1.828     1.237 -42.31   0
       542    539.0751    126.5372 307.6993472  +6.6318264     653.9347     865.9733     587.0435     78.66911       156.47     312.8156      1.451     4.10       830.83     55.14431     85.28491         5     1.133     0.424 -65.10   0
       543    327.5813    126.1857 307.7872414  +6.6248808     2907.758     4915.569     5135.051     78.17278      156.221     312.7533      1.826     4.72     833.1281     55.14431     398.4594        23     1.590     0.850 -23.80   0
       544     81.7809    126.1303 307.8893777  +6.6166433     1628.096     2539.828     2642.803     78.04819     156.3456     312.7533      1.663     3.68     832.3983     55.14431     265.2217        18     1.323     0.878 -35.16   0
       545    718.0847    124.3013 307.6250361  +6.6387393     587.5927     581.9359     232.7162     78.42134     156.9047     312.9088      1.345     4.91     832.2842     55.14431     94.48724         6     1.402     0.487 -44.66   0
       546    974.4253    120.4100 307.5186431  +6.6489039     1366.766     2178.685     2508.186      78.0482     156.2833     312.7222      1.827     5.50     830.7886     55.14431     198.7692        17     1.561     0.804 -26.27   0
       547    699.4598    121.0138 307.6328856  +6.6394742     546.6562     724.0626     701.9936     77.79844     156.4078     312.5666      1.245     3.74     832.0684     55.14431     87.33862         6     0.813     0.494  84.10   0
       548    179.5326    115.1260 307.8491309  +6.6244748     5122.922     8492.722     8824.702     78.54533     156.5943     312.8156      1.779     4.76     831.9246     55.14431     710.5005        31     1.689     0.926 -30.16   0
       549     62.2082    115.1000 307.8978819  +6.6205393     1979.473     3375.141     3983.323     78.17278     156.0964     312.6911      1.884     4.77     832.6346     55.14431     283.4399        21     1.524     0.851 -26.67   0
       550    641.3958    113.9386 307.6572509  +6.6404538     5731.771     9625.134     10075.45     77.79844     156.2833     312.5666      1.791     4.72     831.4105     55.14431     824.2841        33     1.666     0.975 -24.60   0
       551    789.5234    113.8361 307.5956998  +6.6454480     920.9952      1701.71     1401.292     78.29716     156.5322     312.8777      1.883     5.89     830.8666     55.14431     150.1661        12     1.498     0.651 -25.11   0
       552    593.5286    111.2656 307.6772314  +6.6399558     8950.258     14462.37     15910.64     78.42134     156.5322     312.9088      1.766     5.02     830.9874     55.14431     1221.798        35     1.666     0.961 -27.68   2
       553    597.0887    102.7358 307.6760379  +6.6435972     49467.08     81297.98     85504.25     78.29716     156.7185     312.8777      1.754     4.73     830.7852     55.14431     7954.698        70     1.770     1.092 -26.10   2
       554    227.8774    111.7105 307.8291575  +6.6275098     689.1729     1057.407     802.5161     78.17278     156.7185     312.9088      1.699     5.11     833.0906     55.14431     117.4925         9     1.195     0.617 -26.06   0
       555    531.2155    110.8857 307.7031380  +6.6380262     674.7018       1104.3     1552.164     78.04819      156.221     312.7533      1.732     4.79     830.5722     55.14431      122.834         9     1.473     0.442 -34.26   0
       556   1015.7131    108.8633 307.5018709  +6.6550483     568.5302     1135.646     1005.739     78.42134     156.6564     312.8777      1.996     3.46     830.0107     55.14431     109.9216         5     0.805     0.513 -53.03   2
       557    320.7050    106.9727 307.7907443  +6.6325836     3516.878     6432.717     7113.585     78.54533      156.221     312.7533      1.980     5.28     833.3154     55.14431     492.7921        34     1.913     0.983 -32.75   0
       558    502.3337    106.2558 307.7152949  +6.6389706     1732.941     2698.486     2816.118     78.54533     156.3456     312.8466      1.701     5.20     830.4916     55.14431     259.0249        17     1.466     0.762 -24.46   0
       559    966.5434    105.8948 307.5224031  +6.6546351     666.9564     1291.628      1844.16     78.29716       156.47     313.0332      2.141     2.33     830.2594     55.14431     166.6241         6     0.895     0.602 -58.02   0
       560    276.2931     96.4800 307.8095516  +6.6354252     3326.743     5373.873     5872.212     78.17278     156.6564     312.9088      1.792     4.62     833.5955     55.14431     505.1113        26     1.651     0.972 -17.01   0
       561    675.9851     90.8141 307.6436517  +6.6511598     738.8079     1320.947     1767.663     78.17278     156.1587     312.7845      1.885     4.56     830.4356     55.14431     106.7259         8     1.234     0.479 -21.36   0
       562    647.4783     89.8427 307.6555304  +6.6506074     1238.084     2059.332     2208.392     78.29716       156.47     312.8777      1.745     4.91      830.382     55.14431     204.6428        14     1.472     0.674 -19.30   0
       563    661.3606     86.6750 307.6498676  +6.6523799     3075.269     5039.307     5336.201     78.29716       156.47     312.8777      1.759     4.19      830.257     55.14431     460.4558        25     1.608     0.911 -25.12   0
       564    403.2303     77.7335 307.7574340  +6.6474263     3723.009     6184.172     5772.487     78.17278       156.47     312.7845      1.744     4.96     831.4349     55.14431      589.536        26     1.674     0.857 -21.53   0
       565    857.7065     73.9669 307.5686986  +6.6641885     1890.393     3139.737     3153.111     78.54533     156.3456     312.9088      1.745     5.23     829.9958     55.14431     317.7279        20     1.662     0.784 -31.52   0
       566    875.6868     73.0887 307.5612559  +6.6651513     3548.024     5810.631     5618.162     78.17278     156.9047      312.971      1.719     4.70     829.9468     55.14431     509.3232        26     1.642     0.846 -27.86   0
       567    555.2432     74.1794 307.6943841  +6.6539883     793.3068     1005.862     1023.835     77.92342     156.3456     312.6911      1.437     3.57     829.5248     55.14431     144.4603         7     0.973     0.640 -14.16   0
       568    567.5316     71.6963 307.6893608  +6.6554251     1665.675     2687.737     2898.642     78.29716     156.5943     312.8777      1.712     4.67     829.4896     55.14431      244.892        19     1.542     0.790 -27.73   0
       569    213.3861     71.2680 307.8365395  +6.6437227      787.563      1333.96     1329.156     77.92342     156.3456     312.7533      1.831     4.66     832.8636     55.14431     113.9567         9     1.184     0.596 -32.85   0
       570    587.6862     71.3651 307.6809965  +6.6562366     501.8382     696.5778     630.2122     78.42134     156.3456     312.8466      1.403     3.47     829.5118     55.14431     102.5305         5     0.765     0.454 -15.09   0
       571    366.3457     69.6158 307.7730339  +6.6495411     1962.479     2984.003      3060.29     77.79845       156.47     312.5666      1.639     4.24     833.0234     55.14431     276.2909        21     1.623     0.801 -29.38   0
       572    114.4583     66.4019 307.8778111  +6.6424058      3087.08     4977.198     5623.929     77.79845      156.221     312.5666      1.795     4.71     830.4772     55.14431     458.1219        23     1.546     0.868 -33.42   0
       573    262.5660     64.8899 307.8163178  +6.6480086     1274.048      1995.07     2386.146     78.54533     156.3456     312.8466      1.711     5.60     833.7601     55.14431     186.1737        16     1.497     0.876 -33.60   0
       574    523.3736     63.9310 307.7079714  +6.6571528     814.4829     1325.612     1252.041     78.04819     156.3456     312.7533      1.674     6.32      829.249     55.14431     120.2144        11     1.383     0.811 -25.94   0
       575    731.2126     63.1988 307.6216257  +6.6644097     689.4865     1012.218     1424.968     78.04819     156.1587     312.6288      1.569     4.49     829.6257     55.14431     105.5127         7     1.106     0.517 -24.45   0
       576    798.1028     58.8493 307.5939736  +6.6684409     5691.779     9290.881        10148     78.29716     156.4078     313.0021      1.784     4.71     828.8362     55.14431     881.6415        28     1.645     0.886 -24.97   0
       577    743.1434     59.1401 307.6168035  +6.6664845     2996.137     4868.693     5024.672     78.54533       156.47     312.8777      1.780     4.97     829.4561     55.14431     421.3089        23     1.613     0.862 -24.60   0
       578    387.4671     60.0427 307.7645784  +6.6542027     870.3873      1537.34     1527.255     78.42134     156.4078     312.9088      1.685     4.97     832.1487     55.14431     142.2228         9     1.102     0.741 -53.60   2
       579    505.3260     57.6098 307.7156832  +6.6591584     1115.383     1906.679     2415.712      78.0482     156.0964     312.7222      2.060     4.88     829.1741     55.14431     178.5545        11     1.209     0.664 -26.64   0
       580    397.7259     55.9331 307.7604534  +6.6562437     893.9601     1578.483     1921.182     78.54533     156.5943     312.8156      1.930     5.87     831.6165     55.14431     130.6943        13     1.360     0.714 -36.72   0
       581     36.6162     56.1832 307.9105011  +6.6440058     2940.335      4799.61     4470.395     78.17278     156.1587     312.7845      1.714     5.00     830.9068     55.14431     394.8583        24     1.643     0.848 -20.90   0
       582     20.8591     57.0144 307.9170206  +6.6431320     898.4779     1287.407     1425.395     77.79845     156.4078     312.5977      1.503     5.31     831.1395     55.14431     158.8624        10     1.460     0.546 -31.44   0
       583    560.4000     52.8922 307.6929548  +6.6629512     1224.007     1868.766     1287.541     77.92342     155.9717     312.5043      1.596     3.79     828.7354     55.14431     235.6005        12     1.240     0.689 -18.00   0
       584    377.6042     47.1629 307.7691096  +6.6591902     943.4634     1520.419     1384.777     77.54788      156.221       312.66      1.594     3.64     832.6868     55.14431     140.2348         7     0.958     0.558 -68.32   2
       585     51.3884     47.1267 307.9046680  +6.6482426     781.4813     1282.715     1140.547     77.92342     156.0964     312.6911      1.788     5.78     830.4235     55.14431     120.4741        10     1.407     0.668 -24.66   0
       586    737.7018     46.6369 307.6194833  +6.6714657     1864.821      3069.42     3199.031     78.42134     156.3456     313.0332      1.739     5.11     829.0928     55.14431     306.9542        17     1.606     0.636 -20.47   0
       587     75.7627     45.7027 307.8945876  +6.6496510     883.0102     1306.154     742.1568     78.42134     156.3456     313.0021      1.698     5.88     830.2268     55.14431     132.2118        12     1.436     0.676 -34.23   0
       588     64.4310     40.4457 307.8994735  +6.6514404     8712.944     14662.78     15447.11      78.0482     156.5322     312.7222      1.824     4.76     830.1263     55.14431     1201.725        41     1.721     1.052 -27.77   0
       589    393.4505     40.2053 307.7627582  +6.6625948     2448.319     3869.507     3843.708     77.79845     156.2833     312.4732      1.677     4.75     831.8882     55.14431     336.2742        19     1.511     0.770 -18.61   0
       590    214.9525     40.1251 307.8369363  +6.6566350     578.1028     815.5709     690.7084     78.29716     156.5322     312.8466      1.353     3.87     833.1838     55.14431     92.46118         5     0.852     0.504 -58.45   0
       591    607.2244     32.4947 307.6741798  +6.6729416     17103.73     27700.92     28999.29     78.54533      156.221     312.7222      1.754     4.57     827.9258     55.14431     2729.964        45     1.744     0.993 -27.31   0
       592    231.0225     34.5067 307.8304474  +6.6594949     1433.667     2152.944     2205.115     78.42134     156.2833     312.6911      1.611     5.12     833.7527     55.14431     179.4137        15     1.388     0.707 -27.91   0
       593    506.9807     28.4635 307.7159733  +6.6712493     4594.288     7720.746     8462.635     78.04819       156.47     312.6911      1.825     4.93     828.2476     55.14431     778.6025        34     1.692     1.016 -27.33   0
       594    225.0688     28.8167 307.8331129  +6.6616444     1695.413     2860.678      3435.34     77.92342     156.3456     312.7533      1.713     4.55     833.7584     55.14431     282.4639        20     1.545     0.909 -28.05   0
       595    665.1417     26.5829 307.6503089  +6.6773206     434.5539     1089.928     1357.249     78.04819     156.4078     312.5977      2.459     6.02     827.7439     55.14431     79.54224         7     1.836     0.556 -14.97   0
       596    594.5661     26.4779 307.6796419  +6.6750024     838.7278     1591.306     1889.854     78.29716       156.47     312.8156      2.022     5.69     827.6796     55.14431      125.379        11     1.370     0.666 -26.43   0
       597    412.5482     24.1427 307.7553613  +6.6698681     21314.99     34876.68      36458.5     78.42134       156.47     312.8466      1.753     4.57      830.627     55.14431     2992.606        49     1.737     1.022 -25.06   0
       598    292.7770     24.9599 307.8051061  +6.6655113     980.4451     1588.919     1633.571     78.04819     156.2833     312.6288      1.564     5.70     834.3826     55.14431     138.8744        15     1.425     0.839 -38.79   0
       599    233.1000     24.5822 307.8299179  +6.6636628     8573.306     13928.75     15082.39     78.42134     156.3456     312.6288      1.758     4.67     833.8712     55.14431     1323.697        36     1.699     0.955 -25.75   0
       600    890.3586     24.0702 307.5567967  +6.6858826     1770.583     2971.854     2942.728     78.29716       156.47     312.9088      1.752     4.90     828.1929     55.14431     255.0412        21     1.570     0.879 -27.38   0
       601    525.7197     23.6551 307.7083472  +6.6738626     674.0853      1164.18     1173.867     78.54533       156.47     312.8777      2.144     5.11     827.8797     55.14431     138.8624         6     1.343     0.653 -21.59   0
       602    497.8572     24.2878 307.7199048  +6.6726679     598.4931     1214.137     1612.086     78.42134     156.3456      312.971      2.135     4.73     828.2426     55.14431      94.3847         6     1.462     0.434 -26.00   0
       603    593.2592     22.2073 307.6803282  +6.6767221     2996.273     4858.245     5461.294     77.79844     156.3456     312.5666      1.721     4.96     827.5167     55.14431     444.9261        23     1.545     0.850 -25.66   0
       604    221.0182     21.1002 307.8350557  +6.6646946     2631.266     4511.745     4593.382     78.42134     156.3456     312.6288      1.724     4.65     833.6365     55.14431     354.5061        26     1.666     0.869 -28.13   0
       605    273.9228     19.2090 307.8131345  +6.6672529     924.3988     1603.648     1345.178     78.04819     155.9717     312.6911      1.860     6.15     834.2982     55.14431     125.8694        13     1.517     0.701 -29.62   0
       606    862.9299   1018.0063 307.5349988  +6.2745233     1207.206     2291.177     2525.566     77.92342     156.0964     305.2266      1.903     5.40     858.0113     55.14431     170.2928        16     1.278     1.040 -21.82  16
       607    185.9533   1016.0920 307.8161696  +6.2526532     1835.545     3486.308     3655.189     78.42134     156.4078      312.971      2.018     5.41     857.2873     55.14431     238.2203        25     1.676     1.010 -40.29  16
       608    689.1021   1013.3914 307.6073350  +6.2706247     6197.994     11194.95     12312.89     78.17278     156.0964     312.6288      1.971     4.48     859.6707     55.14431     736.8539        45     1.922     1.142 -20.39  18
       609    680.5018   1012.6415 307.6109314  +6.2706470     918.4303     1456.519     2201.596     78.42134     156.3456     313.0643      1.965     4.89     859.6648     55.14431     126.8635         9     1.148     0.705   5.49   3
       610    403.9550   1013.5264 307.7257355  +6.2610262     3382.187     6073.727     6706.584     78.29716     156.5322     312.8777      1.927     4.66     859.9247     55.14431     458.6394        32     1.632     1.064 -27.15  16
       611    545.1965   1012.4786 307.6671217  +6.2661890     3591.381     6525.107     7959.709     77.92342     155.9717       312.66      1.987     4.63     859.7673     55.14431      438.641        31     1.665     1.060 -29.45   0
       612    721.5364   1008.8065 307.5940200  +6.2736018     884.1403     2004.512     2533.566     77.79845     156.1587       312.66      2.342     7.77     859.6174     55.14431     137.7282        16     1.757     0.973 -22.11   0
       613    928.6971   1002.8997 307.5081924  +6.2829550     5361.936     10556.89     11587.16     78.42134     156.9667     312.6911      2.120     4.97      857.771     55.14431     575.2811        44     1.877     1.249 -26.72   0
       614    212.7830   1002.8927 307.8054728  +6.2590046     1247.568     2114.166     2235.343     78.17278     156.2833     312.6911      1.885     6.00     857.6956     55.14431     172.5235        16     1.576     0.786 -30.87   0
       615    688.4603   1001.0068 307.6080156  +6.2757174     2356.416     4430.328     5917.842     77.79844     156.2833     312.6288      2.418     5.61     859.5268     55.14431     319.7966        30     1.926     0.988 -27.06   2
