#   1 NUMBER                 Running object number                                     
#   2 X_IMAGE                Object position along x                                    [pixel]
#   3 Y_IMAGE                Object position along y                                    [pixel]
#   4 ALPHA_J2000            Right ascension of barycenter (J2000)                      [deg]
#   5 DELTA_J2000            Declination of barycenter (J2000)                          [deg]
#   6 FLUX_APER              Flux vector within fixed circular aperture(s)              [count]
#   9 FLUXERR_APER           RMS error vector for aperture flux(es)                     [count]
#  12 FLUX_RADIUS            Fraction-of-light radii                                    [pixel]
#  13 FWHM_IMAGE             FWHM assuming a gaussian core                              [pixel]
#  14 BACKGROUND             Background at centroid position                            [count]
#  15 THRESHOLD              Detection threshold above background                       [count]
#  16 FLUX_MAX               Peak flux above background                                 [count]
#  17 ISOAREA_IMAGE          Isophotal area above Analysis threshold                    [pixel**2]
#  18 A_IMAGE                Profile RMS along major axis                               [pixel]
#  19 B_IMAGE                Profile RMS along minor axis                               [pixel]
#  20 THETA_IMAGE            Position angle (CCW/x)                                     [deg]
#  21 FLAGS                  Extraction flags                                          
         1     16.9503     73.9881 307.9359996  +6.6318906     725007.6      1758657      1973569     83.61759     168.1067     335.9124      2.358    12.69     1005.709     59.26898     61771.21       456     2.381     1.884  45.55  12
         2    650.3275     26.6596 307.6743788  +6.6726679     16407.04     26902.55     28818.03     84.42034     168.1736     336.2469      1.797     4.22     974.0661     59.26898     2213.051        51     1.790     1.111  44.08   0
         3    550.1180     22.8181 307.7161564  +6.6709028     4500.675      7769.74     8805.209     83.88602      167.839       336.18      1.899     4.67     975.3848     59.26898     588.4708        34     1.689     1.056  44.63   0
         4    636.6529     16.9787 307.6803885  +6.6762075      2715.21     5460.765     6734.182     83.75191     168.1736     336.0462      2.280     6.34     973.9476     59.26898     382.4592        33     1.994     1.072  64.70   0
         5    455.6762     18.3501 307.7555577  +6.6695860     19363.68      33851.9     36407.79     84.15361     168.2404     336.2469      1.884     4.46     979.1417     59.26898     2350.776        59     1.855     1.219  42.29   0
         6    276.3232     18.7818 307.8300816  +6.6633955     7790.539     13513.11        14241     83.75191      167.906     336.2134      1.841     4.38     999.3581     59.26898     1080.282        41     1.727     1.152  39.59   0
         7    933.4195     18.2962 307.5570017  +6.6855685      1921.99     3056.111     2819.287     84.15361     167.9729     336.0128      1.640     4.04     964.4258     59.26898     355.3589        19     1.483     0.826  48.37   0
         8     41.3083     18.1265 307.9277717  +6.6557710     2024.526     3257.248     3284.041     84.28708     168.3072     336.2803      1.676     3.88     1003.306     59.26898     253.4583        20     1.349     0.911  47.62   0
         9    264.1998     15.2269 307.8352402  +6.6644562     2465.028     4147.604     4245.552     83.75191      167.839     336.0462      1.782     4.69     999.3721     59.26898     304.5015        27     1.683     0.979  46.52   0
        10     80.2158     11.1275 307.9118400  +6.6599687      525.299     552.2069      281.577     83.75191     168.0398     336.1466      1.478     5.56     1000.802     59.26898     95.08203         5     1.182     0.737  15.89   0
        11    705.4396      7.9091 307.6521053  +6.6822504     1555.062     2351.083     2155.914     84.28708     168.1067     334.2686      1.623     4.58     972.0958     59.26898     233.6912        17     1.433     0.869  50.07  16
        12    954.1727      8.2473 307.5487138  +6.6904087     910.8434     1439.708     1779.351     83.88602     168.2404     335.6781      1.361     4.62     961.8696     59.26898     157.1887         8     1.199     0.505  44.47   0
        13    216.2704      3.1678 307.8555674  +6.6678258     622.1356     1014.211     728.3681     84.15361     158.6107     282.9459      1.865     4.67      999.325     59.26898     109.9525         6     0.878     0.704  27.97  16
        14    194.2453      1.8346 307.8647660  +6.6676366     6096.449     9502.858     9963.203     79.34078     141.6913     261.6872      1.630     4.91     999.2875     59.26898     1102.914        26     1.654     0.835  14.46  24
        15    538.8940      1.0991 307.7215540  +6.6794937     556.6176     852.3197      528.151     70.00768     130.1113     248.7377      1.513     4.09     975.2012     59.26898     131.0258         7     1.746     0.273   4.03  24
        16      7.6255      1.3509 307.9423384  +6.6615632     619.4401     785.4433     52.62875     72.99475     133.8587     250.1348      1.267     3.92     1005.029     59.26898     127.0114         7     1.002     0.455   9.32  24
        17    454.0615    995.7549 307.7232435  +6.2660134     948.0944     1376.307     1301.659     84.15361     168.1067     336.3472      1.424     3.74     1016.901     59.26898     161.1862         8     1.098     0.579  60.74   0
        18    597.3634   1018.1954 307.6629772  +6.2615406     154075.1     239983.9     253937.2     83.34829      167.906     326.5113      1.666     4.22     1018.102     59.26898     27419.81        98     1.794     1.102  43.75  19
        19    599.1341   1011.0285 307.6624832  +6.2645586     71682.95     113421.6     121532.8     84.01993     168.1067       336.18      1.673     4.12     1017.744     59.26898     11295.91        86     1.816     1.152  45.95   3
        20    231.3061   1021.0800 307.8148916  +6.2480962     3595.297     5787.772     5981.894     84.01992      165.682     293.7829      1.660     4.03     1020.042     59.26898     605.1469        24     1.526     0.888  42.19  24
        21    731.2823    995.0117 307.6081427  +6.2755841     2926.582     4480.044     4984.214     83.88602      167.906     336.0797      1.644     4.12     1011.882     59.26898     504.9272        21     1.457     0.881  39.48   0
        22    746.6052    993.9136 307.6018161  +6.2765488     1195.621     1600.096     1309.896     83.75191      167.839     335.9459      1.437     2.75     1011.471     59.26898     193.2084        11     0.918     0.781   1.81   0
        23    378.1273    992.4069 307.7548902  +6.2648537     1682.669     2630.795     2692.782     83.88602      167.705       336.18      1.594     4.45     1018.185     59.26898     289.8787        16     1.450     0.763  49.58   0
        24    764.9105    982.1379 307.5946099  +6.2820212      8004.41     12231.17     12411.99     84.28708     168.3072     336.3138      1.575     3.98     1010.445     59.26898     1285.759        29     1.601     0.866  46.25   0
        25    560.3218    982.7299 307.6795544  +6.2749447     4219.579     6647.892     7003.265     84.55339     168.4407     336.2134      1.687     4.23     1016.451     59.26898      689.549        26     1.600     0.875  48.09   3
        26    557.5749    974.9432 307.6809575  +6.2780676     8239.383      12876.4     13865.17     83.88602     168.1736     336.0462      1.666     4.23     1016.255     59.26898     1420.244        38     1.760     0.952  45.26   2
        27    530.1899    983.9106 307.6920280  +6.2734498     1185.359     1621.263      1558.26     84.01992      167.839     336.0462      1.409     4.00     1016.591     59.26898     210.8348         9     1.074     0.635  46.03   0
        28    310.7305    981.3876 307.7832503  +6.2671453     14060.66     23121.14     25783.38     83.75191     167.9729     336.1131      1.823     4.11     1019.282     59.26898     2662.037        59     1.726     1.480  18.56   0
        29    825.7801    981.1597 307.5693636  +6.2844551      1076.95     1624.937     1304.081     83.88602     167.9729     335.9793      1.615     5.01     1008.854     59.26898      155.948         9     1.280     0.555  43.73   0
        30    434.5227    981.7480 307.7318300  +6.2711422     1103.985     1249.142     886.5497     84.42034     168.2404     336.2469      1.458     4.79     1016.956     59.26898     143.8829        11     1.088     0.829  27.17   0
        31    281.7072    978.8853 307.7953874  +6.2672057     972.2806     1559.331     1634.581     84.01993     168.6408     336.3472      1.637     6.00     1019.516     59.26898     151.3508        11     1.408     0.720  56.84   0
        32    926.2715    975.7483 307.5278107  +6.2900381     8449.908     13475.79     14753.44     84.15361     168.1736     336.2803      1.703     4.59     1006.432     59.26898     1452.789        34     1.707     0.928  48.16   0
        33    899.8775    971.8484 307.5389033  +6.2907689     12116.71     19818.74     20657.21     84.15361     168.2404     336.2469      1.740     4.17     1006.865     59.26898     2196.245        45     1.741     1.072  36.72   0
        34      9.4269    973.7161 307.9086305  +6.2602012     775.8024     1253.712         1421     84.42034      167.906     336.1131      1.559     3.16     1021.461     59.26898     155.9919         6     0.988     0.457  32.14   0
        35   1021.4846    971.1691 307.4884214  +6.2950985     4779.116     7597.852     7659.628     84.28708      161.838     287.9472      1.638     4.32     1000.009     59.26898       774.23        27     1.596     0.884  40.62  24
        36    612.5979    972.3856 307.6581929  +6.2809624     1308.982     2170.167     1865.339     83.88603      167.839     336.0462      1.840     5.85     1015.172     59.26898     232.2883        13     1.420     0.679  41.54   0
        37    544.1795    970.7573 307.6866615  +6.2793479     4000.008     6666.543     7324.404     83.75191     168.0398     336.0797      1.872     4.47     1016.361     59.26898     684.3966        26     1.714     0.939  28.92   0
        38    653.5183    969.9413 307.6412811  +6.2833384     1379.055     2031.191     2194.482     84.28708     168.2404     336.2469      1.526     4.09     1012.857     59.26898     210.8108        15     1.196     0.896  57.50   0
        39    497.1963    967.2814 307.7062903  +6.2792118     2223.292     3583.437     3015.025     83.75191      167.705     335.9459      1.666     4.32     1016.412     59.26898     370.6448        23     1.537     0.893  47.94   0
        40     78.3918    968.7588 307.8801601  +6.2645647     871.4639     1339.186      1808.19     83.61759     167.9729     335.9793      1.459     2.94     1020.811     59.26898     184.8987         7     0.897     0.533 -29.93   0
        41    404.7864    965.5895 307.7447241  +6.2768179     528.7245     776.4382      679.507     84.01993      167.906       336.18      1.558     3.49     1017.384     59.26898     99.64545         5     0.738     0.476  12.63   0
        42    931.6069    959.3721 307.5261445  +6.2969768     43595.11     68564.77     72598.33     83.75191     167.9729     336.0462      1.705     4.16     1005.376     59.26898     7838.732        62     1.752     1.063  41.83   0
        43      4.4666    959.1195 307.9111847  +6.2660604     3196.908      4951.99     5203.476     84.42034      168.374     301.2264      1.649     4.06     1021.575     59.26898     495.7174        23     1.577     0.865  40.43  16
        44    336.4077    960.2690 307.7733002  +6.2767244      577.752     674.5001      911.261     83.75191      167.839     336.1466      1.196     3.44     1018.784     59.26898     114.1108         5     0.720     0.480  78.52   0
        45    238.7722    957.5327 307.8139387  +6.2745815     1875.837     2795.577     2731.345     83.88603     168.1067     336.1466      1.580     4.58     1019.251     59.26898     293.2505        17     1.345     0.825  41.62   0
        46    637.5813    955.7086 307.6483788  +6.2886822     829.5727     1044.175     1047.923     84.15361      167.906     336.1131      1.356     3.43      1013.22     59.26898     161.6138         5     0.816     0.418  68.00   0
        47    126.4216    956.2683 307.8606376  +6.2713340     648.6185     478.7814     339.5937     83.88603     168.1067       336.18      1.235     4.25     1020.061     59.26898     94.42102         5     0.909     0.567 -37.18   0
        48    829.5295    953.1755 307.5687466  +6.2961336     2361.233     3644.339     3808.935     83.88603     168.0398       336.18      1.654     4.51     1007.852     59.26898     435.8459        19     1.534     0.794  43.46   0
        49    777.7281    950.8406 307.5903388  +6.2953701     6721.998     10202.67      11545.9     84.15361     168.1736     336.3138      1.610     3.92      1009.27     59.26898     1182.864        31     1.541     0.938  47.88   0
        50    564.3545    950.2684 307.6789732  +6.2884813     849.3352     1207.431     494.7012     84.28708     168.1067     336.2134      1.554     4.20     1015.407     59.26898     160.2903         8     1.225     0.581  59.19   0
        51    247.1846    950.1149 307.8106959  +6.2779260     1432.281      2500.91     2584.213     83.88602      167.906     336.1466      1.699     5.64     1019.151     59.26898     225.0002        14     1.530     0.663  48.94   0
        52    210.9926    949.2181 307.8257559  +6.2770825     800.7735     1273.375      2019.42     83.88602      167.839     336.0797      1.596     4.44     1019.218     59.26898     162.0435         6     0.943     0.595  57.09   0
        53     72.2212    948.1622 307.8834197  +6.2728604     2639.194     4290.008     4510.051     83.88602      167.906     335.9793      1.705     4.28     1020.738     59.26898     413.4658        22     1.526     0.840  42.07   0
        54    965.9551    946.0864 307.5123250  +6.3036058     6807.167     10756.06     11287.09     84.28708     168.0398     336.2134      1.635     4.18       1002.4     59.26898     1036.735        33     1.629     0.963  41.45   0
        55    221.7737    941.6132 307.8215359  +6.2805837     574.7208      920.559     1149.208     84.01993     167.9729       336.18      1.442     3.25     1019.069     59.26898     102.8014         5     0.722     0.466  14.92   0
        56    939.7177    937.7381 307.5235021  +6.3061788     2167.733     3166.413     3109.637     84.42034     168.1736     336.2134      1.618     3.82     1003.839     59.26898     370.0143        18     1.348     0.892  52.94   0
        57    272.7594    934.0476 307.8006180  +6.2854167     4199.735     6853.127     6796.743     84.15361     168.1736     336.1131      1.702     4.14     1018.955     59.26898     643.9797        29     1.654     0.942  48.42   0
        58    799.0785    934.3438 307.5820262  +6.3028930     1359.526     2046.294     2164.738     84.28708     168.1736     336.2469      1.676     5.49     1008.599     59.26898     236.3881        14     1.455     0.696  48.57   0
        59    660.4099    933.7885 307.6396358  +6.2984944     4540.995      7137.27     7107.195     84.01993     167.9729     336.2134      1.693     4.34     1012.043     59.26898     817.8191        27     1.608     0.859  43.78   0
        60   1009.6826    933.5043 307.4945861  +6.3102562     885.1994     1593.433     1556.803     84.15361     168.5742     336.3472      1.626     5.79     998.6465     59.26898     154.3632         9     1.329     0.928  69.08   0
        61    482.7133    932.0595 307.7134924  +6.2932687     1177.834     1697.319     866.0047     84.28708     168.3072     336.3806      1.376     4.19     1016.067     59.26898     238.9949        10     1.284     0.612  36.52   0
        62     41.5378    931.5480 307.8967241  +6.2786886     1913.272     2902.027      2521.13     84.28708     168.1067     336.2134      1.684     4.30     1021.106     59.26898     361.0505        19     1.552     0.809  44.75   0
        63    892.2908    930.1403 307.5434546  +6.3077358     1006.567     1352.327     1239.295     84.15361     168.1736     336.3138      1.598     4.81     1004.891     59.26898      165.217         9     1.334     0.491  40.55   0
        64    308.6104    927.9567 307.7859352  +6.2891330     948.7595     1506.709     2276.128     83.75191     167.9729     335.9459      1.902     5.33     1018.715     59.26898     138.5695        10     1.231     0.652  57.39   0
        65    963.4402    927.4435 307.5139951  +6.3112190      795.072     1121.032      1802.87     84.01993     168.1736     336.1131      1.832     5.51      1001.71     59.26898     114.1643         9     1.483     0.578  42.66   0
        66    585.1390    926.1989 307.6711520  +6.2991132     1745.063     2526.595     2631.758     83.61759     167.9729     335.9124      1.599     3.88     1013.697     59.26898     337.4266        17     1.414     0.766  50.48   0
        67   1016.2166    925.4807 307.4921415  +6.3137863     852.8485     1648.205     2366.825     83.88603      167.839     336.0797      2.291     6.83     997.9886     59.26898     131.5976        11     1.687     0.776  75.93  16
        68     73.9432    923.5722 307.8835370  +6.2830700     916.3842     1465.648     2107.798     83.88602     168.2404     336.1466      1.889     5.31      1020.51     59.26898     146.0127        10     1.256     0.797  61.97   0
        69    624.2452    922.5780 307.6550328  +6.3019148     1201.714     1779.805     1814.311     83.88603     168.1736     336.0797      1.648     5.84      1012.32     59.26898     221.3508        13     1.380     0.762  36.46   0
        70    304.0650    920.3307 307.7880804  +6.2921290     1362.644     2104.028     2683.686     84.28708     168.2404     336.2803      1.651     4.38     1018.731     59.26898     195.1049        13     1.173     0.756  48.70   0
        71    770.8224    916.0778 307.5943755  +6.3094918     941.6957     1268.723     530.9879     83.88602     167.9729     336.2134      1.273     2.17     1008.299     59.26898     202.9963         8     0.779     0.623  45.44   0
        72    908.7249    912.9656 307.5372058  +6.3153741     7052.512     11315.69     12029.23     84.15361     168.1736     336.2134      1.698     4.46     1003.956     59.26898     1156.668        37     1.728     0.950  43.56   0
        73    444.4656    910.0449 307.7301192  +6.3010776     1971.265     3243.781     2926.724     84.28708     168.1067     336.2469      1.776     4.38     1016.338     59.26898     331.5945        21     1.479     0.901  41.47   0
        74    346.2405    908.6157 307.7709606  +6.2983787     9074.867     14532.19     14950.43     83.75191     167.9729     336.0128      1.683     4.25     1018.329     59.26898     1523.252        38     1.628     1.041  46.56   0
        75    266.3394    907.4132 307.8041840  +6.2961973     6776.986     10926.38     11047.51     83.75191     168.0398     335.9124      1.723     4.11     1018.819     59.26898     1140.939        38     1.635     1.067  45.92   0
        76    594.1076    901.5301 307.6682581  +6.3095975     1128.969     1522.067     1344.769     84.28708     168.3072     336.2469      1.381     2.98     1012.733     59.26898     197.8749         8     0.886     0.614  55.61   0
        77    778.1838    901.5917 307.5918052  +6.3157181      613.819     477.7113     263.6098     83.88603      167.906     336.0797      0.996     2.10     1007.614     59.26898     132.2015         5     0.688     0.454 -21.35   0
        78    924.5948    898.2567 307.5311083  +6.3219755     1240.081     1843.351     2056.984     83.75191     168.0398     335.9459      1.475     5.43     1002.901     59.26898     228.3805        12     1.397     0.686  40.67   0
        79    227.9935    897.5298 307.8204429  +6.2989918     685.0287     1222.385     1961.386     83.75191      167.772     336.1131      2.029     4.67     1018.801     59.26898     122.2776         7     0.930     0.860  21.53   0
        80    880.4613    896.1919 307.5495077  +6.3213576     746.7946     1177.514     500.8622     83.61759     167.9729     336.0128      1.692     3.40     1004.256     59.26898     133.5443         5     0.805     0.415  66.44   0
        81    421.9688    895.4562 307.7399544  +6.3063475      611.171     818.6339     907.7739     84.15361     168.1736     336.1466      1.436     4.17     1016.454     59.26898     86.47736         6     0.960     0.516  76.37   0
        82    991.3452    893.3732 307.5035484  +6.3262144     815.0827     975.2995     770.1243     83.88603     168.2404     336.0797      1.178     2.51     999.6285     59.26898     192.9323         7     0.824     0.638  30.59   0
        83    760.8989    891.1229 307.5993360  +6.3194636     1635.488      2579.31     2339.526     83.88602      168.374     336.2803      1.653     4.93      1007.57     59.26898     323.7419        18     1.551     0.794  45.28   0
        84    585.2501    892.2985 307.6722477  +6.3131128     740.4033     1192.073     1166.495     84.28708     168.1067     336.4474      1.824     4.60     1012.762     59.26898      134.074         8     1.387     0.434  35.56   0
        85    992.0976    886.9419 307.5034516  +6.3288947     1299.028      1907.52     2664.814     84.01993     168.1067      336.414      1.564     4.87      999.568     59.26898     233.5511        13     1.516     0.676  46.80   0
        86    624.5450    887.6433 307.6560845  +6.3163477     905.3163     1186.365     1082.113     84.28708     168.1736     336.2469      1.770     5.58     1011.493     59.26898     135.3207        10     1.408     0.623  41.97   0
        87     11.2761    888.0485 307.9107643  +6.2956298      932.571     1231.691     1074.134     84.15361     168.2404     336.2469      1.521     3.69     1020.928     59.26898     161.5213        10     0.979     0.701  36.97   0
        88    545.2390    886.2940 307.6890674  +6.3142542     1155.508     1435.001     1358.906     84.42034     168.1067     336.3472      1.270     2.60     1013.639     59.26898     189.7025         8     0.835     0.628  85.85   0
        89    679.2040    884.3945 307.6334926  +6.3195147     2695.989     3974.287     4203.016     83.61759      167.839     336.1131      1.600     4.14     1009.611     59.26898     461.4892        19     1.386     0.864  41.70   0
        90    969.0104    882.4981 307.5131897  +6.3299608     749.8321     1048.249     1250.566     84.01992      167.772     336.0462      1.399     4.61     1000.462     59.26898     95.30554         7     0.989     0.611 -55.93   0
        91    840.0504    880.9537 307.5668036  +6.3263019     891.0125     1630.304      1997.82     84.28708     168.0398     336.3472      1.617     4.64     1005.113     59.26898     182.4805         8     1.471     0.434  54.13   0
        92     75.9992    880.6244 307.8841370  +6.3008695     2729.336     4639.555     4766.705     83.88602      167.839     336.0128      1.827     4.83     1019.814     59.26898     417.5293        25     1.616     0.931  41.11   0
        93    219.4584    879.5556 307.8245951  +6.3061260     2360.944     3762.532     4196.192     84.15361     168.1067     336.3472      1.704     4.67     1018.811     59.26898     384.2227        22     1.646     0.821  44.63   0
        94     93.3434    879.8194 307.8769613  +6.3017843     1862.094     2865.894     2848.098     83.75191     168.1067     336.0462      1.609     3.88     1019.538     59.26898     358.5522        18     1.413     0.798  36.48   0
        95    957.4184    879.5978 307.5181017  +6.3307722     862.1352     1281.837      1040.01     83.88603      167.705     335.9793      1.346     3.95     1000.881     59.26898       214.34         9     1.233     0.609  39.54   0
        96    253.2442    876.3157 307.8106733  +6.3085967     766.7435     1231.063     1735.672     84.28708     168.1067     336.2803      1.761     5.60     1018.725     59.26898     124.8751         9     1.419     0.624  53.31   0
        97    358.1177    875.5536 307.7671442  +6.3124261      907.569     1474.822     1934.532     84.28708     168.1736     336.2469      1.889     4.31     1018.013     59.26898     143.9161         9     1.175     0.783  30.81   0
        98    673.8719    873.5791 307.6360711  +6.3238018     6939.374     10772.61     11676.43     83.88602     168.0398     336.2134      1.634     4.11     1009.306     59.26898     1142.321        31     1.598     0.911  40.20   0
        99    810.7272    874.2550 307.5792078  +6.3280897     635.4571     998.6566     711.4695     84.15361     168.0398       336.18      1.541     3.73     1005.533     59.26898     109.9158         5     0.935     0.428   5.81   0
       100    911.4161    869.9548 307.5375321  +6.3332212     2835.866     4741.764     5454.996     83.75191     168.0398     336.0128      1.763     4.29     1002.273     59.26898     508.7461        25     1.565     1.033  45.07   0
       101     33.8987    871.6554 307.9019247  +6.3031578     1239.221     1849.162     1643.286     84.15361     168.1736     336.4808      1.417     4.29     1020.315     59.26898      204.173        13     1.317     0.662  44.52   0
       102    356.9474    866.7963 307.7679259  +6.3160023     15470.89     25152.33     26994.02     83.61759     167.9729      335.812      1.707     4.04     1018.007     59.26898     2310.025        46     1.692     1.074  46.90   0
       103     47.0977    870.4069 307.8964855  +6.3041167     1012.731     1610.656     1469.017     84.01992      167.772     336.0128      1.860     3.95     1020.085     59.26898      190.499        10     1.259     0.573  42.75   0
       104     91.4878    868.0610 307.8781300  +6.3065763     1225.684     2165.722     2396.455     84.28708      168.374     336.2803      1.820     5.72     1019.386     59.26898     185.3688        16     1.544     0.756  47.42   0
       105    227.9335    866.2130 307.8215264  +6.3119187     1088.781     1992.826     2190.152     83.75191     167.9729     336.1466      1.999     4.98     1018.714     59.26898     205.3802        14     1.644     0.686  31.95   0
       106    674.0760    860.6248 307.6364223  +6.3291569     499.8035     489.0529     480.9379     83.88602     168.1067     336.2134      1.162     4.69     1008.739     59.26898      96.3299         5     1.062     0.588  75.39   0
       107    120.1869    857.5298 307.8665677  +6.3118877     1584.643     2668.936     2524.685     83.75191      167.906     336.1131      1.700     5.37     1019.208     59.26898     246.8368        21     1.613     0.918  42.45   0
       108    434.2328    857.3341 307.7361471  +6.3224967     1032.434      1582.43     1690.376     84.15361     168.2404     336.2134      1.644     2.94     1015.484     59.26898     158.0026         8     0.868     0.633  19.49   0
       109    515.1763    853.8139 307.7026479  +6.3266584     617.0573      796.593     1249.633     84.01992     167.9729       336.18      1.247     4.73       1013.3     59.26898     100.5751         8     0.998     0.636  28.26   0
       110    901.8357    851.4881 307.5421313  +6.3405262     2198.098     3017.077     3098.015     84.28708     168.0398     336.2469      1.515     4.12     1002.096     59.26898     362.6556        17     1.491     0.705  43.12   0
       111    687.5134    853.0950 307.6310947  +6.3327143      848.511     1216.127     1625.219     84.28708     168.5742     336.3138      1.270     2.83      1008.11     59.26898      150.285         6     0.766     0.498  86.15   0
       112    103.7345    850.9853 307.8736219  +6.3140371     2230.588     3686.872     3920.735     83.75191     168.0398       336.18      1.773     4.47     1019.103     59.26898     359.3083        22     1.510     0.898  41.95   0
       113    872.5270    850.7817 307.5543284  +6.3398412      2020.18     2897.494     3233.339     83.75191     168.1067       336.18      1.536     3.97     1003.416     59.26898     349.3007        15     1.296     0.764  40.91   0
       114    836.1539    850.6195 307.5694413  +6.3386957      2971.81     4882.233     5364.011     83.88602     168.1067     336.0797      1.741     4.62     1004.174     59.26898     475.5475        25     1.600     0.921  40.46   0
       115    572.0338    841.9979 307.6794313  +6.3334378     314896.3     505680.7     534686.2     83.48305     167.9729     336.0462      1.681     4.08     1011.154     59.26898     47382.49       168     1.836     1.258  43.74   0
       116    351.5358    848.9504 307.7707759  +6.3231887     852.4666     1256.915     1703.221     84.15361     168.1067     336.2803      1.633     4.59     1017.746     59.26898     115.0127         7     0.961     0.623  35.33   0
       117    466.0443    848.0100 307.7232495  +6.3274108      497.415       685.84     1194.718     83.75191     168.0398     335.9459      1.520     3.78     1014.543     59.26898     85.00623         5     0.664     0.617  -0.42   0
       118    416.2487    844.5587 307.7440474  +6.3271690     7279.848        11474      11949.7     84.28708     168.1067       336.18      1.702     4.12      1015.44     59.26898     1208.017        32     1.632     0.965  41.93   0
       119    359.5096    842.9990 307.7676651  +6.3259128     11798.03     18824.41     19983.38     83.48305      167.638     335.9793      1.696     4.12     1017.339     59.26898     1913.748        44     1.701     1.037  42.21   0
       120    659.2654    844.6730 307.6431106  +6.3352480     1218.415     1827.506     1451.738     84.42034     168.1736     336.2469      1.721     2.84      1008.62     59.26898     168.0409        10     0.835     0.797  52.93   0
       121    910.3375    838.2280 307.5390454  +6.3462841     5255.461     8300.892     8727.249     83.88603     168.1736     336.2134      1.672     4.34     1001.362     59.26898     949.2293        27     1.642     0.865  43.08   0
       122    677.8981    839.2720 307.6355535  +6.3381001     3436.456     5391.494     5422.505     84.01993     168.3072     336.2803      1.593     3.92     1007.752     59.26898     575.1245        26     1.569     0.881  42.35   0
       123    749.1320    835.4949 307.6060940  +6.3420374     708.3127     976.8528     723.8815     84.15361     168.3072     336.2803      1.351     2.86     1005.976     59.26898      131.021         6     0.956     0.436  59.89   0
       124    652.6900    833.2521 307.6462261  +6.3397436     3140.325      4846.71     4822.848     84.28708     167.9729     336.3806      1.689     4.34     1008.286     59.26898     496.2946        21     1.494     0.838  42.64   0
       125    840.9252    832.2769 307.5680759  +6.3464277     1628.401     2473.577      2803.89     84.55339     168.4407     336.3138      1.596     4.63     1003.413     59.26898     256.3145        16     1.325     0.830  48.06   0
       126    642.7073    831.9506 307.6504162  +6.3399475     964.1634     1645.742     1999.482     84.15361     168.0398      336.414      2.048     4.17     1008.578     59.26898     168.4264        11     1.345     0.636  42.90   0
       127    967.5302    830.8719 307.5155370  +6.3512260     756.1289     798.6427     996.9855     84.42034     168.3072     336.2134      1.218     2.35      999.019     59.26898     167.8608         5     0.711     0.454  67.72   0
       128    645.5561    827.8346 307.6493716  +6.3417420     1986.803      2842.65     3392.813     84.01993     168.1067     336.1131      1.466     4.47     1008.283     59.26898     356.1031        16     1.465     0.715  44.00   0
       129    929.1727    826.0110 307.5316323  +6.3519554     3176.786     4933.937     5149.671     83.88602     167.9729     336.1131      1.598     4.17     1000.179     59.26898     555.3347        23     1.619     0.777  44.01   0
       130    339.2578    826.6266 307.7766290  +6.3319936     1013.947     1676.103      1783.57     83.88603     168.2404     336.0462      1.741     5.93     1017.467     59.26898     191.4785        10     1.498     0.676  57.06   0
       131    523.6145    811.7563 307.7005609  +6.3443042     2966.926     4550.875     4709.786     83.61759     167.9729     335.9793      1.599     4.48     1011.297     59.26898     493.2665        20     1.430     0.841  42.62   0
       132    387.2972    821.9668 307.7568342  +6.3355266     2569.023     4076.352     4078.089     84.28708     168.0398     336.3806      1.633     4.18     1015.791     59.26898     375.3647        22     1.427     0.940  35.09   0
       133    868.3156    810.6478 307.5574258  +6.3562706     1114.123     1578.407     2140.956     84.28708     168.1736     336.2803      1.722     4.91     1002.426     59.26898      208.158        12     1.367     0.729  48.46   0
       134    588.8376    809.5004 307.6735468  +6.3474162     611.5436     1005.514     836.7916     84.28708     168.0398     336.4808      1.626     5.05     1009.111     59.26898     108.6434         6     1.305     0.552  35.99   0
       135    570.4124    807.7286 307.6812593  +6.3475318     5629.005      8805.53     9764.908     83.75191      167.839     336.0462      1.677     4.33     1009.635     59.26898     905.9469        31     1.627     0.941  41.93   0
       136    576.8193    806.9504 307.6786245  +6.3480673     1204.055     1771.046     2227.277     83.75191     168.2404     336.0797      1.545     4.40     1009.356     59.26898     189.1116        11     1.146     0.719  52.59   0
       137    488.0986    806.5893 307.7154864  +6.3452493     1475.336     2272.417     1979.486     84.01992      167.772     336.0462      1.580     4.59     1012.253     59.26898     237.9962        14     1.373     0.728  50.89   0
       138    281.6571    807.5151 307.8011978  +6.3379533     641.8397     823.0825     1026.263     84.28708     168.1736     336.3806      1.248     3.36     1018.368     59.26898     132.3112         5     1.030     0.317  68.88   0
       139    905.9064    805.6725 307.5419791  +6.3595773     1309.521     1738.168     1390.961     84.15361     168.3072     336.3138      1.377     4.23     1000.626     59.26898     246.2979        11     1.223     0.705  52.72   0
       140    129.9377    805.8770 307.8642660  +6.3335394     1244.467     1985.141     2428.411     84.55339     168.2404     336.2469      1.748     5.36     1018.682     59.26898     214.1479        13     1.539     0.620  45.30   0
       141    705.4843    804.0220 307.6252818  +6.3535744     731.5916     1095.289     1574.666     84.15361      167.839     336.1466      1.481     2.51     1005.901     59.26898     132.3954         6     0.755     0.492  81.04   0
       142    541.1672    801.6786 307.6936101  +6.3490518     18565.67      29774.9     31670.31     84.15361     168.1736     336.2469      1.701     4.12     1010.357     59.26898     3045.863        47     1.680     1.060  41.01   0
       143    381.7144    802.9918 307.7597934  +6.3431734     680.8569     1032.292     827.9931     83.88602      167.839     336.0797      1.574     4.66     1015.445     59.26898     91.48389         6     0.918     0.672 -54.07   0
       144    954.8275    799.9164 307.5218522  +6.3635834     3680.256     5666.048     5656.984     84.15361      167.906       336.18      1.623     3.90     998.4535     59.26898     671.0013        24     1.498     0.914  37.01   0
       145    187.3834    801.1577 307.8405671  +6.3374159     565.9349     762.2762     384.4017     83.75191     167.9729     336.0128      1.239     2.14     1018.569     59.26898     129.1046         5     0.708     0.436  67.34   0
       146    426.6407    797.7758 307.7413097  +6.3468312     457.3333     840.3566     1401.869     83.88603     167.9729     336.0128      1.622     3.95      1013.62     59.26898     85.32361         6     1.351     0.331  74.62   0
       147    708.9305    793.6263 307.6242002  +6.3579814       488.45     848.8168     1795.315     83.88602     168.0398       336.18      2.178     4.37     1005.404     59.26898     90.45105         6     1.125     0.483  69.54   0
       148    333.8005    790.4539 307.7801172  +6.3467446     3030.572     4893.896     5081.795     83.48305      167.839     335.7785      1.781     4.28     1016.574     59.26898     454.5355        28     1.768     0.934  49.13   0
       149     51.3443    792.0094 307.8973767  +6.3366247     1309.149     1951.516      1889.34     83.61759     168.1067     335.9459      1.573     4.82     1018.852     59.26898      231.457        14     1.426     0.799  48.71   0
       150    799.2928    786.2241 307.5869161  +6.3640528     54155.21      83173.3     87386.34     84.42034     167.9729     336.0797      1.659     4.08     1002.157     59.26898      9887.66        73     1.716     1.082  43.76   0
       151     33.4307    788.2997 307.9049422  +6.3375542     1975.906     2889.891      3445.86     84.28708      167.906     336.3138      1.721     5.22     1018.948     59.26898     301.1961        17     1.492     0.790  45.57   0
       152    737.2805    787.7580 307.6126222  +6.3613505     736.2766     1105.926     1824.782     84.28708     168.1736     336.2134      1.320     3.47     1004.691     59.26898      142.783         5     0.986     0.504 -33.88   0
       153    256.2363    762.8769 307.8132644  +6.3555295     759085.4      1880489      2126165     84.15361     168.2404     336.2803      2.426     8.77     1017.394     59.26898     63890.09       636     2.836     2.164  70.86   4
       154    442.3656    784.4476 307.7352282  +6.3528601     894.1292     1370.787     1657.678     84.01993     168.1736       336.18      1.680     4.88     1012.723     59.26898     131.3641         7     0.977     0.690  48.36   0
       155    727.3492    780.7119 307.6169843  +6.3639281     21223.91     33916.64     37643.11     84.28708     167.9729     336.3806      1.733     4.29      1004.52     59.26898     3561.367        46     1.793     0.993  45.26   3
       156    721.1929    777.3126 307.6196558  +6.3651260     85082.95     132237.1     139636.5     83.75191      167.839     335.9793      1.655     4.24     1004.429     59.26898     14708.28        79     1.767     1.097  47.39   3
       157    924.5139    781.4522 307.5350634  +6.3701969     8339.938     12641.61     13474.86     84.28708     168.1067     336.3472      1.649     4.14     998.8774     59.26898     1586.755        32     1.589     0.916  41.68   0
       158    366.1271    778.2099 307.7671040  +6.3528825     18922.64     30996.83     32817.27     83.75191      167.772     336.1131      1.735     4.11     1014.909     59.26898     3017.485        51     1.750     1.103  45.19   0
       159    415.4681    778.4110 307.7466036  +6.3544519     1455.395     2321.685     2736.777     83.75192     167.9729     336.0797      1.752     5.29     1013.334     59.26898     202.0988        15     1.402     0.901  34.24   0
       160    428.0021    776.0723 307.7414766  +6.3558371     19991.72     32821.94     34754.41     83.75191      167.772     336.0797      1.725     4.14     1012.874     59.26898     2975.598        50     1.723     1.087  43.70   0
       161    654.4920    777.1777 307.6473654  +6.3629545     761.3116      1162.68     1269.333     84.28708     167.9729     336.0797      1.547     3.38     1005.711     59.26898     125.8304         5     0.790     0.418  65.79   0
       162    965.1009    774.7289 307.5184303  +6.3743245     2018.772     2744.943     2943.003     84.01993      168.374     336.2469      1.381     4.20     997.0271     59.26898     333.4194        23     1.412     1.102  31.80   0
       163    921.5260    772.9250 307.5365908  +6.3736179     6815.966     10421.49     11398.72     84.55339     168.4407     336.3472      1.669     4.16     998.6719     59.26898     1225.938        30     1.635     0.883  44.61   0
       164    662.0485    771.8947 307.6444046  +6.3653880     6031.426     9541.473     9942.122     84.15361     168.0398     336.3806      1.627     4.14     1005.269     59.26898     861.3625        33     1.673     0.964  44.54   0
       165    893.7847    773.2475 307.5481030  +6.3725605     785.1432     1134.945     322.2258     83.61759     168.0398     335.9793      1.490     3.55     999.6893     59.26898     122.7615         6     0.743     0.614  78.06   0
       166    450.9175    769.9783 307.7321642  +6.3591200     1501.954     2570.447     2074.693     84.01993      167.839     336.1466      1.662     4.87     1011.968     59.26898     254.7478        16     1.446     0.875  31.44   0
       167    176.1929    769.0496 307.8463009  +6.3502959     624.2007     850.4968      794.686     83.75191      167.906     335.8455      1.304     4.47     1017.893     59.26898     102.3026         7     1.280     0.445  42.74   0
       168    749.9865    766.3650 307.6080641  +6.3706068     538.6855     906.7983     183.5175     83.75191     167.9729     336.1131      1.509     2.47      1003.27     59.26898     117.8372         5     0.840     0.480   2.60   0
       169    890.3184    763.4817 307.5498708  +6.3764769     546.9153     753.0366     76.56509     84.28708     168.4407     336.3472      1.414     4.10     999.3568     59.26898     136.9366         5     1.250     0.384  33.05   0
       170    614.9706    764.1794 307.6642188  +6.3670005     935.7626      1453.08     1500.841     83.75191     167.9729     336.1466      1.560     3.58     1006.236     59.26898     172.9312         9     1.030     0.648  13.17   0
       171    697.1375    762.0206 307.6301622  +6.3706363     2218.999     3213.096      3266.35     83.88602     168.1736     336.1131      1.594     4.46     1004.122     59.26898     321.9811        18     1.511     0.760  39.79   0
       172    166.3991    762.5038 307.8505900  +6.3526696     987.5883     1486.144     1040.178     83.75192      167.772     335.8455      1.512     4.98     1017.802     59.26898     164.1229         9     1.313     0.624  42.86   0
       173    141.4111    762.6387 307.8609639  +6.3517751     925.3308     1267.537     1167.787     83.75191     167.9729     335.9459      1.430     4.58     1017.842     59.26898     168.1385         8     1.217     0.490  19.43   0
       174    430.9323    758.7000 307.7408457  +6.3631073     48981.89     80339.67     85565.12     84.28708     168.3072     336.2134      1.766     4.13     1012.224     59.26898     7428.622        73     1.779     1.182  41.65   0
       175    548.6952    757.7194 307.6919649  +6.3674522     6483.864     10553.73     10221.26     84.01993     168.4407     336.3472      1.695     4.35     1007.871     59.26898     1083.965        35     1.683     0.999  39.16   0
       176    465.4557    756.3097 307.7265868  +6.3652497     4183.887     6506.137     7510.341     84.15361     168.0398     336.3806      1.707     4.21     1011.027     59.26898     626.4534        29     1.580     0.962  45.97   2
       177    461.9590    749.7892 307.7282591  +6.3678246     2051.099     3400.292     3038.322     83.61759     167.9729     335.9459      1.722     4.65     1010.908     59.26898     320.9034        19     1.515     0.845  46.82   3
       178    793.9045    754.3358 307.5902263  +6.3770384     11093.93     17426.67     18302.41     84.15361     168.3072     336.2803      1.666     4.17     1001.709     59.26898      1928.56        37     1.643     0.958  44.96   0
       179     22.7535    749.7827 307.9106815  +6.3530966     1074.984     1658.523     1690.227     83.75191     168.0398     335.9793      1.611     3.88     1018.132     59.26898     175.7923        10     1.123     0.628  83.05   0
       180    815.5529    748.3732 307.5814345  +6.3802222     1305.265     1831.587     1178.933     83.88603     168.2404     336.1466      1.560     4.47     1000.959     59.26898      263.896        12     1.391     0.586  42.14   0
       181    159.7883    746.5740 307.8538746  +6.3590242     2638.627     4352.376     4685.395     83.88603     167.9729       336.18      1.705     4.28     1017.448     59.26898     383.2224        24     1.604     0.927  46.19   0
       182    151.7083    746.3566 307.8572380  +6.3588427     10687.38     17536.06     18977.12     84.28708     168.1067     336.3806      1.779     4.00     1017.445     59.26898     1564.372        44     1.686     1.103  44.16   1
       183    143.8391    743.7183 307.8605956  +6.3596677     2740.492     4936.107     5389.954     84.28708     168.2404       336.18      1.934     5.28     1017.421     59.26898     411.9332        27     1.661     1.040  39.88   3
       184    143.7704    737.1851 307.8608452  +6.3623625      1800.28     3077.187     3701.314     83.88602      167.906       336.18      1.876     4.20     1017.267     59.26898     265.7371        21     1.455     0.940  44.62   2
       185    939.3715    742.8401 307.5301883  +6.3866333     6460.642     9758.897     10481.95     83.88602      167.906     336.1131      1.593     3.91     996.8301     59.26898     1115.976        30     1.585     0.885  41.81   0
       186    988.5056    742.8363 307.5097787  +6.3882710     1509.967     2273.922     2254.562     84.42034     168.0398     336.3472      1.614     4.99      994.644     59.26898      256.772        15     1.505     0.675  43.16   0
       187    694.7960    740.1917 307.6318694  +6.3795704     1492.198     2510.063     2628.024     83.61759      167.839     336.0797      1.692     5.00     1003.147     59.26898     238.4049        19     1.633     0.848  45.88   0
       188    429.7251    739.5099 307.7419946  +6.3709895     1128.417     1916.512     2024.099     84.28708     168.4407     336.3138      1.759     6.16     1011.632     59.26898     171.1154        16     1.607     0.834  51.07   0
       189    581.8257    739.7397 307.6788094  +6.3759828     2188.712     3412.241     3003.265     83.88602     168.1736     336.1131      1.679     4.57     1006.105     59.26898     333.8368        20     1.497     0.889  37.56   0
       190    994.0434    734.2755 307.5077656  +6.3919898     1916.574     2913.677     2925.265     84.15361     168.2404     336.2803      1.734     4.47     994.0663     59.26898     332.5076        19     1.584     0.760  41.60   0
       191    963.0801    734.3738 307.5206242  +6.3909183     3024.381     4625.711     4426.365     84.15361     167.9729     336.2469      1.589     3.98     995.4251     59.26898     502.6318        20     1.483     0.796  42.83   0
       192    933.6995    734.8198 307.5328136  +6.3897556      3018.11     4677.544     5546.155     84.28708     168.0398     336.0128      1.722     4.11     996.7361     59.26898     554.3495        22     1.596     0.759  44.29   0
       193    685.7476    733.6716 307.6358473  +6.3819601     1475.677     2074.359     2059.011     84.15361     168.1736     336.2803      1.508     3.21     1003.013     59.26898     225.0574        11     1.008     0.735  27.53   0
       194    832.8884    732.1962 307.5747773  +6.3874791     928.8992     1346.933     1163.427     83.75191      167.839     335.9124      1.551     3.25     999.8181     59.26898     191.1919         8     0.938     0.631  56.65   0
       195    908.1435    729.7212 307.5436005  +6.3910093     791.7286     1162.186     1339.328     84.28708     168.1736     336.2469      1.421     2.99     997.3511     59.26898     139.2025         7     0.997     0.477  68.21   0
       196    258.4109    729.0400 307.8135049  +6.3695718     1690.713     2795.416     3321.687     83.61759     167.9729     335.9793      1.722     5.39     1016.341     59.26898     247.7479        16     1.524     0.810  36.60   0
       197    951.0212    724.5850 307.5259620  +6.3945582     1183.086     1601.601     1063.733     84.01992      167.906     336.1466      1.473     5.43     995.6151     59.26898     181.4257        12     1.196     0.752  38.89   0
       198    278.3132    724.5159 307.8053913  +6.3721069     701.1603     1089.432     578.1055     84.01993      168.374     336.2803      1.696     4.18     1015.991     59.26898     105.4657         5     0.983     0.507  43.38   0
       199    925.0674    723.3957 307.5367829  +6.3941847     1038.951      1609.74     1455.189     83.61759      167.839     336.0128      1.483     4.95     996.5862     59.26898     196.9111        10     1.305     0.532  45.35   0
       200    977.9171    722.0623 307.5148742  +6.3964953      2521.07     3561.156     3854.551     84.42034     168.1736     336.2134      1.374     3.80     994.3676     59.26898     486.2302        19     1.447     0.720  43.82   0
       201    696.7173    720.6358 307.6317295  +6.3877083     960.6483     1583.841     2153.621     84.28708     168.1067     336.2134      1.728     2.70     1002.202     59.26898     190.5911         9     0.917     0.663  80.24   0
       202   1019.6885    715.3601 307.4977474  +6.4006529     1655.288     2683.981     2862.146     84.28708     168.1067     311.5362      1.732     4.04     992.4114     59.26898      342.172        16     1.377     0.850  43.55  16
       203    645.6874    714.9896 307.6531165  +6.3883350     702.6415     881.1386     1422.609     83.88602      167.906     336.0797      1.417     4.44     1003.171     59.26898     116.9437         5     0.977     0.574  18.50   0
       204    821.1290    714.0646 307.5802715  +6.3945728     1109.783      1613.98     2361.297     84.28708     168.2404     336.2469      1.767     5.16     999.4413     59.26898      214.079        10     1.290     0.584  29.00   0
       205    907.3281    711.4716 307.5445521  +6.3985167     1381.536     2225.783     2872.151     84.55339     168.3072     336.1466      2.103     4.54     996.6599     59.26898     287.7942        14     1.557     0.591  41.62   0
       206    881.6818    706.5816 307.5553698  +6.3996809     911.6201     1619.178     2274.172     83.88603      167.839       336.18      1.856     4.07     997.2914     59.26898     195.9299         9     1.282     0.555  13.49   0
       207    864.0531    702.8300 307.5628187  +6.4006422      1417.53     2159.195     1923.742     84.01993     168.2404       336.18      1.489     4.48     997.7216     59.26898     240.8241        14     1.282     0.767  44.32   0
       208    127.2486    700.4697 307.8689500  +6.3769654      886.076       1751.3     1544.965     84.28708     168.1067     336.2803      1.862     6.52     1016.217     59.26898     138.4932        14     2.091     0.570  70.09   0
       209     63.4036    701.7609 307.8954245  +6.3742878      2214.84     3599.098     4408.188     83.34829      167.906     336.0128      1.806     4.48     1017.241     59.26898     341.4534        20     1.517     0.815  48.77   0
       210    475.9007    700.8474 307.7241190  +6.3884968     538.6942     875.4709     805.2128     84.28708     168.0398     336.4474      1.697     3.85     1008.301     59.26898     90.22681         5     0.989     0.430  46.44   0
       211    676.1341    690.2690 307.6413016  +6.3995581     5874.051     9434.267     10115.47     84.28708     168.2404     336.2469      1.711     4.25     1000.931     59.26898     861.6519        30     1.629     0.962  39.79   0
       212    622.8842    689.5178 307.6634464  +6.3980893     1369.287     2364.196     2906.506     84.01992     168.4407     336.3138      1.897     5.78     1002.921     59.26898     199.9434        19     1.488     1.074  36.87   0
       213   1012.9120    685.5215 307.5015635  +6.4127467     2707.426     4040.598     4213.531     84.01992     168.4407     336.3806      1.586     3.61     991.8823     59.26898     482.5324        21     1.587     0.769  35.45   0
       214    649.6403    685.9174 307.6524534  +6.4004698     1817.174     3165.391     3568.545     84.28708     168.2404       336.18      1.931     5.23     1001.676     59.26898     274.3519        19     1.586     0.884  48.75   0
       215    139.1292    686.1763 307.8644991  +6.3832652     3437.673     5646.872     5646.614     83.88602     168.0398       336.18      1.674     4.55      1015.48     59.26898     545.1519        27     1.649     0.916  41.24   0
       216    792.9165    682.3082 307.5930585  +6.4067427     19356.69     30187.65     31706.65     84.01992     168.5075     336.3806      1.638     3.95     998.6185     59.26898     3270.725        49     1.676     1.020  42.06   0
       217    325.7451    685.5941 307.7870048  +6.3897656     621.2409     925.7606     721.6097     83.75191      167.906     335.9124      1.562     3.37     1012.904     59.26898     94.40387         5     0.743     0.442  21.08   0
       218    491.6926    682.4443 307.7181801  +6.3966230     1480.706     2120.991     2022.812     84.28708     168.1067     336.3806      1.596     4.69     1007.003     59.26898     216.5499        15     1.143     1.056  14.36   0
       219    922.8314    681.9596 307.5391032  +6.4112176     3615.945     5275.947     5076.328     83.88602     167.9729     336.1131      1.455     4.18     995.0107     59.26898     638.4941        20     1.391     0.764  42.56   0
       220    520.5195    682.2718 307.7062116  +6.3976586     799.9594     1254.081     1126.654     84.55339     168.4407     336.2803      1.677     3.82     1006.187     59.26898     155.8286         8     1.041     0.760  47.96   0
       221    337.7382    681.9174 307.7821474  +6.3916854     683.6534     1030.589     979.0667     84.42034     168.1736     336.2134      1.750     5.19     1012.493     59.26898      96.9317         7     1.032     0.737  20.46   0
       222    293.8431    681.6186 307.8003903  +6.3903375     681.3226     859.1477      473.508     83.75191     168.0398     336.0128      1.533     3.39     1013.517     59.26898     101.1699         5     0.748     0.444  19.09   0
       223    266.3230    675.9199 307.8120140  +6.3917674     5596.297     9097.972      9680.24     84.55339     168.4407      336.414      1.690     4.17     1013.601     59.26898     830.4178        36     1.701     1.017  42.91   0
       224    673.4607    675.1182 307.6429222  +6.4057239      6706.35     10559.86     11350.13     84.42034     168.1736     336.2469      1.685     4.09     1000.192     59.26898     1036.762        35     1.613     1.021  40.49   0
       225    655.3943    675.7964 307.6504041  +6.4048404     847.7045     1221.222     1396.014     83.61759      167.839     336.0797      1.614     5.16     1000.998     59.26898     120.8644        10     1.121     0.671  49.14   0
       226    368.1622    674.3174 307.7697666  +6.3958424     736.6613         1155     1378.772     84.28708     168.1067     336.2134      1.592     4.04     1011.123     59.26898     138.0145         6     1.164     0.400  32.90   0
       227    933.0523    667.7143 307.5353357  +6.4174394     1152.617     1898.637     1865.173     84.28708     168.1067     336.3472      1.641     4.23     994.1307     59.26898     217.1232        12     1.237     0.710  47.50   0
       228    745.0187    663.4471 307.6135897  +6.4129315       3383.7     5612.927     5983.033     83.75191     168.1736     336.0462      1.766     3.84     999.0184     59.26898     500.8348        32     1.700     1.003  47.98   0
       229    700.2892    663.8395 307.6321573  +6.4112763     964.7023     1309.147     1383.401     84.28708     168.1736     336.2803      1.357     4.06     999.5745     59.26898     174.1082         9     1.127     0.689  34.78   0
       230   1011.4223    660.1336 307.5030342  +6.4231788     9095.272     13521.46     14012.98     83.88602     168.1736     336.1466      1.579     4.10     991.4081     59.26898     1740.636        34     1.664     0.846  39.53   0
       231    949.7048    660.4991 307.5286603  +6.4209729     2378.596     3459.945     3350.837     84.28708     168.7075     336.0797      1.475     3.49     993.3261     59.26898     479.3052        18     1.360     0.724  37.94   0
       232     10.4676    661.9890 307.9187589  +6.3889279      701.438     1129.955     1156.077     83.75191     167.9729     336.0797      1.659     4.97      1017.87     59.26898     96.18854         7     0.953     0.734 -24.70   0
       233     30.4670    659.9261 307.9105219  +6.3904518      1792.57     2980.504     4017.472     84.42034     168.3072     336.2134      2.158     5.23     1017.437     59.26898     274.7831        21     1.596     0.959  27.45   0
       234    563.8769    657.7730 307.6890272  +6.4092230     726.7665     1169.993     1199.925     84.15361     168.1067     336.2134      1.895     5.44      1003.82     59.26898     126.9313         8     1.199     0.696  39.00   0
       235    550.1614    656.0118 307.6947839  +6.4094914       1932.5     3420.123     3868.419     83.75191     167.9729     335.9459      1.934     5.12     1004.231     59.26898     291.1018        23     1.686     0.917  39.95   0
       236     88.8369    655.0005 307.8864440  +6.3944467     22486.99     38224.03     41068.08     83.34829     167.9729     336.0462      1.790     4.00     1015.976     59.26898      3179.36        59     1.809     1.154  45.33   0
       237    518.5084    652.8057 307.7080405  +6.4097564     1225.244      1823.37     1814.172     83.88603      167.839     336.0128      1.687     3.17     1005.129     59.26898     193.8096        11     0.957     0.846  -2.59   0
       238    939.3690    651.8546 307.5332442  +6.4241977     1075.817     1209.863     834.1816     84.15361     168.2404     336.2134      1.095     2.85     993.4143     59.26898      206.787         9     0.959     0.606  60.62   0
       239    558.5803    649.1958 307.6915165  +6.4125870     1019.124      1266.33     1209.778     83.88603      167.839     336.0462      1.403     4.44     1003.559     59.26898     134.4598        10     0.918     0.830  38.68   0
       240    734.7922    647.2197 307.6183839  +6.4192898     3142.125     5148.521     5368.343     83.88602      167.906     336.0462      1.694     4.32     998.7049     59.26898     516.2171        24     1.573     0.881  46.52   0
       241    756.8942    645.4531 307.6092619  +6.4207568     3860.244     5787.194     6523.711     84.15361     168.1067     336.5142      1.630     3.81     998.1858     59.26898     659.7302        26     1.690     0.868  39.84   0
       242    588.1954    643.4264 307.6794088  +6.4159590     3045.108     4810.788     4579.859     83.75191     167.9729     336.0797      1.689     3.77     1002.261     59.26898     471.9486        26     1.602     0.918  42.63   0
       243    424.1043    643.5158 307.7475689  +6.4104324     1327.814     2040.824     2070.258     84.28708     168.5742     336.3472      1.621     4.79     1007.463     59.26898     179.5159        14     1.202     0.853  34.23   0
       244    995.0626    640.4929 307.5104894  +6.4307431     8169.775     12317.55     12090.49     84.28708     168.1736     336.3138      1.575     4.21     991.5551     59.26898     1463.347        31     1.597     0.871  38.18   0
       245    332.1138    642.2882 307.7858223  +6.4078577      1352.53      1781.17      1658.06     84.01993     168.4407     336.3806      1.425     3.65     1010.509     59.26898     193.7018        13     1.132     0.771  66.86   0
       246    248.7475    642.6843 307.8204380  +6.4048991     1593.211      2566.55      2409.44     84.28708     168.1067     336.3472      1.749     4.55     1012.883     59.26898     214.3142        16     1.344     0.823  34.86   0
       247    548.6081    641.1358 307.6959306  +6.4155811     517.3485      927.541     748.8175     83.75191      167.906     336.0797      1.570     3.48     1003.507     59.26898     82.24561         5     0.776     0.451 -72.82   0
       248    714.5665    639.0049 307.6270622  +6.4220061     992.5365     1416.018     1796.625     83.48305     168.0398     336.0128      1.506     4.56     998.6474     59.26898     131.4183        10     1.061     0.772  45.19   0
       249    153.5884    633.9589 307.8602603  +6.4053081     21171.96     35753.12     38066.49     83.61759     167.9729     335.9459      1.805     4.18     1014.088     59.26898     3024.506        55     1.755     1.176  44.64   0
       250    440.3152    635.0372 307.7411211  +6.4144755     2562.563     4263.512      4367.83     84.28708     168.1736     336.2134      1.746     4.65     1006.901     59.26898     326.0908        22     1.545     0.886  46.25   0
       251    821.7007    634.3340 307.5827143  +6.4275093     992.4325     1454.559     1392.857     84.28708     168.3072     336.2134      1.629     4.81     996.4857     59.26898     193.0183        10     1.376     0.598  45.34   0
       252    372.8866    628.6956 307.7693447  +6.4148355      725.561     1058.837      1230.98     84.28708     168.5742     336.3138      1.984     5.33     1008.541     59.26898     99.42944         7     1.305     0.615  60.45   0
       253    989.9419    623.4117 307.5131900  +6.4376248      6951.94     10910.83     12004.67     83.61759     168.1067     335.9459      1.647     4.19     991.3621     59.26898     1144.555        33     1.777     0.837  42.94   0
       254    583.5795    618.7635 307.6821573  +6.4259869     43233.63     71554.44     76501.17     83.88603      167.906     335.9793      1.786     4.25     1001.297     59.26898     6485.447        70     1.779     1.188  42.58   0
       255    947.9595    620.5293 307.5307274  +6.4374168     634.3895     796.2714      679.692     84.15361     168.1736     336.3138      1.399     4.11      992.223     59.26898     135.0598         6     1.380     0.349  46.09   0
       256    226.5320    619.5007 307.8304499  +6.4137251     625.0732     1161.927     2129.469     84.28708     168.3072     336.2134      1.958     5.03     1013.212     59.26898     72.37933         6     0.970     0.737  78.71   0
       257    541.9810    618.4289 307.6994490  +6.4247341     704.0256     1135.017     1255.795     83.88602     167.9729       336.18      1.539     4.44      1002.61     59.26898     102.7991         6     0.843     0.666 -23.49   0
       258    191.1737    615.4103 307.8452757  +6.4142273     2438.473     4310.456     4419.441     83.88602     167.9729     336.1131      1.929     4.60     1013.533     59.26898     343.3431        25     1.566     1.001  42.35   0
       259     34.1602    622.2268 307.9102651  +6.4061395      1094.34     1609.698     1506.621     83.88602     167.9729     336.0797      1.634     3.23     1017.154     59.26898      201.802        11     0.960     0.847  87.84   0
       260     83.6900    609.4316 307.8901250  +6.4130863     1249.935     1791.536     1744.887     84.42034     167.9729     336.2469      1.528     4.23      1014.84     59.26898     204.0415        12     1.219     0.806  35.17   0
       261    480.8530    602.5524 307.7253775  +6.4292437     55406.32     92604.57     99069.59     84.42034     168.1736     336.2803      1.816     4.21     1004.966     59.26898     7929.931        80     1.836     1.226  43.14   0
       262     24.2765    603.8940 307.9149917  +6.4133757     1584.901     2771.193     2837.282     84.01993      168.374     336.2469      1.745     4.41     1017.475     59.26898     229.3643        17     1.429     0.848  39.29   0
       263    666.2991    599.5490 307.6484415  +6.4366838     783.2168     1151.027     1112.371     84.28708     168.1736     336.4808      1.300     2.72     998.1206     59.26898     119.3654         5     0.694     0.475 -16.99   0
       264    154.9077    596.9333 307.8609653  +6.4206380     1545.857     2433.126     2408.706     84.15361      168.374     336.2803      1.722     3.99     1013.536     59.26898      261.578        13     1.118     0.929  63.69   0
       265    626.7385    594.1777 307.6650567  +6.4375797     791.0325     1193.278     921.1887     83.88602     168.1736     336.1466      1.597     5.29     998.9887     59.26898      136.974         8     1.347     0.586  50.20   0
       266    434.3474    594.6058 307.7449646  +6.4309678     868.1888     1361.115     1383.135     83.75191      167.906     335.9124      1.799     3.21     1005.598     59.26898     120.9556        10     0.868     0.811  67.35   0
       267    326.1569    591.8582 307.7900004  +6.4284779     1931.302     3597.713     4299.646     84.15361     168.1067     336.3138      2.000     4.90     1007.955     59.26898     303.9242        24     1.602     1.033  53.02   0
       268    752.8958    586.0123 307.6129226  +6.4451639     4780.785     7456.278     7587.591     84.01993      167.906     336.0128      1.621     4.13     996.5162     59.26898     718.2441        27     1.637     0.885  44.17   0
       269    806.4285    581.3368 307.5908406  +6.4488804     13391.08     21057.63     21865.55     83.88603     168.1736       336.18      1.705     4.32     995.4645     59.26898     2259.871        44     1.685     1.026  42.47   0
       270   1023.1554    581.6780 307.5007924  +6.4559608     902.6486     1104.572     1030.738     79.48234     141.7706     262.0306      1.112     2.63     987.9912     59.26898     196.5549         7     0.824     0.556  42.43  24
       271    548.7379    581.2009 307.6978971  +6.4403297     1221.848     2006.009     2185.047     83.48305     167.9729     335.9124      1.743     4.12     1001.028     59.26898     165.6517        15     1.200     0.931  13.82   0
       272    630.4177    579.3773 307.6640269  +6.4438131     2676.594     4508.425     4433.028     84.01993     168.0398       336.18      1.787     4.78     998.3563     59.26898       377.91        26     1.682     0.964  41.10   0
       273    947.5814    575.5325 307.5323954  +6.4559817     1126.604      1829.95     1982.176     83.88603     168.1067     336.1466      1.854     5.08      989.972     59.26898     199.5922        11     1.414     0.515  40.24   0
       274    242.9556    572.9483 307.8252018  +6.4334948     1291.744     2391.782     2921.324     84.42034     168.1067     336.2803      2.129     5.34     1010.114     59.26898     181.3021        17     1.561     0.902  53.08   0
       275    389.3893    573.6393 307.7643485  +6.4381182     778.2187     1397.321     1658.571     83.61759     167.9729     335.9793      1.953     3.78     1005.183     59.26898     150.8504         8     1.202     0.601  54.87   0
       276    882.3274    564.5465 307.5598737  +6.4583431     2735.115     4007.674     4792.747     84.15361     168.1067     336.2134      1.576     4.04     991.9352     59.26898     498.2054        16     1.398     0.731  40.00   0
       277    177.3521    563.8318 307.8527621  +6.4350571     524.9501     1054.432      1623.33     84.01992     168.1736       336.18      2.132     3.96     1012.053     59.26898     97.89124         6     1.056     0.424  76.88   0
       278    841.1601    562.0208 307.5770612  +6.4580135     2380.487     3713.373     3392.159     83.88602     167.9729     336.0128      1.620     4.56     993.4863     59.26898     368.3901        19     1.532     0.762  35.03   0
       279    269.2699    556.9914 307.8148101  +6.4409651     6758.089     11419.96     12274.07     83.75191      167.772     336.1131      1.805     4.20     1008.532     59.26898       938.62        36     1.731     1.072  42.84   0
       280    821.8286    553.2708 307.5853866  +6.4609813     146492.5     234006.9     248231.3     84.01992     168.1736     336.2134      1.701     4.01     994.0166     59.26898     24025.07       112     1.819     1.177  43.09   0
       281    811.9808    557.9639 307.5893199  +6.4587153     2369.614     3902.619     5097.374     83.75191     167.9729     336.0128      1.925     3.58     994.6227     59.26898     427.2433        25     1.562     0.975  32.51   0
       282    754.8281    558.1971 307.6130557  +6.4567121     623.5808      1200.64     1867.853     83.75191      167.906     336.0462      2.261     5.38     995.7112     59.26898     119.5905         7     1.173     0.697  17.30   0
       283    203.4495    551.5411 307.8423369  +6.4410071     50989.59     86431.28     94365.66     84.28708     168.1736     336.3138      1.878     4.25     1010.336     59.26898     7018.161        92     1.890     1.327  44.59   0
       284    872.9524    554.7545 307.5640975  +6.4620734     571.7961     811.6962     703.5306     84.28708     168.0398     336.2469      1.595     4.32     991.7896     59.26898     83.84662         5     1.020     0.521  35.47   0
       285    127.4862    547.8302 307.8740182  +6.4399889     5465.529     9357.637     10337.28     84.42034      167.906     336.1466      1.860     4.15     1013.105     59.26898     826.4443        35     1.691     1.083  39.80   0
       286    992.8726    545.3207 307.5145935  +6.4699633     1231.608     2101.113     2379.418     84.55339     168.4407     336.2469      1.856     5.69     986.0176     59.26898     221.8701        15     1.757     0.658  49.03   0
       287    858.4171    540.4200 307.5706180  +6.4675069     4351.796     6871.871     7654.117     84.01993     167.9729     336.1466      1.728     4.06     991.7514     59.26898     767.9848        30     1.614     0.936  39.93   0
       288    178.5795    537.3857 307.8531471  +6.4460163     1705.559     2504.758     3295.228     84.01993      167.839     336.1466      1.651     4.15     1010.896     59.26898     241.9456        20     1.335     1.006  51.47   0
       289    466.8125    537.6473 307.7334000  +6.4555699     589.3096      747.165     1106.979     83.61759     168.0398     335.9793      1.524     3.43      1001.67     59.26898     84.03796         5     0.766     0.445  16.25   0
       290    812.3165    533.9375 307.5899884  +6.4686460     5288.544      8390.55     8156.089     84.42034     168.2404     336.2134      1.686     4.19     993.7335     59.26898     856.4699        31     1.620     0.962  41.18   0
       291    543.1735    533.5142 307.7018165  +6.4598311     5895.231     9580.856     9859.716     84.42034      167.906     336.1131      1.743     4.27      999.619     59.26898     785.3049        32     1.601     1.025  40.16   0
       292    253.7393    535.1425 307.8220005  +6.4494644     769.2925     1133.085     46.96349     84.42034     168.1067     336.2803      1.689     5.82     1007.727     59.26898     106.2581        12     1.628     0.586  42.70   0
       293    116.3103    534.7410 307.8791039  +6.4450172     815.1636     1306.868      1577.43     84.15361     168.1736     336.3806      1.876     4.91     1012.987     59.26898     108.9993         9     1.207     0.565  49.04   0
       294    401.3714    529.9865 307.7608448  +6.4565415      1103.95     1751.752     2190.131     83.88602      167.906     336.1466      1.816     5.50     1002.521     59.26898     132.8724        15     1.410     0.814  40.42   0
       295    190.2327    526.7388 307.8486664  +6.4508029     5781.535     9992.528     10600.36     84.01993     168.2404       336.18      1.855     4.35     1009.862     59.26898     855.4703        38     1.773     1.072  45.27   0
       296    828.7031    526.2991 307.5834374  +6.4723460     1286.613     2014.459     2771.921     84.28708     168.7075     336.0797      1.774     5.04     992.5498     59.26898     198.7742        13     1.448     0.773  39.35   0
       297    587.8696    526.5927 307.6834813  +6.4641833     2043.613     3839.669     4065.223     83.75191      167.772     336.1466      1.988     5.36     997.7651     59.26898     259.7324        24     1.582     1.120  20.04   0
       298    285.4433    523.1985 307.8092338  +6.4554587     73985.19     128255.3     139011.5     83.61759      167.839     335.8789      1.868     4.13     1006.194     59.26898     9418.559        92     1.890     1.301  43.39   0
       299     61.8728    525.3418 307.9020359  +6.4470685     4433.988     7460.661     7675.451     84.42034     168.1736     336.2134      1.849     4.56     1014.758     59.26898     655.6493        32     1.760     0.986  42.17   0
       300    376.8862    538.6436 307.7707243  +6.4521472     14615.34     25313.01     27055.73     84.28708     168.0398     336.2469      1.888     4.29     1003.539     59.26898     1973.008        52     1.824     1.187  46.59   0
       301    574.6854    520.6415 307.6891592  +6.4661994     799.0246     1300.953     2069.217     84.28708     168.1067     336.2469      1.819     5.08     997.9956     59.26898     133.4105         8     1.135     0.643  40.32   0
       302    269.3178    518.5114 307.8160911  +6.4568530     1412.172     2421.281     2343.984     84.01993      168.374     336.3138      1.827     5.05     1006.443     59.26898     208.9114        18     1.537     0.882  46.17   0
       303    984.8291    516.7451 307.5188945  +6.4814932     1632.629     2304.527     2432.373     84.01993     168.2404     336.1466      1.367     3.80     985.5436     59.26898     288.5093        14     1.277     0.676  39.51   0
       304    808.5518    515.6409 307.5921678  +6.4760743      15185.8     24034.56     25226.84     84.15361     168.1067     336.1131      1.711     4.06      992.999     59.26898     2547.614        46     1.679     1.062  39.99   0
       305    512.1951    514.0010 307.7153442  +6.4668509     35655.67     63178.81     70198.66     83.61759      167.705     336.0128      1.934     4.25     999.3151     59.26898     4543.368        81     1.963     1.345  36.45   0
       306    662.5403    512.2614 307.6529424  +6.4725954     812.8842      1400.58     1121.716     84.28708     168.1736     336.2803      1.783     4.94     995.8161     59.26898     130.1941         9     1.339     0.516  36.03   0
       307    224.7197    510.4831 307.8348897  +6.4586713     1648.604     3127.478     3825.165     84.28708     168.4407     336.3138      2.255     6.42      1007.56     59.26898     221.4494        25     1.943     0.892  53.15   0
       308     59.9724    510.4251 307.9033307  +6.4531628     1231.079      1872.17     1678.554     83.75191     167.9729     336.1131      1.602     3.73     1014.523     59.26898     193.8083        10     1.114     0.683  58.84   0
       309    682.2856    508.9860 307.6448495  +6.4746072     1253.224     1970.744     2025.234     83.88602      167.906     336.1466      1.578     5.06     995.2668     59.26898     205.1949        13     1.382     0.688  49.36   0
       310    671.8571    508.9002 307.6491850  +6.4742943     2769.576     4288.155     4568.029     84.01992     168.1736     336.4808      1.599     4.48     995.5988     59.26898     364.7836        20     1.422     0.893  35.54   0
       311    734.3922    507.9659 307.6232360  +6.4767683      1225.39     2248.327     2363.008     83.75191     167.9729     336.0128      1.933     5.00     993.3843     59.26898      199.171        15     1.513     0.752  40.81   0
       312    409.9398    504.6676 307.7581401  +6.4672813     1522.089     2484.434     2422.248     84.42034     168.1067     336.2469      1.734     4.39     1001.281     59.26898     201.6777        18     1.367     0.927  37.56   0
       313    341.3976    502.8909 307.7866750  +6.4657184     3229.389     5329.122     5335.766     83.61759      167.839     335.9793      1.796     4.31     1003.234     59.26898      424.527        28     1.623     1.014  42.52   0
       314    156.5471    501.5482 307.8635125  +6.4600717     22404.79     38178.02     41286.74     84.42034     168.0398     336.2803      1.868     4.23     1010.088     59.26898     3012.834        61     1.815     1.240  44.29   0
       315    884.2693    501.6360 307.5611809  +6.4843811     1475.528     2285.713     2468.216     84.15361     168.2404     336.3472      1.696     4.19     989.1486     59.26898     276.1719        15     1.350     0.819  59.02   0
       316    521.0848    502.2906 307.7120459  +6.4719830     1792.783     2972.974      3057.28     84.01992     168.5075     336.3806      1.730     4.58     998.4883     59.26898     274.7043        20     1.449     0.909  35.52   0
       317    121.7943    499.9193 307.8780047  +6.4595771     2175.234     4023.293     4101.653     83.88602      167.705     335.9793      1.964     5.17     1011.578     59.26898     295.3538        22     1.524     1.002  39.87   0
       318      1.8396    499.5284 307.9278490  +6.4557070     1684.004     2572.651     2810.876     79.48234     141.7706     262.0306      1.629     4.15     1016.806     59.26898     320.8433        16     1.324     0.842  63.56  26
       319    358.1460    498.2543 307.7798737  +6.4681938     1033.723     1593.632     1747.006     84.55339     168.1736     336.2469      1.639     4.85     1002.567     59.26898     148.2207        14     1.257     0.945  47.30   0
       320    982.0584    496.0862 307.5207392  +6.4899302     4920.264     7353.612     8034.579     84.28708     168.1736     336.3806      1.542     4.06     985.0129     59.26898     881.6293        26     1.567     0.851  47.04   0
       321     20.8425    485.8402 307.9204189  +6.4619969     21643.21     37027.62     39976.76     84.01992     168.1736     336.1131      1.841     4.30     1015.714     59.26898     2880.261        61     1.843     1.199  44.60   0
       322    554.9279    488.1666 307.6984621  +6.4789461     1076.842     1571.104     1644.811     84.15361     168.1736     336.2134      1.454     4.86     997.1971     59.26898     142.9442        10     1.116     0.626  27.29   0
       323    453.5272    482.6672 307.7407746  +6.4778236     36363.82     61722.78     66633.06     84.42034     168.3072     336.2134      1.862     4.12     998.9451     59.26898     4799.107        72     1.845     1.260  44.14   0
       324      3.4881    480.1352 307.9278216  +6.4637686     167213.3     281856.8     299769.5     84.28708     161.9074     287.6738      1.810     4.19     1016.362     59.26898     24070.49       109     1.882     1.278  48.18  24
       325    661.5095    482.3881 307.6543768  +6.4848943     10687.15     17474.02        18670     84.01993      167.839     336.0462      1.795     4.21     995.1539     59.26898     1476.896        43     1.733     1.078  43.01   0
       326    301.5292    482.9368 307.8039121  +6.4726199     870.6459     1626.323     1891.156     84.28708     168.1736     336.3138      2.251     6.10     1003.077     59.26898     140.4185        11     1.428     0.733  43.93   0
       327    995.5137    480.8125 307.5156616  +6.4966841     1009.944     1518.604     1803.562     83.88603     168.0398     336.1131      1.641     6.37     984.0485     59.26898     176.6578        12     1.751     0.651  42.31   0
       328    218.7451    480.2798 307.8383934  +6.4709400     16190.03     28793.26     31094.71     84.42034     168.1736     336.2803      1.935     4.46     1006.727     59.26898     2221.281        57     1.927     1.221  41.89   0
       329    183.9785    481.1318 307.8528077  +6.4694214      1429.52      2251.75     1634.212     83.88602     168.1067       336.18      1.619     4.97     1007.968     59.26898     190.6147        15     1.233     0.932  57.69   0
       330    924.2313    480.0996 307.5453016  +6.4946043     747.6915     964.9675     1030.211     84.28708      167.906      336.414      1.622     4.62     986.5878     59.26898     150.8262         8     1.386     0.438  37.96   0
       331    583.2444    479.1146 307.6870030  +6.4836301      2432.51     4272.798     4323.817     84.28708     168.0398     336.2134      1.835     5.18     996.3351     59.26898     349.2357        25     1.644     0.958  44.40   0
       332    834.9000    479.7686 307.5824273  +6.4917632     687.8665     1078.946      1251.96     84.28708      167.906      336.414      1.548     3.18     990.2385     59.26898     117.3173         6     0.746     0.573  46.58   0
       333    957.1797    476.3193 307.5317393  +6.4972627     4424.876     6806.706     6998.824     84.01993      167.839       336.18      1.631     3.97     985.2126     59.26898     807.7932        27     1.563     0.909  43.98   0
       334    630.2776    474.7267 307.6676105  +6.4870138     5847.901     9958.439     10205.94     84.55339     168.4407     336.2803      1.822     4.39     995.3536     59.26898      831.141        36     1.736     1.056  40.44   0
       335    118.2188    475.4594 307.8803183  +6.4695550     1158.363       2045.6     2771.764     83.88603     168.0398     336.0462      1.979     6.43     1010.899     59.26898     144.6829        14     1.544     0.757  40.90   0
       336    979.7908    468.5210 307.5226068  +6.5012353     3171.634     5040.656     5271.119     83.88603      167.772     336.0797      1.683     4.12     984.0342     59.26898     627.9633        25     1.607     0.835  42.55   0
       337    388.4748    466.0197 307.7683626  +6.4825180     2291.415     3584.086     3617.281     83.88602     168.0398       336.18      1.708     3.80     1000.122     59.26898     312.3599        20     1.406     0.930  63.84   0
       338    542.5549    465.9858 307.7043504  +6.4876897     6273.669     10646.95     11645.29     83.61759     167.9729     336.0128      1.825     4.30     996.2541     59.26898     859.6602        37     1.711     1.083  43.23   0
       339    111.3689    465.1673 307.8835124  +6.4735738     579.6608     947.6919     934.7604     83.75191      167.906     335.9459      1.583     3.44       1010.9     59.26898     86.67542         5     0.769     0.446  72.86   0
       340    899.0436    461.8112 307.5563809  +6.5013155     3024.352     4735.857     5405.021     83.75191     168.0398     335.9459      1.658     3.93     986.9467     59.26898     498.5383        25     1.609     0.890  43.42   0
       341    246.3660    460.2286 307.8275968  +6.4801447     590.0897     782.8894      954.829     83.75191      167.906     336.0128      1.583     4.37     1004.387     59.26898     94.68512         5     1.142     0.476 -85.97   0
       342    945.7670    455.4824 307.5371809  +6.5054852     1162.869     1946.375     1980.653     84.28708     168.1067     336.1466      1.868     5.47     984.7831     59.26898     197.7915        16     1.597     0.772  40.13   0
       343    906.2822    456.0785 307.5535660  +6.5039236     2187.876     3364.013     3324.134     84.42034     168.4407      336.414      1.570     4.07      986.439     59.26898     414.2969        19     1.403     0.892  49.39   0
       344    730.4760    452.1811 307.6267406  +6.4996686     2756.311     4663.853     5008.752     83.75191      167.906       336.18      1.772     4.03     991.5816     59.26898     406.7598        25     1.501     1.051  40.28   0
       345    401.2239    450.3328 307.7635957  +6.4894213     3110.808     5380.881     5741.188     83.88603     168.1067       336.18      1.836     4.58     998.8988     59.26898     444.2923        30     1.666     1.059  41.37   0
       346     92.3093    450.9677 307.8919113  +6.4787956     1732.319      3062.96     3123.505     84.42034     167.9729     336.2803      1.871     4.82     1011.316     59.26898     254.0933        22     1.594     0.981  45.61   0
       347    441.2532    450.1607 307.7469710  +6.4908329     1091.682      1689.81     1648.499     84.15361     168.1736     336.2469      1.658     4.51     997.7193     59.26898     135.2016        12     1.029     0.907  41.08   0
       348    629.0349    446.9480 307.6690627  +6.4984408     8697.852      14281.5     14764.58     84.15361     168.1736     336.1466      1.727     4.18      993.912     59.26898     1109.131        38     1.742     1.023  42.84   0
       349    791.7035    443.5431 307.6015926  +6.5052783     15079.34     23943.79     25564.08     84.15361     168.1067     336.4808      1.723     4.07     990.3231     59.26898     2388.071        40     1.665     1.015  41.04   2
       350    795.2375    438.6730 307.6002881  +6.5074069     1369.604       2311.9     2237.303     84.15361     168.1736     336.3138      1.926     4.60     990.0897     59.26898      227.327        16     1.312     0.949  40.73   3
       351    311.3570    443.5970 307.8011588  +6.4891905     2396.465     4010.535     4105.728     83.61759      167.705     335.8789      1.833     4.54      1000.77     59.26898     319.1907        25     1.577     1.005  39.37   0
       352    394.2080    440.2904 307.7668496  +6.4933322     1379.949     2439.002     3031.501     83.88602      167.839     336.0128      2.010     5.46     998.4677     59.26898     161.7141        22     1.565     1.066  46.03   0
       353    820.6638    440.5196 307.5896619  +6.5074927     1217.252     1831.854     1464.063     84.55339     168.2404     336.2134      1.706     3.99     989.2272     59.26898      229.736        12     1.284     0.718  29.75   0
       354    976.8473    438.3984 307.5248412  +6.5135737     2076.585     3300.688     3497.706     83.61759      167.839      335.812      1.656     4.91     982.6776     59.26898     352.6501        17     1.526     0.705  37.40   0
       355    129.2993    435.3274 307.8770739  +6.4864951     3850.509     6396.546      7272.77     84.01993     168.3072     336.2469      1.784     4.91      1008.83     59.26898     503.5551        30     1.681     0.999  39.66   0
       356    767.3506    434.4399 307.6120171  +6.5082240     2110.848     3281.907      3292.97     84.28708     168.1736       336.18      1.715     4.86      990.543     59.26898     341.2566        18     1.475     0.804  34.35   0
       357    287.3592    432.5920 307.8115008  +6.4929292     1126.817     2230.379      2321.53     83.61759     167.9729     335.9124      2.003     6.47     1001.038     59.26898     187.5065        15     1.694     0.736  55.23   0
       358    365.3815    430.0670 307.7791712  +6.4965871     2622.568     4304.686     4785.573     83.88602     168.1067     336.1466      1.786     5.50     998.3011     59.26898     373.4763        24     1.740     0.857  37.91   0
       359    720.8215    427.8362 307.6315713  +6.5093972     1432.188     2185.773     1545.597     83.88602      167.906     335.9793      1.533     4.88     991.3635     59.26898     240.5138        15     1.416     0.751  48.36   0
       360    994.5486    426.0047 307.5179025  +6.5192800     563.9397     726.5126     1072.426     83.61759     167.9729      335.812      1.397     2.86     981.2214     59.26898     107.9243         5     0.742     0.582  -0.70   0
       361    252.5636    425.6859 307.8261903  +6.4946133     792.2609     1063.241     1053.182     84.28708     168.1067     336.2469      1.409     4.55     1002.322     59.26898     103.8276         7     0.880     0.669 -21.42   0
       362    562.2927    420.5397 307.6976824  +6.5071122      943.702     1413.042     1687.495     84.15361     168.1067     336.3472      1.655     4.30     993.5482     59.26898     124.6428         9     0.998     0.662 -76.58   0
       363    484.3937    418.7694 307.7301071  +6.5052369     1090.374       1711.9     1541.035     83.61759      167.906     336.0128      1.743     7.68     994.6557     59.26898     163.0803        18     1.639     1.007  58.22   0
       364    847.2528    418.0447 307.5793702  +6.5176584     1233.774     2069.014     2436.184     84.28708     168.1736     336.2469      1.829     6.02     987.2136     59.26898     190.6328        13     1.468     0.787  52.74   0
       365    832.6788    416.9141 307.5854636  +6.5176391      1696.22     2696.255     2464.434     84.15361     168.5075     336.3472      1.653     4.29     987.7632     59.26898     324.4016        17     1.565     0.851  39.54   0
       366    730.2410    415.2152 307.6280825  +6.5149223     13076.76     21922.45     23348.18     83.75191     167.9729     336.0128      1.786     4.19     990.9498     59.26898      1936.96        50     1.785     1.117  40.57   0
       367    651.3655    411.2959 307.6609860  +6.5139061     2284.505     3628.043     3871.738     84.42034     168.0398     336.3806      1.711     4.41     991.4329     59.26898      310.552        23     1.546     0.924  50.77   0
       368    623.6760    406.3669 307.6726566  +6.5150157     11282.21     25776.74     30328.49     84.15361     168.1736     336.2134      2.438     7.85     991.6257     59.26898     1684.115        67     2.613     1.153  35.24   0
       369    955.5538    405.0977 307.5348068  +6.5266131     3868.046     5771.766     6220.135     84.28708     168.0398     336.4474      1.637     3.95      982.077     59.26898     715.1549        22     1.512     0.805  45.24   0
       370    394.6239    401.0445 307.7680023  +6.5095487     23829.83     42301.75     45821.29     83.75191     168.1736     336.1131      1.911     4.34     996.0406     59.26898     3006.994        65     1.910     1.242  45.14   0
       371    911.0359    400.7668 307.5534494  +6.5269179     1335.239     2377.222     2291.776     83.88602      167.906     335.9793      2.565     5.54     984.0065     59.26898     218.7122        14     1.595     0.765  44.86   2
       372    140.7070    400.5460 307.8735122  +6.5012373     1912.827     3556.406     3578.441     84.15361     168.1067      336.414      1.914     4.69     1007.077     59.26898     261.4451        26     1.636     1.044  48.07   0
       373    924.3711    395.5949 307.5480824  +6.5294975     4767.701     7477.546     7088.789     83.75192     167.9729     336.0462      1.685     4.20     983.2637     59.26898     889.8501        29     1.634     0.891  39.07   0
       374     73.9019    395.8687 307.9014250  +6.5009238     1247.039     2047.341      2535.61     84.28708     168.3072     336.2134      1.978     4.49     1010.256     59.26898      157.576        14     1.296     0.885  58.28   0
       375    252.1798    391.6480 307.8275009  +6.5086526     11490.55     20675.84     22522.43     83.75191     168.1736     336.0462      1.915     4.42     1000.808     59.26898     1587.795        49     1.827     1.198  43.46   0
       376    980.0010    393.2525 307.5250467  +6.5323177      661.142     815.6868     670.3498     83.61759      167.705     335.7785      1.389     3.74     980.0341     59.26898     101.6726         5     0.811     0.496  52.95   0
       377    746.4849    385.3899 307.6223372  +6.5277781     829.4586     1306.479     1429.757     83.88603      167.839     336.0797      1.672     3.91      988.363     59.26898     135.6992         8     1.164     0.630  31.45   0
       378    975.7899    383.7986 307.5271139  +6.5360806     953.3085     1694.878     2128.909     83.75191      167.839     336.0462      2.087     4.98     979.7083     59.26898     171.9523        13     1.483     0.771  39.78   0
       379     87.4327    385.0970 307.8961685  +6.5058254      676.695     669.7651     576.4572     84.42034     168.0398     336.3472      1.169     3.59     1009.477     59.26898     124.5967         6     0.785     0.492 -84.71   0
       380    714.5931    384.1903 307.6356285  +6.5272086       567.44     733.5723     956.0347     83.75191     167.9729     336.0797      1.059     3.47     988.7538     59.26898     91.73926         5     0.762     0.455 -72.43   0
       381    365.4498    381.3023 307.7807902  +6.5167216     1004.814     1626.896     1424.849     84.15361     168.1067      336.414      1.747     7.12     995.7207     59.26898     139.5942        14     1.682     0.845  44.19   0
       382    197.1641    380.9490 307.8507199  +6.5112233     799.3901     1275.382     1272.109     84.15361     168.1736     336.1466      1.720     6.67     1003.168     59.26898     114.8651         8     1.275     0.980  78.96   0
       383    152.4059    380.2047 307.8693405  +6.5100279      4414.41     7541.593     7994.932     83.61759      167.839     336.1131      1.831     4.02     1005.795     59.26898      593.586        35     1.741     1.083  44.54   0
       384    257.0469    378.5923 307.8259203  +6.5142058     1176.995     1952.538     2068.233     83.75191     168.0398     335.8455      1.676     4.71     1000.015     59.26898     139.9102        15     1.189     1.021  66.44   0
       385    174.2276    376.2127 307.8604095  +6.5124086     2006.956     3868.518     4553.052     83.75191     167.9729     336.1466      2.134     5.37     1004.352     59.26898     283.8175        27     1.663     1.127  70.78   0
       386    837.8703    376.1194 307.5846784  +6.5346546     730.5532     1235.127     1395.382     84.55339     168.5075     336.2803      1.424     3.79     985.6829     59.26898     123.9874         5     0.782     0.528  29.26   0
       387    569.1866    374.1266 307.6963830  +6.5265044     669.9631     1120.132     1116.502     83.75191      167.839     336.0128      1.682     3.76     990.1691     59.26898     114.0588         5     0.905     0.449  43.08   0
       388    398.1714    370.8170 307.7675492  +6.5221468     1601.048     3096.046     3515.246     83.88602      167.906       336.18      2.065     5.66     993.8678     59.26898     205.6909        25     1.664     1.070  34.28   0
       389    986.3707    370.2849 307.5231713  +6.5420122     960.8929     1371.334     1145.724     84.28708      167.906     336.0797      1.430     5.13     978.2364     59.26898     162.5394        10     1.217     0.614  39.61   0
       390     16.4038    370.2737 307.9261801  +6.5095572     621.1271     800.1586     600.3109     83.75191      167.705     336.1131      1.434     3.46     1012.083     59.26898     97.15393         5     0.793     0.436  70.17   0
       391    451.7374    364.3772 307.7455108  +6.5265994     6219.792     10685.61     10918.86     83.88603     168.1736     336.1466      1.839     4.39     991.9133     59.26898     769.1036        38     1.700     1.132  44.26   0
       392     48.0771    365.2815 307.9131905  +6.5126832     2785.313       5341.6     6057.018     84.55339     168.4407     336.3806      2.050     4.46     1010.651     59.26898     424.8982        32     1.635     1.222  54.54   0
       393    784.3606    363.2302 307.6073455  +6.5381909     1781.824     3080.929     3541.935     83.75191      167.906     336.0797      1.814     4.64     986.4929     59.26898     291.4126        18     1.531     0.820  36.85   0
       394    792.3773    361.8244 307.6040618  +6.5390389     11793.95     19152.64      20309.6     83.75191     168.0398     336.2134      1.740     4.30      986.398     59.26898     1770.818        43     1.692     1.065  41.78   0
       395    355.9124    360.2109 307.7854654  +6.5251095     898.8863     1361.585     1471.407     83.88602      167.906     336.1131      1.629     4.81     995.1697     59.26898     142.5389        10     1.207     0.729  51.60   0
       396    967.0135    353.3361 307.5317836  +6.5483650     704.4994     1167.102     1263.391     83.75191     167.9729     336.0797      1.626     4.14     978.3909     59.26898     89.97565         7     0.755     0.663  11.00   0
       397    200.7895    351.6812 307.8502041  +6.5234279     611.7923     1143.679     897.9471     83.88603      167.839     336.0797      1.542     4.18     1001.744     59.26898     96.48987         6     1.280     0.390  84.44   0
       398      5.6236    350.7478 307.9313208  +6.5172556     883.5239     2340.709     4079.384     83.75191     168.1736     314.9453      3.619     8.64     1012.111     59.26898     139.2301        16     1.590     1.312 -54.96  16
       399    539.5302    349.4825 307.7095361  +6.5356868     590.6949     852.1411     1149.416     84.55339     168.4407     336.2803      1.561     5.04     989.0958     59.26898     75.82629         6     1.233     0.583  44.96   0
       400    499.7794    347.8759 307.7261067  +6.5350200     2496.749     4416.536     5071.765     83.88602     167.9729       336.18      1.943     4.70     989.8679     59.26898     339.2629        29     1.678     1.090  49.55   0
       401    472.1824    348.6933 307.7375455  +6.5337589     1890.323     2910.148     2888.383     84.15361     167.9729     336.1131      1.689     3.85      990.513     59.26898     313.1304        21     1.380     0.997  37.49   0
       402    928.4410    347.7872 307.5479976  +6.5493709     840.3641     1305.594     1439.441     83.61759     167.9729     335.9459      1.999     4.96     980.5767     59.26898      172.532         8     1.484     0.470  34.56   0
       403    857.7518    344.7192 307.5774732  +6.5482814     29860.84     49470.12     52602.66     84.28708     168.1736     336.2803      1.784     4.17     983.4722     59.26898      4334.26        62     1.787     1.163  47.22   0
       404    349.9302    339.5523 307.7886489  +6.5334377     803.0339     1292.756     1235.872     84.28708     168.1067     336.2803      1.695     5.10     994.4652     59.26898     141.9908         9     1.200     0.678  26.88   0
       405    629.2870    336.9659 307.6726639  +6.5438555     2467.515     4320.552     4975.549     84.28708     168.0398     336.2469      1.944     5.28     986.4363     59.26898     311.8202        27     1.845     0.916  41.57   0
       406     37.6025    337.3016 307.9184906  +6.5238820     1041.952     1832.382      1723.98     83.88603      167.906     335.9124      1.823     3.94     1010.699     59.26898     132.8157        12     1.161     0.748 -72.27   0
       407    714.1938    330.6895 307.6375957  +6.5492833     70263.47     115870.9     124244.7     83.75191      167.839     336.0128      1.780     4.08     985.3192     59.26898     9945.183        88     1.836     1.217  41.56   0
       408    872.2550    332.2590 307.5718658  +6.5539092     1230.955     1756.805     2078.493     84.42034     168.1736     336.2469      1.628     3.37     982.1371     59.26898     237.0514        12     1.164     0.677  51.53   0
       409    576.6115    327.5251 307.6948692  +6.5459921     2342.504     4037.579     4578.772     83.88603      167.839     336.0462      1.871     5.14     986.5209     59.26898     307.6608        29     1.746     1.037  51.15   0
       410     93.3470    330.3371 307.8955664  +6.5286309     1247.477     1988.401     2266.878     84.28708     168.1067     336.2134      1.711     3.85     1008.359     59.26898     174.4204        14     1.037     0.962 -83.05   0
       411    113.9397    326.1856 307.8871512  +6.5310367     5164.898     9487.743     10202.66     83.75191     168.0398     335.9793      1.937     4.65     1007.144     59.26898     714.3336        42     1.817     1.205  47.08   0
       412    955.4537    327.4334 307.5374570  +6.5586741     962.3281     1181.103     989.3677     84.15361     168.1067       336.18      1.256     3.98     978.0824     59.26898     196.0198         9     1.157     0.584  50.42   0
       413    559.8846    323.5390 307.7019538  +6.5470784     6202.294     10649.16     11518.37     84.42034     168.2404     336.3138      1.892     4.21     986.6065     59.26898     772.1902        39     1.687     1.127  41.95   0
       414    288.7523    321.0648 307.8146927  +6.5390189     2173.664     3594.634     3824.581     84.15361     168.0398     336.3138      1.816     4.54      996.295     59.26898     282.7463        23     1.511     0.997  40.67   0
       415    422.8881    318.8004 307.7590363  +6.5444495     21307.02     38280.17     41382.46     83.48305      167.638     335.8789      1.913     4.33     989.5306     59.26898     2781.081        63     1.893     1.248  40.71   0
       416    530.3610    317.1429 307.7144368  +6.5487314     1166.933     1840.059     1881.813     84.28708     168.2404     336.2469      1.701     5.72     986.5626     59.26898     153.1566        14     1.452     0.794  41.89   0
       417    601.2728    317.1640 307.6849715  +6.5510943     671.9802     1156.747     1148.413     84.15361     168.1736     336.2469      1.743     5.17     985.1422     59.26898     93.99719         6     1.131     0.668  -3.90   0
       418    403.0815    316.8526 307.7673317  +6.5445902     1011.848     1735.509     2294.899     84.28708     168.1736     336.2803      1.952     2.71     990.4023     59.26898     154.4548         8     0.808     0.639  43.49   0
       419    501.8485    313.9335 307.7263922  +6.5491023     1161.752     1926.806     2158.997     84.15361     168.1067     336.2469      1.705     4.09     986.6121     59.26898     155.7585        13     1.158     0.826  55.72   0
       420    511.8745    309.1545 307.7223876  +6.5514108     7149.025     12641.23     13651.78     84.15361     168.2404     336.2803      1.873     4.48     986.0452     59.26898     920.8215        42     1.769     1.137  42.66   0
       421    816.7799    310.7374 307.5956407  +6.5609445     754.5313     1047.589     1551.793     83.88602     168.1736     336.1131      1.440     3.80     982.8474     59.26898     134.7421         6     0.765     0.565  54.73   0
       422    398.8689    311.3329 307.7692685  +6.5467278      652.056     1224.506     1836.271     84.28708     168.2404     336.2469      1.706     4.08     990.2957     59.26898     102.7862         6     1.170     0.407 -32.33   0
       423    936.7572    307.9406 307.5458808  +6.5660990     892.5385     1564.608     1545.334     84.28708     168.1736     336.3472      2.089     5.21     977.7372     59.26898     169.9933        13     1.696     0.678  54.99   0
       424    781.1182    307.9358 307.6105533  +6.5609113     2925.893     4698.098      5378.72     84.42034     168.2404     336.2469      1.761     4.51      983.402     59.26898     439.1865        22     1.712     0.796  35.91   0
       425    728.7479    307.3814 307.6323330  +6.5593921     702.4412     1255.771     1492.154     83.75191     168.2404     336.0128      2.062     5.56     983.8572     59.26898     123.1762         9     1.309     0.665  44.43   0
       426    338.0082    305.7213 307.7947458  +6.5470050     970.8527     1457.058     1412.872     83.88602      167.638     336.0462      1.772     4.85     993.2469     59.26898     128.2125        11     0.987     0.839  52.07   0
       427    173.7358    299.4140 307.8632135  +6.5440974     924.3549     1472.958     1894.979     83.75191     167.9729     336.1131      1.885     6.44     1003.397     59.26898     103.1265        13     1.155     1.008  21.47   0
       428    620.3565    297.6049 307.6777012  +6.5598072     533.5779     912.7887     1150.215     83.61759      167.839     335.9124      2.099     4.84     983.6263     59.26898      97.3501         6     0.915     0.725  78.68   0
       429    401.8820    293.3647 307.7686235  +6.5542468     6162.558     10855.71     12019.02     84.28708     168.1067     336.2134      1.903     4.66     989.1703     59.26898     812.6371        39     1.744     1.161  41.34   0
       430    257.4588    293.7704 307.8286180  +6.5492374     1805.355     3051.913     3556.358     84.01993     168.1736     336.1466      1.889     4.26     997.4819     59.26898     230.3707        20     1.323     1.049  38.11   0
       431    755.1478    292.9756 307.6218481  +6.5662209     993.7405     1734.889     1878.962     83.75191     168.1736     336.1466      1.763     5.07     982.8936     59.26898     130.0906        12     1.066     0.924 -65.51   0
       432    769.6648    289.2614 307.6159409  +6.5682388      48932.7     79149.51     84248.12     84.28708     168.1736     336.2803      1.761     4.14     982.4902     59.26898     7321.757        70     1.797     1.144  42.40   0
       433    440.9983    288.3475 307.7525397  +6.5576283     2035.108     3315.057     3638.348     83.61759      167.839      335.812      1.687     4.11     986.6579     59.26898     272.6238        21     1.424     0.928  26.91   0
       434   1004.5793    286.2261 307.5184276  +6.5773229     1607.323     2520.451     2399.906     83.88603     167.9729       336.18      1.620     4.11     975.8872     59.26898      311.108        16     1.464     0.730  35.72   0
       435    945.4142    285.2962 307.5430442  +6.5757363      2208.29     3516.386     3812.764     84.01993      167.906     336.0128      1.697     4.33     976.4581     59.26898     421.1902        22     1.649     0.944  35.47   0
       436    587.2237    286.0596 307.6918577  +6.5634660     1170.126     1997.376     2173.731     83.88602     168.1736     336.0797      1.709     5.71     983.2231     59.26898     142.3224        13     1.271     0.774  54.50   0
       437    478.1453    285.0269 307.7372167  +6.5602429     969.0833     1827.027     2191.047     83.88602     168.2404     336.1131      2.626     6.23     984.2672     59.26898      143.696        13     1.477     0.738  64.00   0
       438    427.8415    284.1662 307.7581477  +6.5589139     1556.738     2701.714     2936.518     84.01992     168.1736     336.0797      1.918     4.41     987.1984     59.26898      250.548        20     1.309     1.122  39.23   0
       439    848.7440    278.5931 307.5834397  +6.5752815     1196.142     1969.212     1861.596     83.75191     168.0398     335.9793      1.677     4.13      979.916     59.26898     169.4844        13     1.207     0.768  26.36   0
       440    478.4211    278.7335 307.7373145  +6.5628504     639.7844     1169.349     1835.916     83.88603     168.1736     336.2134      1.879     3.40      983.919     59.26898     85.01941         5     0.727     0.461 -71.74   0
       441    204.2286    275.7157 307.8513460  +6.5549047     1983.912     3389.525     4225.497     84.28708      167.906     336.1131      2.010     5.60     1000.958     59.26898     284.7025        24     1.623     1.059  53.10   0
       442    768.0956    273.7794 307.6171140  +6.5745783     5631.924     9195.898     9854.632     84.15361     167.9729     336.0462      1.727     3.96     982.0108     59.26898      816.829        32     1.660     0.966  41.83   0
       443    458.5373    275.9710 307.7456698  +6.5633252     862.5054     1491.936     1952.639     84.01992     168.1736       336.18      1.888     4.94      984.876     59.26898     140.9338        11     1.334     0.710  15.09   0
       444    784.5126    271.8834 307.6103560  +6.5759090     2345.969     3954.788     4163.167     84.01992      168.374     336.2803      1.814     4.91     981.7065     59.26898     376.3433        24     1.661     0.877  50.27   0
       445    239.8629    273.1469 307.8366268  +6.5571612     674.8038     1204.275     1082.644     84.28708     168.1067     336.2134      1.827     4.96      998.462     59.26898     89.71167         7     0.929     0.749  46.82   0
       446    373.8909    266.4693 307.7811626  +6.5644125     1590.136     3657.633     4643.842     84.28708     168.3072     336.2469      2.419     7.67     989.1732     59.26898     203.7533        29     1.922     1.187  11.56   0
       447     87.3726    266.1946 307.9002218  +6.5549103      1210.76     1910.734     2072.717     83.75191     167.9729     336.0462      1.695     5.82     1007.218     59.26898     156.1499        16     1.374     1.092  38.24   0
       448   1022.3467    262.4903 307.5118413  +6.5877139     5956.689     7927.941     8059.095     84.15361      152.615      275.294      1.363     3.15     973.8489     59.26898     1137.044        22     1.308     0.787  49.92  24
       449    500.7476    262.3971 307.7285887  +6.5703421     1635.371     2830.459      2947.01     83.61759     167.9729     335.7785      1.847     4.97     982.6128     59.26898     231.4119        18     1.505     0.892  40.63   0
       450    263.3821    258.1720 307.8273610  +6.5641325     4934.023     8718.043     9446.485     83.88602     167.9729     336.1466      1.890     4.27     996.7909     59.26898     602.4001        37     1.760     1.172  39.58   0
       451    931.4661    256.9831 307.5497916  +6.5869609     621.1664     818.7081     853.7159     83.75191     168.1067     336.1131      1.334     4.18     976.0388     59.26898     143.0704         6     1.470     0.340 -14.14   0
       452    827.4191    256.1185 307.5930570  +6.5838490       535.95     741.6259     1185.411     83.88602      167.839       336.18      1.475     3.47     979.7109     59.26898     92.45953         5     0.798     0.436  69.72   0
       453    953.6464    252.7405 307.5407172  +6.5894514     560.4298     822.0408     970.9528     84.15361     168.1736     336.3806      1.278     3.39     975.2476     59.26898     96.21277         5     0.747     0.444  72.89   0
       454    100.3228    272.8286 307.8946163  +6.5526068     918.3749     1696.502      1366.87     84.15361     168.1736     336.2469      1.733     5.28     1006.888     59.26898     132.4419        12     1.329     0.824  62.23   0
       455    397.5596    248.5792 307.7719323  +6.5725914     1406.911     2648.385     2796.686     83.88603     167.9729     336.0462      1.998     4.69       986.85     59.26898     222.5987        19     1.475     0.947  34.58   0
       456    984.3193    247.6086 307.5281433  +6.5925918     976.0285     1414.841      1240.49     83.88603      167.772     336.0797      1.397     5.43     974.0523     59.26898     167.7789        11     1.594     0.578  39.64   0
       457    320.1271    244.8227 307.8042340  +6.5715469     1008.329     1795.002     1674.529     83.88602     167.9729     336.2134      1.780     6.54     992.2245     59.26898     131.5058        13     1.598     0.752  21.98   0
       458    576.6442    240.1965 307.6978003  +6.5820467     1950.131     3177.202     3014.517     83.61759      167.772     335.8789      1.688     3.75     981.3233     59.26898     265.4158        17     1.203     0.979  33.46   0
       459    920.2305    239.3808 307.5550521  +6.5938537     1752.926     2716.185     3006.325     83.88603     167.9729     336.1131      1.751     4.00     975.9158     59.26898     347.9855        18     1.673     0.715  28.93   0
       460    740.5373    237.9757 307.6297708  +6.5884400     4423.744     7268.695     7558.876     83.88602     168.1736     336.1466      1.757     4.57     981.1976     59.26898     623.9501        29     1.616     0.966  40.35   0
       461    681.2602    237.8260 307.6544081  +6.5865221     1897.126     3094.359     3444.305     83.88602     168.1736     336.1131      1.803     4.50     981.7563     59.26898     282.4681        19     1.446     0.884  28.18   0
       462    167.1597    244.7194 307.8677975  +6.5664565     1531.335     2767.543     2924.375     84.28708     168.1736       336.18      1.940     5.87     1002.424     59.26898     227.8907        21     1.582     0.997  35.91   0
       463    396.0359    232.4206 307.7731112  +6.5792113     636.1493     990.1995     1346.336     83.75191     167.9729     335.9793      1.679     3.85     985.9827     59.26898     116.0956         6     0.860     0.494   0.26   0
       464    936.0641    229.6135 307.5488006  +6.5984138      872.307      1441.76     1529.906     83.75191     167.9729     336.0797      1.708     5.08     975.2639     59.26898     170.6102         9     1.662     0.439  39.30   0
       465    240.1481    223.3788 307.8381921  +6.5777169     1874.984     3515.329      3354.36     83.75191     168.1736     336.0462      1.916     5.27      998.071     59.26898     256.8075        26     1.686     1.029  45.23   0
       466    882.8087    222.2384 307.5711791  +6.5996837     1698.122     2739.054     2663.317     83.48305      167.906     335.9459      1.631     6.12     975.7759     59.26898     295.0909        18     1.622     0.766  34.79   0
       467    773.0115    221.5971 307.6168275  +6.5962859     1538.442     2524.846     2213.649     83.88602      167.839     336.1131      1.648     4.32     980.1071     59.26898     237.9806        18     1.488     0.804  39.30   0
       468    474.0223    213.1356 307.7413565  +6.5897849     19158.23     33924.88     36564.02     83.88602     168.1736     336.1131      1.901     4.34     980.7335     59.26898     2456.015        56     1.836     1.216  43.18   0
       469    799.8878    212.2209 307.6059744  +6.6010538     12060.55     19705.28     22063.27     84.28708      167.906     336.1466      1.764     3.94     979.0253     59.26898      1813.09        49     1.761     1.137  46.16   0
       470    479.2058    207.3271 307.7393986  +6.5923564      1290.87     1999.725     2173.964     83.88602      167.705     336.1466      1.728     4.61     980.3566     59.26898     171.0989        15     1.184     0.963  52.43   0
       471    162.0197    206.0793 307.8712416  +6.5822358     2028.988     3525.853     3809.429     83.88602      167.839     336.2134      1.898     4.85     1001.592     59.26898     233.8204        25     1.638     1.009  49.09   0
       472    136.6644    205.3983 307.8818002  +6.5816652     873.4886     1305.276     1575.046     83.61759      167.906     336.0128      1.660     5.47     1002.666     59.26898     111.5922        10     1.037     0.815  63.58   0
       473    738.4131    207.5817 307.6316768  +6.6009172      666.473     874.3257     499.5046     84.01993      167.839     336.1466      1.424     4.06      979.989     59.26898     97.92126         5     0.969     0.487  -5.22   0
       474    936.2284    202.5345 307.5496423  +6.6095989     1387.262     2042.032     1789.097     84.01993     168.1736       336.18      1.519     4.66     974.1515     59.26898     239.8894        12     1.419     0.653  44.05   0
       475      1.6460    200.5379 307.9380670  +6.5791328     2137.606     3016.972     2928.259     77.33183     138.7249     258.6628      1.498     4.24     1011.783     59.26898     433.5623        14     1.406     0.661  76.13  24
       476    598.0661    198.8036 307.6902943  +6.5998520     4142.625     6890.274     7430.579     83.61759      167.906     336.0128      1.776     4.20      979.804     59.26898     517.3045        30     1.624     1.024  45.23   0
       477    402.2133    197.7890 307.7717143  +6.5937156     1265.631     2165.994     2542.698     84.01992      167.906       336.18      1.908     4.70     984.0147     59.26898     187.0783        16     1.343     0.890  53.92   0
       478    318.1383    198.9188 307.8066123  +6.5904311     803.8562     1471.582     1212.055     84.42034     168.1736     336.2134      1.908     5.56     992.5528     59.26898      113.402        10     1.118     0.903   9.22   0
       479    905.0358    195.4213 307.5628439  +6.6114961     10521.28     16399.32      17008.7     83.75191      167.906     335.9793      1.620     4.06     974.3306     59.26898      1645.16        34     1.642     0.919  42.74   0
       480    958.9350    195.9812 307.5404263  +6.6130610     2644.083     4085.683     4318.704     83.88602     168.1736     336.0797      1.562     4.37     973.0368     59.26898     453.9482        21     1.490     0.811  40.76   0
       481    333.1288    196.1051 307.8004784  +6.5920954     753.0733     1433.437     1856.704     84.15361     168.2404     336.2469      2.231     4.96     990.6979     59.26898     104.7565         8     1.137     0.613  65.17   0
       482    991.7078    193.2417 307.5268989  +6.6152836     9501.964     14495.73     15543.72     84.28708     168.1736     336.3472      1.586     4.13     971.8365     59.26898     1756.115        32     1.678     0.842  43.87   0
       483    703.0916    193.1318 307.6468416  +6.6057034      2501.92     4167.211     4705.876     84.28708     168.3072     336.2469      1.831     4.51     979.4982     59.26898     336.6613        27     1.670     0.974  41.89   0
       484    560.6248    198.7678 307.7058542  +6.5986146     1745.236     2898.033     2896.845     83.75191     167.9729     336.0462      1.807     4.46     979.2848     59.26898     249.2479        18     1.402     0.872  47.92   0
       485    277.3752    192.7436 307.8237596  +6.5916133     967.7849     1694.323     1524.339     83.88603     168.1736     336.0462      1.831     6.91     996.9209     59.26898     130.2529        12     1.424     0.940  68.92   0
       486     31.3141    192.0166 307.9260285  +6.5836485     21122.66     37799.31     41407.18     83.88602      167.906       336.18      1.930     4.36     1009.531     59.26898     2886.551        64     1.918     1.244  44.11   0
       487    223.8490    194.4535 307.8459435  +6.5891112     572.6027     868.9299     785.6482     84.42034     168.1736     336.3138      1.651     4.44     998.8453     59.26898     83.25037         5     1.140     0.492   4.08   0
       488    511.5994    188.1594 307.7265846  +6.6013539     1702.811      2816.85     2760.083     83.61759      167.839     335.9459      1.800     4.54     979.3338     59.26898     226.3712        18     1.407     0.862  44.64   0
       489    843.6262    184.8257 307.5887201  +6.6138231     1707.554     2680.429     2982.224     83.75191     167.9729     336.1466      1.578     4.24     975.3487     59.26898     300.5049        17     1.563     0.693  42.80   0
       490    895.6699    183.8482 307.5671251  +6.6159620     1836.067     3025.426     3332.541     84.28708     168.1067     336.2803      1.672     4.28     973.9509     59.26898     282.6604        17     1.484     0.687  45.29   0
       491    755.2617    181.3884 307.6255570  +6.6122937     36257.93     59062.74     62568.86     83.75191     167.9729     336.0128      1.755     4.37     978.2219     59.26898     5263.999        64     1.810     1.110  43.30   0
       492    523.5341    184.0536 307.7217637  +6.6034484     2121.371     3407.856     3496.402     84.28708     168.1067     336.2134      1.738     4.08     979.0124     59.26898     330.6731        22     1.535     0.890  31.95   0
       493    358.3816    180.7139 307.7905051  +6.5992960     4896.438     11442.34     13203.07     83.88603      167.906     336.1466      2.399     6.02     987.6179     59.26898     523.3153        55     2.088     1.495  81.03   0
       494    988.9152    180.0713 307.5285018  +6.6206280     2709.464      4050.16     4193.884     84.42034     168.4407     336.2803      1.485     3.77     971.6781     59.26898     453.3372        18     1.366     0.752  41.92   0
       495    923.1146    178.5095 307.5558993  +6.6190808     7285.773     11355.49     11406.44     84.01992     168.6408     336.3806      1.649     4.22     973.3383     59.26898     1179.217        33     1.615     0.966  42.18   0
       496    466.6259    177.5612 307.7456311  +6.6042238     4307.234     7435.772     8095.938     83.88603     167.9729     336.0797      1.896     4.47     980.1154     59.26898     505.5487        34     1.734     1.053  45.04   0
       497    124.1450    168.8580 307.8882400  +6.5963296     4049.284     7111.649     7362.164     84.42034     168.2404     336.2803      1.905     4.38     1002.818     59.26898      554.907        37     1.737     1.193  42.87   0
       498    294.3979    165.6145 307.8176035  +6.6033842     28232.09     50299.06     54804.89     83.88603      167.839     336.0462      1.931     4.33     996.9545     59.26898     3636.069        66     1.882     1.281  42.35   0
       499    269.6962    166.7676 307.8278291  +6.6020795     5478.258     9763.491     10542.64     84.42034     168.0398     336.3472      1.926     4.60     997.9543     59.26898     696.1296        41     1.790     1.180  44.59   0
       500    943.3103    167.8558 307.5478645  +6.6241522     872.1766     1284.932     2370.173     84.15361     168.0398     336.3806      1.602     4.24     972.4194     59.26898     152.7982         8     1.481     0.346  47.52   0
       501    621.1251    167.1947 307.6817776  +6.6136725     664.3633     1266.566      2383.07     83.88602      167.638     336.1466      2.269     5.01     978.1158     59.26898     98.86621         7     0.957     0.742  -4.55   0
       502    418.4460    161.0880 307.7662086  +6.6094111     42337.05     74312.82     79964.27     84.28708     168.0398     336.2469      1.914     4.30     980.5916     59.26898     5027.477        73     1.897     1.280  43.43   0
       503    174.3498    162.4450 307.8675955  +6.6006636      3425.57     5914.508     6285.978     84.42034     168.0398     336.2803      1.893     4.62     1000.264     59.26898     416.5822        32     1.745     1.090  40.30   0
       504    722.9839    164.2205 307.6395487  +6.6183037     727.4269     895.3627     943.1592     84.01992     167.9729     336.1466      1.290     3.38      977.923     59.26898     110.5172         7     0.798     0.705 -60.54   0
       505    435.4295    161.2360 307.7591460  +6.6099189     1233.942     1801.726     1827.526     83.88603      167.906     336.0462      1.572     4.04     980.2624     59.26898     180.3065        12     1.022     0.888  49.65   0
       506    322.4654    158.7997 307.8061707  +6.6071389     15099.17     26978.35        29477     83.48305      167.772     335.9793      1.931     4.23     992.8796     59.26898     1916.542        59     1.879     1.244  41.82   2
       507    329.5665    158.3286 307.8032357  +6.6075715     1998.262     3597.668     5043.182     84.15361     168.1736     336.3138      2.388     6.02     991.6614     59.26898     260.9686        25     1.786     1.077  60.96   3
       508    757.7004    157.2921 307.6253548  +6.6223232     30013.49     48713.48     51828.05     84.28708     168.7075     336.2134      1.761     4.19     976.8848     59.26898     4566.352        59     1.761     1.127  41.54   0
       509    805.7378    157.5186 307.6053841  +6.6238329     1064.896     1883.013     2521.093     84.42034     168.1736     336.2469      1.874     5.54     975.3785     59.26898     147.3394        14     1.529     0.808  33.73   0
       510    705.7100    158.8388 307.6469085  +6.6199486     991.6498     1622.161     2054.448     84.28708     168.1067     336.2803      1.943     4.99     977.7311     59.26898     144.7847        10     1.235     0.694  25.14   0
       511     74.5749    154.5276 307.9093235  +6.6005796     7717.075      13636.5     14443.91     83.88603     168.0398     336.1466      1.893     4.41     1005.693     59.26898     978.9853        41     1.773     1.152  42.98   0
       512   1016.0167    151.5879 307.5181955  +6.6332900     1042.023     1390.244     1693.976     84.01992      167.839     336.1466      1.446     5.14     970.1073     59.26898     187.8376        11     1.304     0.630  50.51  16
       513    108.4902    152.3372 307.8953048  +6.6026239     1470.809     2426.641      2569.64     84.28708     168.3072     336.3138      1.780     5.02      1003.26     59.26898     199.6633        15     1.267     0.904  50.87   0
       514    591.4620    141.0992 307.6949844  +6.6234542      743.816     1138.306     1323.096     84.01992     168.1736     336.3806      1.540     3.44     977.2366     59.26898     120.0461         6     0.791     0.498 -88.76   0
       515      8.2408    139.3751 307.9374011  +6.6046042     927.0359     1154.038     472.2979     83.88603     168.0398     335.4771      1.528     4.94     1009.746     59.26898       114.89         9     1.356     0.509  54.08  16
       516   1016.9612    137.8811 307.5182632  +6.6389803     1981.146     3182.278     3617.778     84.28708     168.2404     334.8398      1.599     4.70     968.9791     59.26898     328.4071        17     1.550     0.765  40.56  16
       517    608.3706    133.5355 307.6882127  +6.6271422     1702.427      3104.97     3862.529     84.01993     168.2404       336.18      2.093     5.18     976.8748     59.26898     222.4117        19     1.457     0.969  29.95   0
       518    599.8593    135.1481 307.6916954  +6.6261919     1072.846     1691.824     2311.909     84.28708     168.1067     336.2469      1.774     5.14     976.9831     59.26898      138.661        11     1.186     0.664  23.25   0
       519    293.3418    131.8692 307.8191837  +6.6172801     25399.03     45519.98     49723.52     84.42034     168.1067       336.18      1.947     4.42     997.5924     59.26898      3177.55        67     1.911     1.289  42.48   0
       520    352.3231    133.3109 307.7946249  +6.6186627     920.1704     1449.006     1532.836     84.28708     168.4407     336.3138      1.741     4.39     988.5687     59.26898     125.2466        11     1.052     0.766  43.44   0
       521     38.5578    130.4352 307.9251065  +6.6093146     3705.402     6388.449     6377.487     84.01993     168.1736     336.0797      1.874     4.31      1006.92     59.26898     496.2813        36     1.734     1.156  40.56   0
       522    724.8893    128.4193 307.6399626  +6.6331479     7131.633     11648.47     12479.82     84.01992      167.906     336.1466      1.740     4.20      976.312     59.26898     992.3525        37     1.685     1.040  42.79   0
       523    202.1778    129.3840 307.8571511  +6.6152467     709.9582      1346.08      1191.48     84.01992     167.9729       336.18      1.850     5.43     999.2106     59.26898     115.7045         7     1.048     0.793 -65.90   0
       524    135.7630    125.5469 307.8848795  +6.6146001       4180.2     7268.959     7863.691     84.15361     168.1736     336.2803      1.891     4.68     1000.985     59.26898      564.627        34     1.720     1.102  50.27   0
       525    406.3625    121.7409 307.7725592  +6.6252503     3473.318     6182.002     7030.431     84.28708     168.2404     336.2469      1.959     4.59     981.9741     59.26898     395.1633        33     1.772     1.091  50.07   0
       526    597.7717    123.6693 307.6929500  +6.6308610     689.7896       1365.8     1575.985     84.01993     168.1736       336.18      2.329     5.24     976.6757     59.26898     116.4852         7     0.967     0.801 -76.14   0
       527    474.1081    122.5292 307.7443797  +6.6271939     1120.235     1824.176     1946.956     84.15361     168.3072     336.2803      1.817     4.38     978.5842     59.26898     141.3841        15     1.198     0.935 -18.03   0
       528    663.2728    121.6986 307.6657956  +6.6338641     838.7065     1250.581     1368.663     84.01993     168.3072     336.2134      1.756     5.41     976.4122     59.26898      134.995         8     1.190     0.694  63.64   0
       529    370.8575    120.3951 307.7873593  +6.6246161     2600.883     4764.171     5059.586     83.61759     168.0398     335.9459      1.917     4.69     986.3281     59.26898     314.3671        25     1.549     1.028  43.49   0
       530    124.9206    119.9456 307.8895748  +6.6165482     1394.692     2483.708     2744.705     84.42034     168.1736     336.2803      1.896     5.23     1001.267     59.26898     195.3068        17     1.645     0.748  53.33   0
       531    582.9386    120.7171 307.6992139  +6.6315838     690.1935     1318.309     1336.201     84.42034     168.1736     336.2134      1.702     4.62     976.7806     59.26898     102.6195         6     1.324     0.458 -56.42   0
       532    952.9916    119.2262 307.5454752  +6.6445516     358.7064     387.0953     398.4488     83.88602     167.9729     336.0797      1.084     3.85     969.4683     59.26898      93.4303         5     0.828     0.514  60.41   0
       533   1017.5145    114.4777 307.5188192  +6.6486609     1508.175     2054.873     1811.788     84.28708     168.5075     331.8386      1.422     4.38      967.048     59.26898     276.9855        11     1.342     0.579  44.06  16
       534    743.1912    114.6123 307.6328216  +6.6394592     513.8729      460.575     376.6105     83.88603     167.9729       336.18      1.130     3.47     975.4601     59.26898     66.50879         5     0.776     0.447 -17.75   0
       535    222.7398    109.3189 307.8492857  +6.6242205     4543.734     7754.174     8116.349     84.42034     168.1736     336.2134      1.849     4.62     998.9313     59.26898     551.7494        37     1.780     1.097  48.25   0
       536    684.4608    108.1163 307.6574479  +6.6401795     5594.289     9211.935     10384.21     84.42034     168.2404     336.3138      1.811     4.35     975.7712     59.26898     816.6777        36     1.675     1.071  43.01   0
       537    105.3891    109.1156 307.8980579  +6.6203628     1687.009      3084.24     3431.801     83.88602      167.906     336.0797      1.915     4.90     1001.667     59.26898     233.0229        20     1.520     0.904  40.22   0
       538    832.2634    107.4584 307.5960448  +6.6453853     1190.982     1547.224     1554.923     84.42034     168.1067     336.2803      1.345     3.30     972.3259     59.26898     183.9409        10     1.032     0.665  47.31   0
       539    636.6088    105.4959 307.6774228  +6.6396622      8201.91     13853.58     15151.12     84.01993      167.772     336.0462      1.834     4.39     975.8486     59.26898     1139.664        43     1.753     1.138  41.91   2
       540    640.1829     96.9916 307.6762241  +6.6432926      46471.2     78302.13     84284.82     83.88602      167.906     336.0797      1.796     4.26      975.558     59.26898     6476.695        74     1.859     1.202  42.72   2
       541    574.5035    105.3421 307.7032379  +6.6376491     554.5512     1009.626     1503.045     84.15361     168.1736      336.414      1.993     4.77     976.4988     59.26898     68.90448         6     1.401     0.461  49.71   0
       542    270.5177    105.2507 307.8295688  +6.6275034     598.0169      951.822     1394.789     84.28708     168.2404     336.2803      2.668     4.33      998.592     59.26898     96.77795         5     0.788     0.724  30.26   0
       543     34.9915    103.9283 307.9274872  +6.6201374     810.0759     1305.068     1584.105     83.75191      167.705     336.1466      1.608     4.82     1005.508     59.26898      113.719         9     1.090     0.774 -84.21   0
       544    363.7819    101.1961 307.7909486  +6.6323050     3090.557     5960.296     6890.347     83.88602      167.705     336.0462      2.151     4.90      987.379     59.26898     377.7941        36     1.787     1.225  34.33   0
       545    545.5699    100.6647 307.7154199  +6.6386123     1499.613      2633.21     2537.859     84.01993     168.3072       336.18      1.828     5.27     976.9184     59.26898     213.5454        18     1.427     0.922  39.90   0
       546   1009.8829     99.6998 307.5224872  +6.6545079     813.7555     1473.073     1952.344     84.28708     168.7075     336.3472      2.051     5.55     966.2329     59.26898     132.2874         9     1.332     0.668  29.00   0
       547    773.1980   1020.5349 307.5898774  +6.2664451      794.388     1219.535     1375.091     83.61759      167.906      300.853      1.589     5.41     1011.221     59.26898     182.6711         7     1.500     0.550  27.89  16
       548    718.8980     84.9425 307.6439168  +6.6508970      904.355       1242.7     921.8202     84.01993     168.1736     336.4474      1.349     3.06     974.5266     59.26898     154.4459         7     0.848     0.554  43.93   0
       549    690.5609     84.0459 307.6557238  +6.6503207     1304.738     2185.784     1935.739     84.01992     168.1736     336.1131      1.794     4.70     974.8954     59.26898     189.9712        16     1.454     0.819  44.62   0
       550    319.1437     90.7033 307.8098536  +6.6351402     3121.052     5589.594     6493.809     84.15361     168.1067     336.4808      2.062     4.67      994.019     59.26898     415.3198        29     1.641     1.033  45.99   0
       551    704.5084     80.9142 307.6500328  +6.6520795      3024.73     4790.001     4460.792     84.01992     168.6408     336.3472      1.681     4.06     974.5887     59.26898      437.397        25     1.561     0.892  47.66   0
       552    446.2522     71.9758 307.7576631  +6.6471316      3488.24     5935.139      5947.95     83.75191     168.1736     336.1466      1.807     4.34     979.5316     59.26898     421.0813        31     1.644     1.077  49.55   0
       553    900.8181     68.1353 307.5688760  +6.6639058     2077.209     3366.064     3698.662     83.88602     168.1736     336.0797      1.717     4.11     968.2587     59.26898     339.6688        23     1.512     0.966  39.45   0
       554    918.9738     67.2909 307.5613586  +6.6648596     3751.755       6115.9     6558.762     84.42034      167.906     336.0797      1.738     4.18     967.7178     59.26898     694.2897        29     1.714     0.922  35.21   0
       555    598.3804     68.6094 307.6945538  +6.6536125     643.2939     1006.962     1211.422     83.88603      167.906     336.0797      1.765     3.42     975.3415     59.26898     89.08307         5     1.009     0.335  68.34   0
       556    610.9249     65.6674 307.6894396  +6.6552465     1509.407     2646.569     2865.158     84.42034     168.3072     336.2469      1.866     4.81     975.0665     59.26898     217.2749        19     1.461     0.959  31.65   0
       557    256.4027     65.1667 307.8367907  +6.6435778     830.7437     1420.725      1906.88     83.48305     167.9729     335.9459      2.025     5.63     998.9952     59.26898     107.6987        10     1.019     0.931   0.71   0
       558    409.5360     63.6506 307.7732030  +6.6493386     1676.415     2532.011     2654.478     84.28708     168.1067     336.2803      1.738     4.94     982.3852     59.26898     213.7284        17     1.293     0.907  29.04   0
       559    157.7045     60.6572 307.8779595  +6.6421256     2754.467     4659.591     5344.866     84.15361     168.1736     336.4808      1.826     4.60     999.2977     59.26898     396.6714        30     1.654     1.088  37.49   0
       560     39.5027     58.4910 307.9271533  +6.6390468     11286.44     18936.85     21170.15     84.28708     168.7075     336.2469      1.866     4.19     1004.073     59.26898     1505.639        47     1.768     1.161  44.59   0
       561    565.6998     57.8768 307.7084977  +6.6569504     550.3159     1055.789     1296.414     83.75191     168.3072     336.2803      2.306     5.03      975.739     59.26898     92.74463         8     1.701     0.420  49.31   0
       562    305.6902     58.8472 307.8165218  +6.6478403     1147.999     1864.813     2375.295     84.28708     168.0398     336.3806      1.848     4.73     996.2578     59.26898     156.3252        14     1.216     0.881  32.28   0
       563    578.3310     57.6555 307.7032557  +6.6574642      625.739     759.2997     572.1244     84.28708     168.0398     336.2134      1.427     4.02     975.5114     59.26898     91.38611         6     0.896     0.516  43.32   0
       564    773.9396     57.1857 307.6219761  +6.6641941     673.8336     1021.869     641.8259     83.75191     168.0398     335.9793      1.528     3.87     972.1956     59.26898     101.2817         6     0.927     0.463  39.62   0
       565    841.1795     53.0645 307.5941693  +6.6681392     5703.645     9104.243     9594.853     83.88602     168.1736     336.1131      1.649     4.09     969.5451     59.26898     946.0104        31     1.613     0.921  43.07   0
       566    786.3460     53.3328 307.6169496  +6.6661989     2974.226     4820.568     4605.565     84.28708     168.1067     336.1466      1.708     4.45     971.8082     59.26898     456.9473        24     1.685     0.802  40.03   0
       567    430.5650     53.8415 307.7647950  +6.6540927     857.9795      1140.81     1061.577     84.01993     168.1736     336.0462      1.488     5.85     980.8472     59.26898     99.83093        12     1.398     0.688  16.37   0
       568     64.2873     51.4866 307.9170913  +6.6427719     751.5381     1545.208     1095.408     84.01993      168.374     336.3472      2.142     6.02     1002.519     59.26898     130.2772        11     1.717     0.827  58.31   0
       569    548.0896     51.4970 307.7160317  +6.6589951     1102.659     1699.939     2181.242     84.28708     168.6408     336.2469      2.069     5.48     975.9489     59.26898     163.3104        13     1.202     1.066 -15.90   0
       570     79.7712     50.3395 307.9106956  +6.6437660     2780.442     4805.917     5217.373     83.88603     168.1736       336.18      1.845     4.24     1001.546     59.26898     401.0389        25     1.509     1.008  51.45   0
       571    441.0035     49.9850 307.7605871  +6.6560344     837.6024     1434.437     1672.101     83.88602      167.772     336.0797      2.016     5.78      980.158     59.26898     125.9236        10     1.213     0.816  42.04   0
       572    667.8479     50.3937 307.6662972  +6.6634549     453.4996     526.4704     406.1834     83.75191     167.9729     335.8789      1.129     3.50     974.4454     59.26898     79.37311         5     0.781     0.452 -16.81   0
       573    603.3582     46.9747 307.6932146  +6.6627107     1086.986     1722.434     1331.294     83.88602     168.1067     336.0128      1.712     4.31     974.8275     59.26898     163.9188        10     1.157     0.596  43.42   0
       574     22.3864     45.9317 307.9346921  +6.6436558     2220.235     3805.187     4401.073     83.75191     167.9729     336.1131      1.970     4.16     1004.938     59.26898     325.6813        24     1.520     0.994  42.43   0
       575    729.8083     43.3391 307.6407837  +6.6684372     497.4487     562.1135     329.6758     83.61759     167.9729     336.0128      1.278     3.42     972.5298     59.26898     85.64636         5     0.765     0.441 -15.96   0
       576    780.8578     40.7595 307.6196538  +6.6712065     1707.171      2862.07     3273.947     84.28708     168.1736     336.3138      1.853     4.45     971.4819     59.26898     233.3743        18     1.427     0.820  41.32   0
       577     94.6368     41.7815 307.9048080  +6.6477987     716.2053     1040.443     1005.958     83.88603     167.9729     336.0128      1.453     3.09     1000.495     59.26898     113.8033         5     0.731     0.452  73.43   0
       578    421.2083     40.7483 307.7691259  +6.6591846     882.9872     1208.075     856.1014     83.75191     168.0398     335.9124      1.525     5.07     981.9466     59.26898     122.2805         9     1.157     0.629  53.31   0
       579    672.0106     40.0918 307.6649144  +6.6678471     569.1169      953.572     1172.835     84.01993      167.772     336.0462      1.510     3.66     974.2061     59.26898      90.3512         5     0.995     0.386  59.05   0
       580    118.5159     39.6165 307.8949579  +6.6494951     882.0455     1356.046     1391.077     83.88603      167.839     336.1466      1.807     3.27     999.9542     59.26898     146.6436         8     0.985     0.588  43.10   0
       581    107.5736     34.7176 307.8996712  +6.6511497     8419.312     14290.15     15482.64     84.15361      167.906       336.18      1.865     4.27     1000.063     59.26898     1040.295        44     1.777     1.165  48.98   0
       582    436.7509     34.3374 307.7628830  +6.6623519     2150.259     3828.222      3932.63     84.28708     168.1067     336.3138      1.890     4.84     980.7352     59.26898     290.8694        24     1.554     0.984  43.50   0
       583    414.5070   1020.7185 307.7388275  +6.2543834     742.4708     938.9872     918.4435     84.01993      167.839     298.8661      1.249     3.36     1017.155     59.26898      173.066         5     0.791     0.413  65.26  16
       584    273.8972     28.4000 307.8307644  +6.6593433     1346.954     2124.412     3176.764     83.75191      167.772      335.812      1.810     3.88     999.2723     59.26898     171.7639        12     1.116     0.730  69.11   0
       585    978.5469   1016.9121 307.5047194  +6.2747838     659.0104     1247.107     1400.595     84.28708     168.0398     335.2089      1.768     3.76     1005.215     59.26898     136.0823         6     1.226     0.331  48.80  16
       586     17.6303     20.9688 307.9375152  +6.6538011     1023.833     1631.244     1091.008     83.75191      167.906     335.9793      1.685     5.94     1004.754     59.26898     137.0839        13     1.477     0.715  54.56   0
       587    808.2699   1015.0292 307.5754975  +6.2698879     6797.127     10601.47     11232.35     84.01992     168.1736       336.18      1.648     4.18     1009.813     59.26898     1165.323        35     1.656     0.973  44.27  16
       588    906.0081   1011.6299 307.5350217  +6.2745489     1468.105      2058.08     1474.581     83.75191     167.9729     336.0128      1.378     3.50     1008.697     59.26898       242.86        11     1.136     0.663  54.75   0
       589    228.7176   1010.3326 307.8163297  +6.2524463     2193.641      3214.83     3377.423     84.42034     168.4407     336.3138      1.597     4.57     1019.904     59.26898     373.7058        17     1.441     0.735  47.07   0
       590    764.9085   1009.4164 307.5936937  +6.2707589     734.4778     1331.507     1896.831     84.01992     167.9729     336.1466      2.012     6.71      1011.25     59.26898      99.5625        14     1.744     0.725  48.75   0
       591    732.0748   1007.5178 307.6073930  +6.2704473     7210.715      10896.5     11649.64     84.55339     168.5075     336.3138      1.609     4.11      1012.38     59.26898     1206.154        30     1.593     0.922  42.53   0
       592    268.2061     22.8559 307.8333171  +6.6614412     1662.928     2713.692     3657.892     83.75191     168.0398     335.9459      2.024     4.90     999.3117     59.26898     194.4078        20     1.516     0.916  29.15   1
       593    335.8662     19.0896 307.8053256  +6.6652656     901.9473     1431.727     1484.714     84.28708     168.3072     336.2469      1.721     4.57     991.6315     59.26898     106.6732         8     0.879     0.676  49.57   0
       594    588.2627   1006.6802 307.6671443  +6.2659906      4132.88     6777.178     7444.808     84.42034     168.2404     336.2469      1.786     4.57     1017.406     59.26898     663.9591        29     1.627     0.987  44.87   0
       595    316.7106     13.2812 307.8134829  +6.6670211     893.3339     1127.737     499.5242     84.01993      168.374     336.3472      1.475     5.15     994.7996     59.26898     111.5137        10     1.080     0.693 -11.84   0
       596    446.8904   1007.6053 307.7258219  +6.2608810      3989.35     6170.178     7203.939     83.75191      167.839     335.9793      1.664     4.13     1016.997     59.26898     740.6632        23     1.474     0.871  39.58   0
       597    723.9392   1006.3008 307.6108126  +6.2706782     1258.856     1519.329     1739.755     84.01992     168.1067     336.3806      1.270     2.98     1012.245     59.26898     177.3627         9     0.849     0.693  53.93   0
       598    764.2408   1002.7941 307.5941936  +6.2734708     1295.722     1978.029     2361.185     83.48305      167.839     335.9459      1.789     4.73     1011.112     59.26898      198.905        14     1.458     0.678  45.91   0
       599    971.7054    997.0647 307.5082265  +6.2827503      6517.53     10524.88     10842.47     84.15361     168.3072     336.2803      1.732     4.42     1004.608     59.26898      988.727        37     1.647     1.023  41.91   0
       600    726.1964    997.8536 307.6101593  +6.2742411     997.4193     1582.075     2359.051     83.61759      167.906     335.8455      1.953     5.36     1011.984     59.26898      177.726        11     1.349     0.657  43.32   0
       601    255.9223    996.9896 307.8054835  +6.2588671     1344.221     1994.076     1938.061     83.88602      167.772     336.0797      1.497     5.12      1019.74     59.26898     207.5658        13     1.338     0.737  40.03   0
