#   1 NUMBER                 Running object number                                     
#   2 X_IMAGE                Object position along x                                    [pixel]
#   3 Y_IMAGE                Object position along y                                    [pixel]
#   4 ALPHA_J2000            Right ascension of barycenter (J2000)                      [deg]
#   5 DELTA_J2000            Declination of barycenter (J2000)                          [deg]
#   6 FLUX_APER              Flux vector within fixed circular aperture(s)              [count]
#   9 FLUXERR_APER           RMS error vector for aperture flux(es)                     [count]
#  12 FLUX_RADIUS            Fraction-of-light radii                                    [pixel]
#  13 FWHM_IMAGE             FWHM assuming a gaussian core                              [pixel]
#  14 BACKGROUND             Background at centroid position                            [count]
#  15 THRESHOLD              Detection threshold above background                       [count]
#  16 FLUX_MAX               Peak flux above background                                 [count]
#  17 ISOAREA_IMAGE          Isophotal area above Analysis threshold                    [pixel**2]
#  18 A_IMAGE                Profile RMS along major axis                               [pixel]
#  19 B_IMAGE                Profile RMS along minor axis                               [pixel]
#  20 THETA_IMAGE            Position angle (CCW/x)                                     [deg]
#  21 FLAGS                  Extraction flags                                          
         1      1.7787     87.1148 307.9349130  +6.6324049     249755.3     364600.4     398482.9     72.99602     130.2684     241.5016      1.595    11.85     841.3806     54.92305     60872.02       252     2.563     1.525 -89.89  28
         2    175.9684     14.5557 307.8649955  +6.6682321     10703.74     16829.14     16868.92     77.73504     155.9041     311.4674      1.676     3.40     833.2986     54.92305     1352.756        43     1.437     1.251 -62.80   0
         3    921.5816     12.3756 307.5552501  +6.6941424     4129.211     6300.204     6801.914     77.73504     155.6562     311.5294      1.663     3.53     816.8613     54.92305     605.0348        33     1.385     1.182 -49.99   0
         4    520.1088     12.7993 307.7220609  +6.6805249     2950.908     4443.843     4413.064     77.36161     155.3458     311.4055      1.572     3.68     820.6052     54.92305     397.6946        23     1.355     0.966 -46.98   0
         5    722.3678     10.9468 307.6380790  +6.6880690     1835.629     2475.383     2378.175     77.98299     155.8422     311.4984      1.480     3.02     820.0933     54.92305     311.7734        18     1.201     0.896 -60.09   0
         6    458.3798     11.2084 307.7477642  +6.6791098     1798.122     2795.413     3077.749     77.73504     155.5942     311.3745      1.677     3.69     821.9346     54.92305     254.1516        17     1.226     0.863 -56.68   0
         7    986.3875      8.6849 307.5284442  +6.6978309      2118.58     3210.108     3438.143     77.73504     155.7182     311.4365      1.754     4.41     813.9189     54.92305     285.7819        22     1.422     1.028 -81.38  16
         8    705.7631      5.0523 307.6451771  +6.6899467     7418.984     11122.48     11565.09     77.98299     155.8422     285.9377      1.599     3.25     820.0502     54.92305     1103.047        33     1.359     1.119 -72.69  24
         9    625.9633      4.3385 307.6783605  +6.6875680     3820.609     5893.418     6111.457     78.10668     155.4701     277.4739      1.642     3.32      820.038     54.92305     538.5931        29     1.375     1.098 -72.75  24
        10    327.8040      4.0881 307.8022606  +6.6776626     895.9478     1491.882     2113.201     77.61076     154.0354     274.0435      1.956     4.43     831.2429     54.92305     144.5712        10     1.105     0.760 -47.84  16
        11    381.2487      3.0286 307.7800894  +6.6798963     629.8396     876.9249     743.2128     77.73504     145.7935     260.2402      1.288     2.24     827.6173     54.92305     147.4022         7     0.738     0.616 -74.58  16
        12     26.8434      1.5185 307.9273973  +6.6685894     4405.849     5448.165     5838.521     70.16406     126.6617     237.3896      1.136     2.55      833.065     54.92305     1058.315        17     1.211     0.698  -3.85  24
        13    426.0230      1.6092 307.7615327  +6.6819865      4298.86     5061.892     5162.943     71.12057     127.7997     238.7681      1.166     3.05     824.0145     54.92305      901.071        17     1.174     0.702   2.94  24
        14    512.3552    997.9576 307.6921152  +6.2735093       1008.8     1292.493     1123.768     77.98299     155.8422     311.4365      1.381     3.19     856.1422     54.92305     148.0775        10     0.903     0.727  -8.09   0
        15    714.2232   1021.3658 307.6075139  +6.2706058     6931.808     11127.01      12137.2     77.61076     151.0614     268.4203      1.739     3.57     854.8198     54.92305     858.1824        37     1.428     1.215 -45.82  24
        16    581.4462   1023.3424 307.6625755  +6.2653439     36680.61     47709.38     50423.45     71.93033     128.7779     239.8974      1.352     4.06     856.4872     54.92305     7433.481        50     1.598     0.883  -5.50  24
        17    570.2820   1020.4218 307.6673090  +6.2661757     4008.508     6598.946     7121.081     77.85912     155.5322     280.2776      1.778     3.48     856.5357     54.92305     552.6435        31     1.376     1.220 -57.19  24
        18    429.2384   1021.5634 307.7258299  +6.2609749     3785.585     6126.334     6830.724     77.85912     149.5199     265.8548      1.747     3.62     856.0211     54.92305     480.4783        31     1.422     1.221 -57.14  26
        19    211.0790   1023.3727 307.8163431  +6.2528999     1553.345     2055.185     2061.486      71.5266     128.2521     239.4141      1.334     3.52     855.5738     54.92305      285.215        13     1.220     0.650 -13.48  24
        20    292.7348    995.1920 307.7833921  +6.2672798     14587.34     23657.32     26007.78     77.61076     155.5942     311.4674      1.778     3.56     855.7064     54.92305     1985.539        58     1.811     1.251 -38.84   0
        21    808.2396    995.2853 307.5693531  +6.2845187      1112.01     1655.351     2094.202     78.10668     155.7802     311.5604      1.736     5.88     852.1047     54.92305     142.3366        15     1.274     0.994 -49.98   0
        22    416.9626    996.2020 307.7317805  +6.2710343     1039.086     1711.875     1439.301     77.23673     155.6562     311.4055      1.575     4.56     855.7154     54.92305     138.0756        12     1.136     0.740 -68.93   0
        23    908.3560    989.4897 307.5279778  +6.2902571     8207.601     13716.29     14516.71     78.10668     155.7182     311.6534      1.817     3.53     850.5214     54.92305     1015.995        47     1.505     1.381 -62.25   0
        24    263.6443    992.4856 307.7955612  +6.2674196     839.9573     1277.743     1258.617     78.10668     155.7182     311.5604      1.430     4.33      855.468     54.92305     146.1541         8     1.188     0.450 -81.49   0
        25    539.6819    988.8235 307.6810765  +6.2781967     8370.983     12862.09     14132.85     77.98299     155.5942     311.4984      1.675     3.40     855.9265     54.92305     1160.683        39     1.440     1.168 -63.28   0
        26    626.1777    991.2402 307.6450822  +6.2800969     518.7816     618.2011    -62.56493     77.73504     155.6562     311.4055      1.335     3.40     855.1443     54.92305     85.40668         5     0.959     0.348 -45.88   0
        27   1003.7401    985.1423 307.4885182  +6.2952363     4433.862     7818.237     8254.713     78.23017     155.7802     311.6224      1.902     3.94     846.2267     54.92305     529.6091        40     1.540     1.368 -58.02   0
        28    882.0200    985.6949 307.5390401  +6.2909443     11473.78     19834.61     21767.79     77.98299     155.6562     311.4055      1.867     3.63      850.553     54.92305     1404.568        52     1.583     1.389 -40.56   0
        29    594.6516    986.0706 307.6583456  +6.2811754     1230.009     1991.087      2020.99     77.98299     155.7802     311.6224      1.655     4.05     855.4899     54.92305     224.8874        12     1.237     0.759 -89.60   0
        30    526.3171    984.6440 307.6867661  +6.2794744     4254.853     6907.777     7931.619     78.10668     155.8422     311.5604      1.823     3.52     855.8422     54.92305     604.4578        35     1.516     1.295   0.03   0
        31    635.7534    984.1803 307.6413435  +6.2833326     1402.608     2443.215      1982.84     77.73504     155.8422     311.4055      1.774     4.39     854.7903     54.92305     223.2623        18     1.354     1.013  87.82   0
        32     61.0245    983.6947 307.8799806  +6.2642326     959.4424     1469.709     959.1765     78.23017     155.5942     311.4674      1.639     5.47     853.1083     54.92305     139.1993        11     1.064     0.794  38.75   0
        33    479.2445    981.2054 307.7064263  +6.2793156     2101.951     3085.597     3446.583     77.48628     155.5322     311.2504      1.591     3.54     855.8608     54.92305      313.261        21     1.231     1.002 -52.87   0
        34    387.8619    980.6060 307.7443881  +6.2764969     530.2266     1014.062     929.5709     77.48628     155.6562     311.3745      1.961     5.00     855.6386     54.92305     69.19385         7     0.984     0.719  54.21   0
        35    913.7552    973.2018 307.5262817  +6.2971626      40715.4      68237.3     73079.73     77.48628      155.408     311.2194      1.813     3.52     850.1155     54.92305     5122.173        79     1.591     1.455 -53.15   0
        36    514.8029    977.4051 307.6917903  +6.2820772     485.4528     713.2153     989.2513     77.48628     155.4701     311.4365      1.595     3.42     855.6882     54.92305     75.24316         5     0.763     0.443 -19.96   0
        37    220.8166    971.5286 307.8140494  +6.2746326     1721.087     2504.231     2194.692     77.61076     155.7802     311.4984      1.554     4.11     854.6105     54.92305     239.5393        17     1.257     0.917 -39.36   0
        38    619.9553    969.4294 307.6483987  +6.2888940     929.5073     1572.355     1593.231     77.73504     155.9041     311.4674      1.953     4.60     854.8091     54.92305     138.9557        11     1.263     0.657 -48.41   0
        39    108.8668    970.1985 307.8605737  +6.2714155      659.261     960.4457     502.2519     77.48628      155.408     311.3745      1.525     4.99     853.4166     54.92305     90.83551         6     1.214     0.582 -37.60   0
        40    811.6296    967.0451 307.5688928  +6.2962923      2302.63     3765.637     3615.913     77.73504     155.9041     311.4674      1.725     3.84     851.6949     54.92305     326.2585        23     1.293     1.100 -45.82   0
        41    759.9779    964.8069 307.5904146  +6.2954892     6449.427     10434.05     11356.26     77.61076     155.6562     311.4365      1.711     3.65     852.7879     54.92305     854.9221        37     1.467     1.208 -60.75   0
        42    546.6495    964.0634 307.6790162  +6.2886533     870.6932      1386.14     1176.108     77.98299     155.7802     311.6534      1.647     5.20     855.1958     54.92305     131.5276        11     1.295     0.634 -44.52   0
        43    229.3869    963.9681 307.8107462  +6.2780423     1512.772     2278.774     2718.437     77.61076     155.5942     311.5294      1.679     3.36      854.531     54.92305     221.4958        16     1.078     0.941 -79.20   0
        44    193.8571    963.5134 307.8255130  +6.2770353     844.4388     1389.085     1416.178     78.10668     155.8422     311.7153      1.954     4.63     854.1401     54.92305     124.1753         8     0.989     0.747 -32.59   0
        45     54.2272    961.9748 307.8835366  +6.2729712     2708.788     4307.013     4257.902     77.61076     155.6562     311.4674      1.630     3.54     852.9094     54.92305     389.2638        25     1.430     1.046 -57.44   0
        46    948.0408    960.0043 307.5124877  +6.3037567     6303.408      10887.5     11931.74     77.36161     155.5942     311.3434      1.825     3.65     848.8052     54.92305     789.2473        40     1.449     1.322 -59.02   0
        47    630.1407    954.1862 307.6446818  +6.2955288     734.4731     1171.414      1003.59     77.48628     155.7802     311.3124      1.321     3.95     854.2885     54.92305     146.8295         6     1.070     0.417 -28.91   0
        48    921.7969    951.5785 307.5236672  +6.3063594     1974.949     3292.861     3064.706     77.73504     155.5322     311.3745      1.792     4.25     849.5034     54.92305     252.8938        21     1.381     0.994 -37.84   0
        49    781.2029    948.2731 307.5821564  +6.3030258     1376.367     2109.894     1945.852     77.61076      155.408     311.4365      1.582     3.79     852.0738     54.92305     183.2512        13     1.028     0.932 -50.87   0
        50    642.6176    947.5341 307.6397247  +6.2986933     4462.407     6995.446      7685.47     77.61076     155.7802     311.4674      1.751     3.48     853.8942     54.92305     597.4363        31     1.409     1.125 -50.12   0
        51    254.7720    947.7371 307.8007540  +6.2855971     4226.884     6455.199     6377.505     77.73504     155.8422     311.5294      1.638     3.56     854.6714     54.92305     599.5474        28     1.336     1.101 -61.60   0
        52    991.6932    947.8397 307.4947693  +6.3102365     779.4914     1234.483     1391.528     78.23017     155.7802     311.6843      1.858     4.07     846.8693     54.92305     128.0595         9     1.113     0.804 -18.85   0
        53    464.5708    946.0904 307.7137007  +6.2933219     1143.115     1691.622     1890.048     78.23017     155.5942     311.5294      1.598     3.47     855.3645     54.92305     160.9821        13     1.006     0.870   4.84   0
        54     23.4887    945.0679 307.8968700  +6.2789161     2349.398       3319.9     3315.743     78.23017     156.0279     311.5604      1.550     3.50     852.7153     54.92305     332.2975        19     1.198     0.952 -51.62   0
        55    874.4540    944.0546 307.5435775  +6.3078846     903.8563     1279.864     1714.782     78.35346     155.8422     311.5914      1.614     5.02     850.0157     54.92305     173.6814        12     1.128     1.054 -43.33   0
        56    966.7846    941.8571 307.5053125  +6.3118753     612.9464     1048.454     750.4959     77.48628     155.7802     311.3434      1.593     4.77      847.765     54.92305     94.99121         6     1.086     0.593  68.53   0
        57    567.3299    940.0308 307.6712377  +6.2992692     1680.126     2595.967      2178.13     77.98299     155.8422     311.5604      1.594     4.31      854.486     54.92305     217.3278        19     1.406     0.892 -52.54   0
        58    290.5553    941.5594 307.7861052  +6.2893503     803.5718     1203.053     1692.455     77.85912     155.8422     311.4674      1.817     3.54     855.2945     54.92305     156.6974         8     1.078     0.589 -57.75   0
        59    998.4032    940.3903 307.4922325  +6.3135362     848.0908     1399.437     1830.004     77.48628     155.5322     311.4365      1.868     5.57     846.6555     54.92305     103.1443        10     1.020     0.859  -0.34   0
        60    945.4102    940.9977 307.5142167  +6.3115166     788.4255     1156.542     840.6103     77.61076     155.5322     311.4674      1.420     5.56     848.5343     54.92305     104.6746         9     1.315     0.664 -30.57   0
        61    605.3403    936.0158 307.6555900  +6.3022005     1769.458     2773.875      3093.65     77.61076     155.7802     311.3434      1.817     6.12     854.3495     54.92305      644.725        12     1.517     0.695  28.07   0
        62     56.1148    936.8676 307.8836014  +6.2834008     785.3218     1144.635     1531.279     78.47656     156.0897     311.6224      2.145     5.32      852.776     54.92305     117.4499         9     0.957     0.835  -1.92   0
        63    286.1283    934.2691 307.7881892  +6.2922116     1543.042     2232.287     2592.413     78.10668      155.966     311.5294      1.549     3.77     855.1491     54.92305     210.1935        14     1.129     0.854 -64.72   0
        64    553.6659    932.5366 307.6771632  +6.3019056     646.2329     809.8941     690.0305     78.10668     155.8422     311.5914      1.402     4.26     854.3101     54.92305      86.5697         6     1.172     0.442 -55.52   0
        65    753.0842    929.9185 307.5944480  +6.3096638     820.4568     1335.865     937.0724     77.85912     156.0897     311.6534      1.717     5.61     852.0978     54.92305     111.5986        11     1.351     0.657 -44.88   0
        66    890.7361    926.7892 307.5373954  +6.3155573     6747.254      10529.6     10577.67     77.61076     155.6562     311.4674      1.686     3.42     849.4558     54.92305      862.162        34     1.408     1.162 -59.19   0
        67    426.8360    923.9208 307.7301150  +6.3012094     2179.339     3542.271     4017.868     77.98299     155.9041     311.5914      1.713     3.90     855.0337     54.92305     325.6927        23     1.387     0.999 -47.56   0
        68    328.2747    922.2928 307.7710935  +6.2985724     9673.021     14923.39     16050.98     78.10668      155.966     311.5604      1.686     3.34     855.3105     54.92305     1314.307        40     1.480     1.173 -56.16   0
        69    248.4259    921.2521 307.8042823  +6.2963189     7158.724     10950.97     11698.44     77.73504      155.966     311.4984      1.689     3.29     854.1098     54.92305     989.5404        38     1.448     1.180 -50.21   0
        70    608.8209    917.6166 307.6547633  +6.3099140     2851.639     2832.906     2216.621     77.85912     155.6562     311.4984      0.694     2.12     853.8139     54.92305     1282.356         5     0.642     0.330 -69.25   0
        71    760.6746    916.0001 307.5917633  +6.3156645     805.1844     1346.493     1599.303     77.36161     155.2215     311.3745      1.752     5.99      851.723     54.92305     88.53632        10     1.029     0.982  26.47   0
        72    576.2322    915.7599 307.6683574  +6.3095887     1124.876     1758.231     1883.554     77.73504     155.6562     311.4674      1.640     4.15      853.895     54.92305     164.3884        12     1.087     0.815 -40.68   0
        73    906.4324    911.8723 307.5313777  +6.3222408     1090.438     1744.118     2323.339     77.98299     155.8422     311.6224      2.075     5.76      848.951     54.92305     142.7825        14     1.227     1.045  -8.86   0
        74    139.2886    911.6387 307.8499207  +6.2966172     688.5257     1005.863     861.8049     78.10668     155.7802     311.6224      1.655     5.17     852.8754     54.92305     84.41669         7     0.965     0.783 -51.99   0
        75    862.7753    910.7347 307.5495440  +6.3212520     686.9609     1270.524     1415.766     77.73504     155.8422     311.4984      1.963     4.76     849.6868     54.92305      98.1311         7     0.975     0.761 -67.67   0
        76    405.0377    910.0295 307.7396338  +6.3062133     648.9893     962.9507     802.0618     77.73504     155.5942     311.4674      1.525     5.34     854.7421     54.92305     91.38007         8     1.362     0.592 -55.37   0
        77    973.6744    907.4114 307.5036053  +6.3263278      684.017     1225.457     1464.205     77.61076     155.4701     311.4365      2.025     5.60     846.9116     54.92305     95.11255         8     1.109     0.796 -35.81   0
        78    835.6328    905.5983 307.5609869  +6.3224657     689.6669     687.1119     588.6597     77.36161     155.6562     311.3434      1.364     5.42     850.1954     54.92305     89.70697         9     1.178     0.711 -52.20   0
        79    742.6859    904.8766 307.5996063  +6.3196556     1707.265     2480.975     2572.476     78.10668     156.1516     311.6534      1.588     5.43     851.7477     54.92305      223.698        18     1.411     0.956 -69.18   0
        80    565.9092    905.5112 307.6729883  +6.3134744     602.3115     768.4536     649.9926     78.10668     156.3369     311.6843      1.241     3.41     853.7418     54.92305     119.7575         8     0.873     0.671 -61.07   0
        81    973.9322    900.5048 307.5037296  +6.3291881     1174.884     2160.563     2968.357     77.98299     155.9041     311.6224      2.371     5.16     846.7772     54.92305     152.9651        18     1.371     1.080 -30.00   0
        82    606.9007    901.1309 307.6561147  +6.3166564     851.9505     1254.455     1162.342     78.10668      155.966     311.5604      1.519     4.28     853.2376     54.92305     120.3683         9     1.089     0.617 -74.72   0
        83    527.9480    901.1036 307.6888991  +6.3140218      1239.25      1883.42     1694.653     77.98299     155.7802     311.8391      1.607     4.25     853.9908     54.92305     213.4029        16     1.276     0.955  -8.78   0
        84    618.3750    900.7902 307.6513617  +6.3171815     584.5578      653.512     730.7529     77.73504     155.6562     311.4674      1.207     3.39     853.0825     54.92305     93.53027         5     0.774     0.431 -69.91   0
        85    661.4406    898.3774 307.6335605  +6.3196199     2666.924     4157.196     4238.293     77.73504     155.6562     311.3745      1.666     3.67     852.3618     54.92305     364.0652        24     1.267     1.145 -76.06   0
        86   1013.1375    897.6616 307.4875448  +6.3316704     631.2874     992.9594     1227.338     78.10668     155.8422     311.6224      1.699     4.79     845.2624     54.92305     91.71527         6     0.938     0.694  20.78   0
        87     57.8884    894.4100 307.8842999  +6.3009901     2780.277     4370.673     4156.665     77.73504     155.5322     311.4055      1.635     3.73     851.8522     54.92305     381.7881        27     1.431     1.077 -80.31   0
        88    821.9537    894.9687 307.5670236  +6.3263973     868.4401     1185.377     1044.897     77.73504     155.8422     311.4984      1.463     6.59     850.2609     54.92305     113.7768        13     1.178     1.034  75.89   0
        89     75.2680    893.7549 307.8771061  +6.3018458     1848.232      3093.63     3132.244     78.10668     155.7802     311.6224      1.768     4.07     851.9776     54.92305     231.5658        18     1.236     1.012 -28.01   0
        90    939.5575    893.5414 307.5182368  +6.3309157     775.5504     1153.882     1071.173       77.983     155.8422     311.6224      1.625     6.27     847.9127     54.92305      106.238        11     1.374     0.804 -27.53   0
        91    201.5773    893.3334 307.8246761  +6.3062706     2301.985     3402.465     3502.087     77.73504     155.8422     311.5294      1.596     3.43     853.2426     54.92305     299.1868        16     1.218     0.804 -47.36   0
        92    234.8949    890.3714 307.8109422  +6.3086140     779.7307     1091.766      1212.39     78.23017     155.5942     311.5294      1.524     4.10     853.6047     54.92305     117.5451         8     0.999     0.642 -65.46   0
        93    656.0560    887.5026 307.6361617  +6.3239297     7035.793     10508.16     11260.83     77.98299     155.8422     311.8082      1.625     3.27     852.1773     54.92305     958.2671        33     1.309     1.157 -61.44   0
        94    340.4680    889.2975 307.7671428  +6.3126051     949.7288     1631.441      1735.55     78.10668      155.966     311.5914      2.079     5.12     854.4983     54.92305     151.6663        12     1.272     0.763 -53.71   0
        95    793.1835    888.2368 307.5791961  +6.3282150     825.2013     1104.773     1038.808     77.73504     155.7182     311.3434      1.404     4.12     850.6662     54.92305     132.7611        11     1.040     0.845 -20.03   0
        96     16.2708    885.7187 307.9018733  +6.3031765     1140.969     1805.737     2254.857     78.35346     156.1516     311.6224      1.707     4.94     851.2713     54.92305     165.4705        13     1.129     0.991  84.48   0
        97    893.7966    883.6616 307.5375701  +6.3334668     2884.272     4898.472     4732.967     77.48628     155.6562     311.3124      1.786     3.61     848.7096     54.92305     388.4436        27     1.294     1.196 -68.48   0
        98     28.9489    884.2635 307.8966585  +6.3042044     1039.027      1577.66     1800.136     78.10668     155.7802     311.6224      1.627     4.35     851.3268     54.92305     139.8185        12     1.108     0.803  31.05   0
        99    339.0504    880.5804 307.7680252  +6.3161566     16653.62     25299.04      26422.1     77.61076     155.9041     311.4055      1.619     3.25     854.2785     54.92305      2232.66        50     1.466     1.223 -52.48   0
       100     73.4328    881.9702 307.8782662  +6.3066496     1204.213     1903.095     1912.445     77.61076     155.5942     311.3124      1.643     3.57     851.7001     54.92305     203.4532        12     1.123     0.793 -66.24   0
       101    209.9789    879.9099 307.8216407  +6.3120954     1260.399     2023.837     1774.801     77.98299     155.6562     311.4984      1.679     4.26     853.2346     54.92305     197.3413        17     1.307     0.953 -30.00   0
       102    389.8556    879.8026 307.7469559  +6.3181838     636.3132     997.4608     874.8705     77.48628     155.6562     311.2814      1.861     4.88      854.011     54.92305     92.33221         6     1.008     0.669  -5.24   0
       103    416.4316    871.7006 307.7361936  +6.3224211     1141.315     1628.969     1778.234     78.10668     155.7182     311.7153      1.597     4.09     853.6011     54.92305     161.4752        15     1.193     0.851 -57.42   0
       104    102.3561    871.3433 307.8666162  +6.3120110      1618.36     2526.556     2456.048     77.98299     155.8422     311.5914      1.696     3.92     851.8112     54.92305     234.2079        20     1.313     0.983 -54.28   0
       105    670.2553    868.0277 307.6309199  +6.3324461     971.1698     1664.012     2304.704     77.73504     155.9041     311.4365      2.297     3.48     851.5457     54.92305       190.27        12     1.084     0.871  77.81   0
       106    497.3732    868.1614 307.7027031  +6.3265980     665.9877     1080.181     1241.711     77.73504     155.6562     311.4365      1.543     4.75     853.4704     54.92305     111.6768         8     1.378     0.465  84.10   0
       107    884.2127    865.4068 307.5421618  +6.3406839     1872.712     2982.603     2812.368     77.73504     155.6562     311.4984      1.688     3.78     848.5285     54.92305     265.1829        19     1.207     1.043 -70.54   0
       108    854.7817    864.9691 307.5543979  +6.3398813     2058.417     3270.447     3130.241     77.73504     155.6562     311.4674      1.611     3.36     848.9542     54.92305     313.6515        19     1.159     0.991 -61.68   0
       109    818.1596    864.3449 307.5696263  +6.3389149     3173.474     4840.155     5073.775     77.98299     155.9041     311.6224      1.718     3.18     849.6339     54.92305     473.1003        24     1.240     1.106 -67.33   0
       110     85.7810    864.6838 307.8737233  +6.3142025     2580.423     3875.131     3907.602     77.73504     155.5322     311.5604      1.612     3.46     851.5033     54.92305     346.6397        22     1.299     0.956 -61.49   0
       111    554.1798    855.8155 307.6795301  +6.3336000     345264.2     513691.8     540203.2     77.85912     155.6562     311.4984      1.602     3.30     852.8607     54.92305     49029.84       178     1.598     1.446 -60.01   0
       112    448.3798    863.0084 307.7232204  +6.3270821     536.7677     847.4163     1301.396     77.73504     155.5942     311.3745      1.201     3.48       853.36     54.92305      138.862         5     0.846     0.413  69.74   0
       113    333.5202    863.1331 307.7709096  +6.3231746     560.0272     669.7554     1347.981     78.23017     156.0279     311.5914      1.342     4.18     853.8081     54.92305     94.45984         5     0.909     0.548  43.06   0
       114    641.9784    859.1047 307.6429616  +6.3351835     1237.028     1727.514     1747.698     77.98299     155.6562     311.4365      1.496     4.35     851.5748     54.92305     175.9792        11     1.066     0.729 -69.33   0
       115    398.4276    858.4413 307.7441161  +6.3272913     7842.711     11746.72     12043.68     77.73504     155.7182     311.4365      1.632     3.24     853.3997     54.92305     1111.227        34     1.382     1.127 -45.36   0
       116    341.5498    856.7847 307.7677894  +6.3260654     13187.95     19613.73     20581.29     77.48628     155.8422     311.3434      1.600     3.10     853.6826     54.92305     2103.631        41     1.367     1.181 -50.70   0
       117    892.4985    851.9865 307.5391710  +6.3465019     5090.142     7801.122     8306.912     77.98299     155.5942     311.3434      1.643     3.40      848.012     54.92305     709.4194        29     1.261     1.197 -41.64   0
       118    659.9307    853.2145 307.6357049  +6.3382167     3653.468     5429.122      5952.69     77.61076     155.7182     311.4984      1.589     3.32     851.2957     54.92305     479.6841        22     1.208     1.040 -47.79   0
       119    731.6906    849.3279 307.6060369  +6.3422233     859.5967     1219.731     950.5301     77.98299     156.0897     311.5914      1.584     3.70     850.8593     54.92305     122.5426         8     0.964     0.867 -24.98   0
       120    634.7961    847.1324 307.6463464  +6.3398862     3447.828     5270.906     5910.831     77.48628     155.5322     311.3745      1.610     3.55      851.395     54.92305     475.7577        24     1.303     1.034 -64.75   0
       121    823.2958    846.1479 307.5681039  +6.3466000     1486.659     2226.735     2138.814     77.98299     155.7802     311.8391      1.564     3.95     849.0648     54.92305     227.1111        13     1.132     0.925 -56.59   0
       122    625.1996    845.9373 307.6503715  +6.3400582     966.6336     1412.199     2101.693     77.36161     155.5942     311.3124      1.608     4.06     851.4675     54.92305     144.8713        10     1.067     0.722 -71.69   3
       123    627.5931    841.7878 307.6495171  +6.3418517      2292.03     3910.233     4459.241     77.73504     155.6562     311.4984      1.848     3.82     851.3625     54.92305     364.9526        26     1.572     1.059 -63.66   2
       124    177.7791    846.8817 307.8361254  +6.3246489      617.722     900.1566     519.1943     77.85912     155.5322     311.5294      1.330     3.28     852.5007     54.92305     108.2028         7     0.814     0.750 -24.09   0
       125   1023.9118    846.0617 307.4847982  +6.3533354     893.4164     1124.479     1075.052     64.72536     120.0895     230.4989      0.941     2.49     842.9487     54.92305     284.7568         5     0.933     0.268 -84.02  24
       126    949.9657    845.4335 307.5155266  +6.3511269     739.4791     1190.216     1023.912     77.73504     155.5942     311.3434      1.600     5.31     846.2105     54.92305     97.19769        10     1.178     0.677 -66.71   0
       127    911.2843    839.7607 307.5317797  +6.3521774     3233.388     5059.048     5207.603     78.10668     155.7802     311.5294      1.681     3.52      847.275     54.92305     484.9114        27     1.332     1.104 -58.22   0
       128    321.3002    840.6821 307.7767405  +6.3320336     1125.053     1528.996     1552.648     78.10668     156.3369     311.6843      1.500     4.36      853.473     54.92305     171.0527        11     1.061     0.730 -39.01   0
       129    369.3376    835.6951 307.7569617  +6.3357061     2867.552     4312.148     4710.493     77.98299     155.9041     311.6224      1.668     3.56     853.1121     54.92305     388.5215        23     1.266     1.099 -75.70   0
       130    505.6979    825.5923 307.7006789  +6.3444533      3254.34      4856.82     5050.459     77.85912     155.4701     311.3745      1.625     3.29     852.2465     54.92305     487.5037        22     1.202     1.039 -45.75   0
       131    850.2412    824.6401 307.5576358  +6.3563812     1111.234     1668.895     2479.352     77.85912     155.8422     311.4674      1.749     3.34     848.0181     54.92305     165.4374        12     0.995     0.808 -74.33   0
       132    570.6766    823.3177 307.6737728  +6.3475709     757.8509     1110.079     780.8966     78.23017     156.0897     311.7153      1.344     3.15     851.4974     54.92305     126.6388         8     0.798     0.775  80.74   0
       133    552.6089    821.5705 307.6813343  +6.3476867     6147.896      9129.99     9848.873     77.61076     155.6562     311.4055      1.628     3.17     851.5991     54.92305      978.405        30     1.341     1.059 -61.60   0
       134    559.3124    821.0695 307.6785675  +6.3481182     1350.904     2212.038     2904.613     78.10668     156.0897     311.6224      1.992     4.15     851.5192     54.92305     166.4294        12     1.038     0.867 -63.73   0
       135    470.4823    820.5469 307.7154720  +6.3453553     1721.155     2401.068     2139.864     78.10668     155.8422     311.6534      1.560     3.48     852.4473     54.92305     239.6175        17     1.137     0.955 -68.47   0
       136    263.8329    821.6302 307.8012454  +6.3379685      698.619       969.78     1292.086     77.61076     155.5942     311.3124      1.722     4.40     853.4031     54.92305     119.7665         7     0.985     0.706 -52.25   0
       137    888.3845    820.0193 307.5419510  +6.3595636     1449.549     2150.763     2386.788     77.85912     155.5942     311.4984      1.687     4.47     847.0777     54.92305     207.6102        18     1.269     1.033 -61.02   0
       138    111.9650    819.5163 307.8643773  +6.3337325     1352.781     2221.776     2468.332     78.10668     155.8422     311.5604      1.687     4.76     851.0045     54.92305     186.4286        15     1.436     0.735 -54.68   0
       139    687.6053    818.4102 307.6253821  +6.3535136     782.1185     1218.091     1618.246     77.61076     155.5942     311.4674      1.821     3.79      850.367     54.92305     102.0044         8     0.963     0.777 -58.81   0
       140    523.2940    815.4727 307.6937126  +6.3492216     20475.97      30130.4     30903.29     77.98299     155.9041     311.6224      1.610     3.27      851.683     54.92305     2872.648        49     1.419     1.207 -47.94   0
       141    364.1913    817.4711 307.7597127  +6.3430577     743.6108     948.0613     931.1512     77.61076      155.408     311.4674      1.551     4.13     852.7186     54.92305     124.3108         8     1.123     0.780 -58.21   0
       142    936.9204    813.7534 307.5220054  +6.3637719     3698.932     5674.517     5684.034     78.10668     155.8422     311.5914      1.633     3.49     845.5112     54.92305     512.0441        26     1.334     1.075 -70.45   0
       143    408.6543    812.1566 307.7414287  +6.3467448     485.4188     690.7789     618.0627     78.10668     155.8422     311.5914      1.394     3.79     852.5052     54.92305     101.3283         5     1.090     0.474  87.85   0
       144     57.0074    811.5745 307.8874655  +6.3351608     647.0764     947.6265     1063.111     77.61076     155.7182     311.4365      1.480     4.86     850.3689     54.92305     92.31281         7     0.970     0.689 -61.03   0
       145     33.4556    805.8198 307.8974393  +6.3367433     1652.886     2446.954     2629.502     77.61076     155.8422     311.4055      1.608     3.45      850.188     54.92305     282.2457        19     1.223     0.987 -75.71   0
       146    578.1201    804.4248 307.6713172  +6.3556210     483.2159     1081.309     1498.365     77.85912     155.6562     311.5604      2.207     7.97      850.895     54.92305     93.06641        11     1.957     0.909 -84.16   0
       147    781.4672    800.0850 307.5870195  +6.3642205     56436.64     84068.59      88992.5     78.23017     156.0897     311.6224      1.622     3.27     848.7712     54.92305      8168.54        86     1.535     1.342 -54.26   0
       148    315.9582    804.2048 307.7801885  +6.3469149     3446.637     5133.232     4912.783     77.48628     155.5322     311.3124      1.560     3.24     852.9692     54.92305     469.4099        24     1.209     1.071 -39.60   0
       149     15.8407    802.2322 307.9048748  +6.3376311     2079.072     3556.231       3439.2     77.73504     155.7182     311.4674      1.736     3.81     850.0897     54.92305     297.7999        22     1.347     1.040 -62.90   0
       150    719.8159    801.7012 307.6125673  +6.3614907     812.4903     1232.629     1398.046     78.10668     155.5942     311.4055      1.493     3.83     850.0098     54.92305     120.7972        10     0.968     0.789 -38.82   0
       151    238.3670    776.3809 307.8133466  +6.3557949     765531.7      1823839      2022769     77.61076     155.6562     311.4055      2.314     4.05      852.129     54.92305     63100.14       638     2.759     2.170 -86.72   4
       152    425.1040    798.7951 307.7350479  +6.3528137     876.4778     1175.547     669.2231     77.85912     155.5322     311.3434      1.453     5.36     852.1951     54.92305     119.2644        10     1.069     0.757 -44.39   0
       153    906.6750    795.4090 307.5351804  +6.3703361     8682.621     13333.93     14307.06     77.73504      155.408     311.4365      1.672     3.35     845.7473     54.92305     1140.438        36     1.377     1.194 -53.39   0
       154    709.6851    794.6854 307.6170099  +6.3640484     22008.11      33746.2     36911.76     77.85912      155.966     311.6534      1.668     3.10     849.7133     54.92305     3504.227        55     1.461     1.282 -63.61   3
       155    703.3945    791.1709 307.6197403  +6.3652890     90319.73     134654.9     141677.1     77.61076     155.6562     311.4055      1.626     3.22     849.5288     54.92305     13182.93        91     1.525     1.299 -60.36   3
       156    348.2818    791.9794 307.7671783  +6.3530484     21013.76     31897.06     33390.42     77.85912     155.5322     311.5294      1.623     3.29     852.1635     54.92305     3062.656        53     1.455     1.256 -52.14   0
       157    410.1243    789.8328 307.7415702  +6.3560113     22398.07     33828.52      35250.6     77.98299     155.8422     311.5294      1.605     3.30     851.9707     54.92305     3145.889        51     1.441     1.213 -57.04   0
       158    397.4044    792.2252 307.7467717  +6.3545965     1427.547      2127.06      2210.84     77.61076     155.5942     311.4365      1.583     3.73     852.0468     54.92305     194.0087        13     1.102     0.813 -64.22   0
       159    636.9730    791.1790 307.6473229  +6.3630618     808.5854     1276.109     908.1574     77.61076     155.6562     311.5294      1.622     6.11     850.0135     54.92305     137.5884        12     1.269     0.828 -48.23   0
       160    947.2687    789.0075 307.5185371  +6.3743350     2064.592     3312.461     3469.237     77.61076     155.5322     311.4984      1.704     4.01     844.1895     54.92305     248.3557        21     1.313     1.029 -74.18   0
       161    903.6432    786.7540 307.5367296  +6.3738085     6702.747     10088.76     10487.44     78.10668     155.8422     311.5294      1.621     3.19     845.5662     54.92305     1023.259        34     1.364     1.145 -64.65   0
       162    644.1644    785.8147 307.6445168  +6.3655175     6538.956     9895.313     9701.105     77.73504     155.6562     311.4055      1.594     3.49      849.697     54.92305     941.8206        29     1.344     1.079 -61.43   0
       163    432.8943    783.7315 307.7323203  +6.3592947     1827.965     2694.927     2934.303     77.98299     156.0279     311.6224      1.569     3.56     851.7178     54.92305     251.5444        18     1.210     0.944 -53.38   0
       164    157.9634    782.6874 307.8465210  +6.3504865     650.2198     1085.532     772.1497     78.10668     155.7182     311.5914      1.780     5.60     851.0009     54.92305     103.3212         9     1.368     0.647 -41.66   0
       165    732.3493    780.0543 307.6080894  +6.3708479     524.8757     538.1962     461.1219     78.23017     155.8422     311.6224      1.282     3.80     849.0016     54.92305     90.34125         5     0.878     0.472 -84.63   0
       166    871.6381    778.1125 307.5503105  +6.3763073     644.7784     1016.585     1049.562     78.10668     155.7802     311.5914      1.438     3.93     846.3057     54.92305     93.25165         6     1.062     0.416  75.79   0
       167    597.1726    777.9155 307.6642968  +6.3672048     1052.247     1437.766     1352.723     78.23017     155.5942     311.4674      1.444     3.61     849.8251     54.92305     142.2029        12     1.067     0.771 -56.11   0
       168    679.2970    775.8400 307.6302624  +6.3708123     2531.083     3750.597     4047.227     78.10668     155.7182     311.7772      1.615     3.67     848.8379     54.92305     371.4443        20     1.277     0.935 -62.75   0
       169    148.8890    776.2532 307.8505064  +6.3528376     901.8384     1589.991     1595.912     78.10668     155.6562     311.7153      1.770     4.66     850.6452     54.92305     147.8372        14     1.219     1.019 -61.97   0
       170    123.2703    776.3667 307.8611406  +6.3519285     966.3687     1466.747     1661.004     77.98299     155.8422     311.6224      1.557     3.58     850.3046     54.92305     145.5373        10     1.025     0.683 -57.97   0
       171    413.0836    772.5115 307.7409248  +6.3632623     54452.21        81668     85973.79     77.85912     156.0279     311.6224      1.623     3.29     851.4493     54.92305     7326.148        78     1.518     1.292 -47.30   0
       172    955.7000    774.3766 307.5155259  +6.3806575     681.0934     882.8275     892.4172     78.35346     155.5942     311.3745      1.641     5.49     843.5079     54.92305     89.91394         8     0.965     0.941 -33.03   0
       173    530.7870    771.5887 307.6920776  +6.3675920     7264.865     10642.99     11062.47     77.85912     155.5942     311.5294      1.588     3.08     849.9313     54.92305     1075.434        32     1.306     1.120 -57.94   0
       174    447.6286    770.1064 307.7266605  +6.3654147     4454.631     6730.625     7267.298     78.23017     155.5942     311.4984      1.615     3.35     851.2698     54.92305     700.8031        26     1.336     1.026 -50.27   0
       175    776.0140    768.2144 307.5903538  +6.3771973     11786.46     17684.61     18848.08     77.85912     155.5322     311.5294      1.579     3.23     847.7015     54.92305     1528.987        41     1.340     1.208 -56.15   0
       176    444.2072    763.4696 307.7283048  +6.3680401     2262.572     3299.177     3878.913     77.61076     155.4701     311.4984      1.683     3.72     851.0838     54.92305     304.1138        23     1.299     1.137 -73.29   0
       177      5.0483    764.3945 307.9106357  +6.3528894     1214.828     1692.454     1739.259     77.48628     155.6562     285.5323      1.456     3.44     849.5048     54.92305     176.5392        12     0.968     0.883  -0.79  16
       178    797.8715    762.6702 307.5814628  +6.3802175     1374.846     2293.017     2225.186     78.23017      155.966     311.5294      1.758     4.30     847.1254     54.92305     183.6847        17     1.183     1.092 -55.90   0
       179    141.8329    760.5012 307.8539685  +6.3591037     2992.379     4681.506     4775.501     78.10668     155.7182     311.7153      1.611     3.43     850.1179     54.92305     399.3947        23     1.298     0.999 -59.61   0
       180    133.8170    760.1145 307.8573101  +6.3589936     11551.45     17806.02     19160.03     77.73504     155.5942     311.5294      1.620     3.21     850.0234     54.92305     1642.516        45     1.475     1.209 -47.92   2
       181    126.0603    757.4678 307.8606205  +6.3598252     2909.551     4524.743     5144.001     78.23017     155.7802     311.5914      1.797     3.70     849.8856     54.92305     379.6688        28     1.364     1.201 -71.26   3
       182    921.6078    756.7501 307.5302748  +6.3867970     6546.237     10065.56     10942.05     77.61076     155.6562     311.2814      1.657     3.25     843.8984     54.92305     962.2309        36     1.385     1.178 -50.91   0
       183    970.6547    756.7310 307.5099065  +6.3884426     1369.282     2143.502     2990.188     78.10668     155.7182     311.5604      1.878     3.75     842.8345     54.92305     205.9553        15     1.127     1.030  63.79   0
       184    677.1191    754.4296 307.6318862  +6.3795796     1815.972     2722.631     3176.487     77.98299     155.7802     311.5914      1.582     3.57     847.8118     54.92305     249.7639        14     1.122     0.820 -59.45   0
       185    563.7994    753.7925 307.6789671  +6.3760465     2363.422      3650.98     3999.127     77.48628     155.5322     311.4055      1.595     3.44     848.7985     54.92305     338.0466        20     1.237     1.043 -61.93   0
       186    411.5723    753.2980 307.7421996  +6.3711445     1121.298     1840.283     1994.139     78.23017     155.5942     311.5604      1.772     4.09     850.8401     54.92305     149.6751        13     1.085     0.879  17.83   0
       187    126.0965    750.9637 307.8608252  +6.3625118     2006.412     3004.541     3324.858     78.10668     155.7182     311.7462      1.599     3.86     849.7409     54.92305     281.1835        17     1.290     0.886 -52.78   1
       188    915.6702    748.9938 307.5330006  +6.3898013      2968.46     4523.121     5138.405     77.61076     155.4701     311.4674      1.632     3.09     843.8308     54.92305     479.6912        22     1.212     1.027 -60.75   0
       189    945.0868    748.4283 307.5208030  +6.3910171     3024.203     4532.497     5269.858     78.23017     155.5942     311.4674      1.641     3.29     843.0724     54.92305     400.6685        24     1.235     1.100 -59.31   0
       190    976.0637    748.0773 307.5079501  +6.3921962     1881.843     3019.122     3071.634     78.35346     155.8422     311.5914      1.727     3.56     842.6401     54.92305     237.6504        16     1.107     0.958 -56.31   0
       191    667.8663    747.7278 307.6359539  +6.3820369     1495.243     2186.819     2127.846     78.10668     155.9041     311.6534      1.521     3.08     847.6127     54.92305     248.8423        12     1.000     0.772 -79.91   0
       192    815.5006    746.2689 307.5746919  +6.3875789     1163.788     1848.427     1711.127     78.10668      155.966     311.5914      1.727     5.01       846.34     54.92305     155.8707        14     1.189     0.998 -57.82   0
       193    891.4259    744.6882 307.5432135  +6.3907691     700.5194      1345.39     1449.567     78.23017     155.6562     311.4365      1.890     6.70     844.6617     54.92305     101.1545         9     1.262     0.998 -82.78   0
       194    240.5660    742.9145 307.8135628  +6.3696864     1872.712     2989.562     3741.175     78.10668     155.7182     311.5914      1.657     3.98     850.6745     54.92305     258.9403        18     1.288     0.900 -55.75   0
       195    933.3303    738.5786 307.5260155  +6.3946915     1023.436     1425.463     1754.865     77.73504     155.7802     311.5294      1.625     4.55     842.9147     54.92305     147.0653        10     1.006     0.832   0.85   0
       196    260.3279    738.4905 307.8055057  +6.3721774     621.5944     828.6078     967.0012     78.10668     156.0897     311.5914      1.461     3.01     850.5294     54.92305     130.1219         6     0.873     0.468  87.00   0
       197    155.9319    738.4420 307.8488589  +6.3686859     676.6017     951.3499     661.5231     78.10668     155.7802     311.6843      1.344     4.23     849.4695     54.92305     102.5693         6     0.972     0.525  76.21   0
       198    907.1945    737.2866 307.5369130  +6.3943520     1167.473     1662.635     1636.549     77.61076     155.5322     311.3124      1.702     4.65     843.7644     54.92305     159.8707        10     1.041     0.713 -54.21   0
       199    959.9373    736.1710 307.5150463  +6.3965740     2426.421     3589.712     4048.067     77.85912     155.8422     311.5294      1.538     2.98     842.6217     54.92305     370.6488        18     1.087     0.926 -27.40   0
       200    679.6599    735.0853 307.6314809  +6.3876517     895.2519      1570.83     2490.062     78.23017     155.9041     311.6843      2.487     4.25     846.9792     54.92305     154.9273        11     1.312     0.661 -58.78   0
       201    470.7054    731.1461 307.7183892  +6.3822751     568.1719     944.9617     1417.134     77.98299     155.8422     311.8082      1.901     5.28     850.1088     54.92305     79.46143         7     1.266     0.623  72.74   0
       202   1001.7183    729.3528 307.4979228  +6.4007838     1782.449     2475.492     2256.979     78.10668     155.8422     311.6224      1.591     3.72     841.9899     54.92305     212.6723        17     1.076     1.046 -43.10   0
       203    627.7402    729.4353 307.6532325  +6.3882458     783.9033     1015.606     1275.395     78.10668     155.8422     311.5604      1.254     3.41     847.6196     54.92305     150.5428         5     0.798     0.422 -22.56   0
       204    803.2974    727.8588 307.5803776  +6.3947723     1078.814     1532.754     1973.776     77.85912     155.7802     311.7153      1.652     5.17     846.1122     54.92305     140.3171        10     1.181     0.640 -53.09   0
       205    889.8213    725.1904 307.5445337  +6.3987661     1480.581      2512.68     2952.204     77.73504     155.5942     311.4055      1.850     4.41     844.2498     54.92305     230.1682        17     1.253     0.980 -37.77   0
       206    863.6871    720.5927 307.5555415  +6.3997912     1118.694     1707.436     2020.804     77.61076     155.5322     311.3434      1.673     4.32     845.0438     54.92305     182.4204        16     1.257     0.945 -61.62   0
       207    846.5657    716.5984 307.5627860  +6.4008682     1528.611     2394.508     2141.631     77.23673     155.6562     311.3745      1.687     4.28      845.224     54.92305     206.9554        14     1.141     0.968 -56.33   0
       208     45.4722    715.3555 307.8955081  +6.3744983     2393.402     3545.275     4283.417       77.983     155.9041     311.6224      1.764     3.60     848.7538     54.92305     364.2074        19     1.318     0.858 -58.80   0
       209    109.4020    714.0107 307.8690061  +6.3772067     749.6059     1649.062     1502.375     77.73504     155.5322     311.4055      2.161     7.56     848.7991     54.92305     110.4363        13     1.795     0.892  84.09   0
       210    563.0137    710.8520 307.6807378  +6.3937498     604.1287     981.8973     729.1989     77.48628     155.7802     311.3434      1.633     5.29     847.5759     54.92305      116.014         7     1.191     0.664  84.09   0
       211    658.1401    704.1548 307.6414573  +6.3997021     6536.063     9540.815     10262.28     77.98299     155.7802     311.6843      1.552     3.29     846.6645     54.92305     934.8663        28     1.311     1.062 -54.10   0
       212    604.7589    703.2686 307.6636563  +6.3982799     1447.547     2356.344     2768.475     77.98299     155.7802     311.6843      1.835     4.23     847.4868     54.92305      220.672        18     1.267     1.031 -42.57   0
       213    526.4105    704.0130 307.6961689  +6.3953464     781.2133     1181.208     902.1954     77.85912     155.5942     311.5294      1.591     3.74     847.8811     54.92305     138.2867         7     0.919     0.630  30.78   0
       214    515.7225    703.4805 307.7006255  +6.3952079     855.1292     1075.357     808.5466     78.35346     156.0897     311.7462      1.545     4.65     848.0963     54.92305     126.0331        11     1.032     0.909 -36.15   0
       215    995.0167    699.2764 307.5017135  +6.4129787     2437.295     4012.166     3943.136     77.61076     155.5942     311.4674      1.704     3.55     840.9366     54.92305     333.3624        26     1.352     1.161 -60.71   0
       216    631.9948    699.6205 307.6524679  +6.4006986      2369.36     3319.173      3715.68     77.73504     155.5322     311.4055      1.489     3.63     847.0426     54.92305     358.2161        18     1.206     0.918 -55.41   0
       217    120.9998    699.8668 307.8646679  +6.3834368     3696.991     5621.545     5987.027     77.36161     155.3458     311.3124      1.592     3.33     848.4182     54.92305     508.6487        26     1.329     1.026 -49.95   0
       218    307.6562    699.8909 307.7871535  +6.3897052     755.0892     1251.868     975.8361     77.98299     155.7182     311.7153      1.681     4.18     848.6973     54.92305     119.8106         8     1.020     0.704 -22.08   0
       219    775.0245    696.2234 307.5931813  +6.4068888     20461.36     30772.59     31891.33     77.61076     155.6562     311.5604      1.594     3.21     845.9496     54.92305     2717.828        46     1.378     1.215 -57.19   0
       220    457.6161    697.9301 307.7249434  +6.3955504     567.4352     706.1439     243.6983     77.61076     155.7182     311.4984      1.456     5.88     848.8186     54.92305     78.34601         8     1.153     0.843 -75.79   0
       221    905.0771    695.8890 307.5391802  +6.4113742     3801.515     5854.984     6273.839     78.10668     156.0897     311.6534      1.618     3.33     843.4064     54.92305     517.3771        26     1.329     1.085 -41.80   0
       222    502.5947    696.3059 307.7063189  +6.3977299     894.5814     1434.572     1424.019     77.85912     155.5322     311.3434      1.801     4.65     848.1717     54.92305     113.3456        10     0.986     0.814 -62.84   0
       223    474.1464    696.5898 307.7181237  +6.3966584     1443.873       2115.5     2045.513     77.48628     155.7802     311.3124      1.565     3.61     848.7188     54.92305      195.546        12     1.022     0.781 -59.83   0
       224    319.7127    696.3303 307.7822668  +6.3915804      758.059     1181.379     1243.203     78.23017     156.0897     311.6224      1.804     3.61     848.6058     54.92305     113.3337         8     0.926     0.760 -66.35   0
       225     83.9700    692.7241 307.8802865  +6.3851390     559.0421     726.1268      387.062     77.98299     155.9041     311.5914      1.335     4.34     848.2933     54.92305     103.8018         6     1.304     0.411  74.07   0
       226    655.5542    688.9523 307.6430422  +6.4058924     7039.142     10569.42     11450.81     78.10668     155.7182     311.5914      1.641     3.28     846.4259     54.92305     1044.176        33     1.368     1.128 -49.54   0
       227    638.2396    690.3057 307.6501876  +6.4047538     1017.434     1423.922     1946.607     78.23017     155.7802     311.6843      1.553     5.32      846.761     54.92305     134.1032        11     1.072     0.811 -66.80   0
       228    248.5114    689.6698 307.8120600  +6.3919371     6344.378     9584.141     10134.27     78.10668     156.0897     311.5914      1.673     3.32     847.9548     54.92305     973.9353        36     1.462     1.149 -56.96   0
       229    350.2264    688.9742 307.7698429  +6.3956427     701.8052     888.9132     935.9966     77.61076     155.6562     311.4674      1.350     3.62     848.6176     54.92305      124.056         6     0.799     0.663 -82.01   0
       230    915.1499    681.5098 307.5354789  +6.4176478     1014.476     1603.047     1306.667     78.10668     155.6562     311.7462      1.673     5.54     843.0815     54.92305     144.1764        11     0.987     0.897   1.44   0
       231    727.2328    677.4536 307.6136598  +6.4130398     3777.862     5781.107     6125.957     77.98299     155.7802     311.5294      1.656     3.59     845.9006     54.92305     505.2914        25     1.230     1.112 -69.12   0
       232    682.4144    677.8753 307.6322592  +6.4113655     1071.464     1586.409     1827.101     77.61076     155.5942     311.4365      1.836     4.84     845.9208     54.92305     162.0868        11     1.169     0.836 -64.83   0
       233    993.5850    674.0285 307.5031538  +6.4233557     8828.163     13544.27     13900.41     77.73504     155.6562     311.4984      1.640     3.29     840.0319     54.92305     1365.462        38     1.372     1.220 -66.88   0
       234    932.1379    674.5073 307.5286582  +6.4211065     2392.551     3547.913     3530.867     78.10668     155.8422     311.6534      1.595     3.43     842.7043     54.92305     335.0131        22     1.242     1.105 -66.53   0
       235     12.4421    673.8440 307.9106281  +6.3905242     1768.997     2898.379     3807.426     77.85912     155.8422     311.4365      2.107     4.69     847.9086     54.92305      264.549        20     1.409     1.127   7.68   0
       236     70.9671    668.7484 307.8864967  +6.3945999     25320.28     39272.61     41690.94     77.98299     155.8422     311.4984      1.664     3.36     847.7816     54.92305      3381.19        59     1.501     1.270 -65.44   0
       237    532.1751    669.6535 307.6949311  +6.4097263     1912.828     2933.826     3293.345     77.61076     155.9041     311.4365      1.671     3.81     846.8458     54.92305     299.8484        19     1.256     0.957 -39.76   0
       238    500.8010    667.1284 307.7080459  +6.4097167     1435.702     2116.895     2116.102     77.48628      155.408     311.4055      1.563     3.17     847.1444     54.92305     225.4757        14     1.027     0.898 -20.24   0
       239    921.5126    666.4626 307.5333408  +6.4240732     1026.423     1482.142     1072.085       77.983     156.0279     311.6224      1.582     3.33     842.6312     54.92305      152.728         8     1.004     0.500 -88.96   0
       240    541.2726    663.5192 307.6913593  +6.4125641      1145.91     1634.562     1982.881     78.35346     156.0897     311.6224      1.668     4.42     846.4465     54.92305     160.9649        12     1.173     0.764 -32.52   0
       241    716.9781    661.0753 307.6184689  +6.4194591      3547.63     5139.307     5688.082     77.73504     155.7182     311.5294      1.523     3.20     845.4058     54.92305     494.7599        24     1.258     1.026 -52.62   0
       242    738.9641    659.3891 307.6093944  +6.4208910     4074.702     5985.714     6076.512     77.61076     155.6562     311.3745      1.541     3.28     845.3506     54.92305      516.018        25     1.238     1.071 -63.65   0
       243    570.3741    657.2579 307.6794839  +6.4161249     3339.953     5099.387     5485.716     77.73504     155.8422     311.4365      1.639     3.54     846.0709     54.92305     487.7703        26     1.311     1.154 -38.72   0
       244    406.3688    657.9807 307.7475719  +6.4103248     1342.563     1989.546       1878.8     77.61076     155.6562     311.4674      1.605     3.90     847.6831     54.92305     186.5405        14     1.173     0.792 -49.01   0
       245   1011.8688    655.4976 307.4961808  +6.4316172     4996.734     7723.498     8136.837     77.98299      155.966     311.5914      1.704     3.49     839.2744     54.92305     616.6724        35     1.368     1.229 -49.86   0
       246    230.9746    656.7906 307.8204524  +6.4049225     1722.277     2620.908     2649.196     77.73504     155.6562     311.4674      1.590     4.02     846.7681     54.92305     268.5674        18     1.376     0.863 -57.97   0
       247    977.2582    654.3903 307.5105927  +6.4309193     8024.692     12469.83     12749.04     77.48628     155.7802     311.3124      1.652     3.32     840.4099     54.92305     1098.778        37     1.387     1.194 -62.61   0
       248    314.3644    656.4694 307.7858320  +6.4078585     1519.576      2326.08     2388.908       77.983     155.9041     311.6843      1.690     4.28     847.0937     54.92305     239.4703        18     1.345     0.972 -23.43   0
       249    696.9637    653.1244 307.6270483  +6.4220720     985.7345      1303.32     1697.478     77.98299     155.9041     311.6224      1.382     3.13     845.0898     54.92305     160.8445         9     0.860     0.758  77.14   0
       250     88.7153    651.1263 307.8797219  +6.4024734     810.8093      1380.81     1570.804     78.23017     156.1516     311.6224      1.872     5.59     847.5236     54.92305     114.7653         9     1.154     0.764 -60.21   0
       251    422.6211    648.6068 307.7411381  +6.4147407     2796.279     4426.571      4203.43     77.73504     155.6562     311.4055      1.727     3.66     847.3648     54.92305     444.7897        23     1.473     0.958 -56.75   0
       252    135.6753    647.7110 307.8603356  +6.4054647      24285.4     37247.23     38863.48     78.10668     156.1516     311.6843      1.668     3.27     847.1202     54.92305     3567.732        52     1.469     1.232 -58.72   0
       253    803.8864    648.3286 307.5828021  +6.4276296     1264.883     1875.851     1771.899     78.23017     156.0897     311.6224      1.556     3.96     844.7054     54.92305     161.3246        15     1.046     1.008 -63.23   0
       254    355.3230    642.5903 307.7692900  +6.4149650     771.3455     1314.441     1325.486     77.73504     155.4701     311.4055      1.825     5.72     847.2826     54.92305     122.4812         9     1.331     0.692 -60.22   0
       255    972.0806    637.3635 307.5133136  +6.4377767     6805.949     11296.08     12034.92     77.98299     155.9041     311.5914      1.768     3.59     840.2291     54.92305       966.17        40     1.406     1.356  72.34   0
       256   1023.6977    632.0582 307.4920528  +6.4416900     1511.156      2561.03     3101.294     67.35635     123.3411     234.0727      2.135     5.48     839.1267     54.92305     348.3994        18     2.135     0.566  87.62  24
       257    930.1191    634.3174 307.5308438  +6.4376333     820.9932     1194.041     1364.117     78.10668     156.0897     311.6843      1.579     4.81     841.0275     54.92305     124.9279         9     1.022     0.641 -73.44   0
       258    565.7347    632.5789 307.6822409  +6.4261591     48536.94      73462.9     77204.78     77.73504     155.8422     311.4674      1.648     3.23     844.8876     54.92305      7390.75        70     1.492     1.294 -50.73   0
       259    524.6334    633.0244 307.6992960  +6.4245971     620.3777     879.2529      953.942     77.61076     155.6562     311.3745      1.517     5.06     845.2626     54.92305     87.15247         6     1.135     0.665 -71.79   0
       260    173.1924    629.2541 307.8453786  +6.4143478     2756.014     4445.362     4652.204     77.61076     155.6562     311.3124      1.706     3.59     846.3856     54.92305     397.0786        25     1.425     1.033 -63.80   0
       261    495.7532    629.8042 307.7113988  +6.4249580     636.9831     929.0815     395.0225     77.48628     155.5942     311.2814      1.452     4.20     845.5388     54.92305     137.9991         7     1.125     0.608 -79.69   0
       262     16.4481    636.4188 307.9102304  +6.4061109     1211.209     1907.118     2193.157     77.61076     155.8422     311.4055      1.751     3.66     847.4705     54.92305     174.1689        14     1.084     0.897 -57.70   0
       263     65.9447    623.1929 307.8901224  +6.4132393     1314.045     1943.895      2470.79     77.61076     155.6562     311.3124      1.585     4.22     847.2067     54.92305     152.9114        14     1.178     0.847 -61.30   0
       264    462.9926    616.3649 307.7254573  +6.4294078     62080.02     95235.26       100181     77.61076     155.6562     311.3745      1.642     3.29     845.5248     54.92305      7929.07        82     1.517     1.325 -51.81   0
       265    648.6150    613.6625 307.6484549  +6.4367465     947.4569     1125.033     1255.466     77.61076     155.7802     311.4055      1.465     4.64     843.5621     54.92305     117.9252        11     1.053     0.783  17.07   0
       266    137.3746    611.6058 307.8608497  +6.4204288     1714.641     2509.808     2459.485     77.61076     155.6562     311.4365      1.557     3.56     846.3582     54.92305     225.4597        14     1.077     0.884 -64.00   0
       267    931.8339    609.8369 307.5309522  +6.4477985     681.6349      986.968     926.1949     77.85912     155.5942     311.3745      1.531     4.36     839.9324     54.92305     87.27063         8     0.809     0.706 -43.32   0
       268    416.5576    609.2604 307.7449819  +6.4307826     945.6752     1236.737     1412.514     78.10668     155.8422     311.6843      1.389     4.05     846.3748     54.92305     159.0717         8     0.926     0.762 -49.74   0
       269    193.5263    610.5467 307.8375657  +6.4227558     1180.907     1006.755     1157.254       77.983     155.8422     311.5914      0.829     0.53      845.949     54.92305     534.2108         5     0.699     0.344  36.25   0
       270    608.9667    608.0870 307.6651095  +6.4377203     893.9821     1395.011     1716.396     78.10668     155.7182     311.5914      1.652     4.51     843.3168     54.92305     119.2928        10     1.100     0.736 -11.66   0
       271      8.8824    607.8194 307.9143397  +6.4176637     651.9272     985.1447     1689.891     77.73504     155.5322     311.5294      1.337     3.06     847.1919     54.92305     106.1394         6     0.746     0.565  53.13   0
       272    490.9834    607.1715 307.7141418  +6.4341428     662.8605     1295.376      1686.66     77.73504     155.5942     311.4984      2.007     3.89     844.6147     54.92305     83.48303         6     0.928     0.466 -33.43   0
       273    308.3694    605.5516 307.7900391  +6.4286800     2088.466     3311.446     3454.359     77.73504     155.9041     311.4984      1.697     3.57     845.9166     54.92305     324.3884        20     1.277     1.013 -61.38   0
       274      6.4331    618.1271 307.9150082  +6.4133254     1931.448     3006.221     3483.778     77.98299     155.8422     299.6524      1.746     3.61     847.2937     54.92305     247.2793        20     1.178     1.065 -58.29  16
       275    735.0090    599.9779 307.6130324  +6.4452891     5332.982      8140.96     8703.945     77.73504     155.5942     311.4365      1.609     3.41     843.4734     54.92305     801.8082        27     1.277     1.104 -54.30   0
       276   1005.4664    595.7084 307.5008426  +6.4560904     1018.492     1669.657     1520.018     78.10668     156.0279     311.5914      1.698     4.08     838.9065     54.92305     163.0551        13     1.151     0.987  39.18   0
       277    788.6115    595.1476 307.5909313  +6.4490768     13793.61     20858.15     21902.63     77.48628     155.7802     311.3124      1.606     3.19     843.2175     54.92305     2121.668        44     1.493     1.150 -55.55   0
       278    531.0309    595.2595 307.6979100  +6.4404043     1141.244     2058.229     2161.028     77.85912     155.8422     311.5604      1.924     3.94     843.8371     54.92305     167.8855        16     1.180     1.008  69.61   0
       279    612.4691    593.2151 307.6641549  +6.4439781     2923.693     4398.076     4434.063     77.61076     155.7182     311.4984      1.620     3.49     843.0574     54.92305     443.7628        26     1.354     1.078 -55.13   0
       280    929.5482    589.4027 307.5325866  +6.4561594     1100.582     1807.768     2465.634     77.48628     155.5322     311.1884      1.979     4.16     839.5286     54.92305     142.1392        13     1.127     0.823 -75.45   0
       281    370.7508    587.3113 307.7647461  +6.4383069     836.8123     1164.464     839.1102     78.10668     155.6562     311.6843      1.542     3.91     845.3364     54.92305     125.5485         8     1.030     0.660  34.11   0
       282    224.8729    586.8022 307.8253489  +6.4336139     1179.391     1814.072     2030.707     77.61076      155.408     311.4365      1.522     2.90     845.0974     54.92305     220.4882        10     0.919     0.709 -76.44   0
       283    864.6052    578.4976 307.5599264  +6.4584922     2951.791     4173.978     4499.399     77.85912     155.5322     311.3124      1.540     3.36     841.3036     54.92305      449.012        20     1.210     0.979 -63.70   0
       284    159.6888    578.4339 307.8527032  +6.4348757     613.9953       917.34     368.9857     78.23017     155.7802     311.5914      1.560     5.19     845.6579     54.92305     82.61255         7     1.111     0.692  34.73   0
       285    823.2988    575.9260 307.5771693  +6.4581732     2588.782     3887.719     3860.682     77.61076      155.966     311.5604      1.607     3.74     842.0521     54.92305     387.5304        21     1.249     1.003 -77.65   0
       286    794.4147    571.9546 307.5892996  +6.4588471     2684.869     3820.579     4624.508     77.48628     155.6562     311.3745      1.600     3.36     842.4081     54.92305     444.9803        20     1.201     1.001 -51.77   0
       287    251.4003    570.7676 307.8148729  +6.4411264     7931.182     12031.92     12665.56     77.48628     155.6562     311.3434      1.642     3.30     844.4492     54.92305     1245.586        36     1.409     1.149 -63.49   0
       288    803.9734    567.0950 307.5854925  +6.4611733     159319.8     238827.9     250901.7     78.23017     155.5942     311.4674      1.601     3.28     842.1052     54.92305      22629.9       123     1.548     1.364 -60.27   0
       289    736.4431    571.8658 307.6133810  +6.4569444     684.6089     1103.894     2159.197     78.10668     155.7802     311.6224      1.516     4.23     842.8576     54.92305     101.8113         6     1.057     0.483 -82.99   0
       290    855.8054    569.1899 307.5638937  +6.4620412     464.3089     697.9571     1006.261     77.61076     155.5942     311.4674      1.376     3.70     841.0548     54.92305     101.5837         5     1.010     0.390 -44.90   0
       291    185.5671    565.3168 307.8423986  +6.4411624     58185.91     89782.89     96025.27     78.10668     155.6562     311.5294      1.700     3.30     845.0519     54.92305     7997.826        90     1.615     1.346 -60.32   0
       292    109.5370    561.5480 307.8741023  +6.4401590      6254.94     9613.216     10357.55     78.10668     155.7802     311.5604      1.696     3.13     845.7928     54.92305     917.7111        38     1.398     1.240 -54.23   0
       293    974.9153    558.4533 307.5147804  +6.4704531     1378.188     1998.418     1914.311     78.10668     155.7802     311.7462      1.566     3.92     837.9187     54.92305     224.7236        15     1.180     0.925 -76.59   0
       294    995.4709    557.7938 307.5062645  +6.4714116     718.1127     1005.923     188.7182     77.61076     155.4701     311.4984      1.343     1.78     837.4588     54.92305     174.5578         5     0.664     0.486  75.66   0
       295    224.5147    556.7678 307.8265116  +6.4460024     877.3296     1600.904     2022.422     78.10668     155.6562     311.5294      2.147     5.52     843.9949     54.92305     116.3087        10     1.306     0.657 -35.07   0
       296    840.4516    554.3434 307.5707691  +6.4676580     4476.956     6450.834     6379.523     78.10668     155.8422     311.5914      1.568     3.13     840.7391     54.92305     696.5394        28     1.301     1.087 -66.58   0
       297    358.9403    552.4753 307.7708258  +6.4522933     17323.57     26339.45     27368.55     78.35346     155.8422     311.5604      1.635     3.27     843.6548     54.92305     2282.466        47     1.454     1.218 -57.37   0
       298    449.1445    552.4581 307.7333613  +6.4553292     792.2923     938.8224     784.7253     78.23017     155.9041     311.6224      1.416     4.70     843.6335     54.92305     105.1757         8     0.970     0.647 -51.27   0
       299    160.7291    551.3685 307.8531854  +6.4460854     1972.063     2865.461     3281.108     77.98299     155.8422     311.5604      1.732     2.90     845.4248     54.92305     301.7292        17     1.064     0.953 -49.46   0
       300    235.6740    549.4421 307.8221242  +6.4494023     970.2771     1381.397     2052.127     77.98299     155.9041     311.6224      1.661     3.63     843.6606     54.92305     146.9429         9     0.879     0.827  88.72   0
       301    525.3265    547.4268 307.7018892  +6.4599624     6327.514     9508.168     9444.533     77.73504     155.7802     311.5294      1.626     3.27     843.0278     54.92305     873.2024        30     1.369     1.078 -57.16   0
       302    794.4837    547.6910 307.5900855  +6.4688677      5943.68      8596.71      9119.56     77.85912     156.1516     311.6843      1.608     3.23     841.5793     54.92305     910.9284        29     1.265     1.114 -74.61   0
       303     98.2831    548.1903 307.8792277  +6.4452950     893.3052     1137.454     1057.891     77.73504     155.5322     311.4365      1.373     3.22      845.539     54.92305     133.5066         9     0.894     0.696 -32.09   0
       304    383.6535    544.1743 307.7608413  +6.4565507     1364.745     2038.579      1512.44     77.73504     155.9041     311.4984      1.590     3.74     843.3406     54.92305     233.0601        15     1.214     0.841  86.56   0
       305    267.5733    536.9536 307.8092970  +6.4556313     84689.62     132327.8     139788.7     77.73504     155.9041     311.4984      1.686     3.27     843.0504     54.92305     12702.99        98     1.590     1.364 -61.22   0
       306    570.1145    540.4672 307.6835209  +6.4643376     2357.611     3679.645     3957.619     78.10668     156.0897     311.6224      1.729     3.87     842.4785     54.92305     298.7806        23     1.424     0.975 -37.19   0
       307    172.3487    540.5465 307.8487251  +6.4509446     6908.567     10236.15     10077.77     78.23017     155.7802     311.6224      1.632     3.28     844.9472     54.92305     940.6594        31     1.364     1.072 -54.31   0
       308    852.9937    540.9375 307.5660094  +6.4736125     574.9719     963.3283     889.1689     77.48628     155.6562     311.3745      1.708     3.74     839.9044     54.92305      97.9646         5     0.997     0.403  62.11   0
       309    810.8796    539.7374 307.5835423  +6.4727000     1312.066     2079.391     2469.279     78.23017     155.9041     311.5914      1.605     4.05     840.9624     54.92305     203.5044        12     1.210     0.733 -70.67   0
       310     43.8157    539.2090 307.9021525  +6.4471682     4938.497     7856.062     8322.989     77.85912     155.5942     311.4674      1.675     3.42     846.5108     54.92305     680.7649        35     1.421     1.203 -60.97   0
       311    557.1240    534.1350 307.6891296  +6.4665166     880.2292     1279.637      1650.99     78.23017     155.8422     311.5604      1.620     5.69     842.4026     54.92305     138.0325        11     1.225     0.744 -64.44   0
       312    494.3560    527.8337 307.7154123  +6.4670133     39275.52     66412.68     71339.34     77.73504     155.8422     311.4674      1.825     3.46     842.6418     54.92305     5646.206        80     1.638     1.471 -35.69   0
       313    251.4140    531.9938 307.8161759  +6.4571357     1460.723     2337.986     2540.946     77.73504     155.5942     311.4365      1.689     3.98     842.9686     54.92305     228.2122        17     1.342     0.861 -46.32   0
       314    966.9323    530.7983 307.5190231  +6.4816053     1642.255     2295.428     2087.071     77.61076      155.408     311.4055      1.452     3.69     837.3126     54.92305     220.4515        15     1.184     0.848 -64.88   0
       315    790.7058    529.4996 307.5922654  +6.4762524     16501.16     24186.24      25521.9     78.10668     156.3369     311.4365      1.621     3.18     840.9891     54.92305     2442.696        44     1.396     1.165 -66.18   0
       316    644.5954    526.1146 307.6530677  +6.4727595     867.9636     1339.197     1538.697     77.61076     155.4701     311.2814      1.753     3.37     841.4393     54.92305     152.8394        10     0.937     0.789 -53.36   0
       317    716.5713    521.8965 307.6233135  +6.4769111     1265.077     2437.655     2516.421     78.23017     155.5942     311.5914      1.981     6.41     841.2604     54.92305     208.5043        17     1.561     1.124 -79.29   0
       318    206.6146    523.9117 307.8350553  +6.4589657     1747.068     2822.653         2967     77.85912     155.6562     311.4984      1.684     3.82      843.446     54.92305     288.4183        21     1.370     1.025 -51.30   0
       319     42.2092    524.2407 307.9033260  +6.4532940     1280.775     2027.864     2380.984     77.48628     155.6562     311.3124      1.643     4.41     846.0917     54.92305     201.7963        15     1.304     0.882 -77.26   0
       320    654.2347    522.9151 307.6491715  +6.4744034     2943.451     4427.811      4841.54     78.10668     155.7182     311.5604      1.624     3.55     841.2945     54.92305     454.4632        22     1.212     1.099 -68.25   0
       321    664.4827    522.6252 307.6449246  +6.4748663     1257.999     1969.936     2269.182     77.85912     155.5942     311.5914      1.751     5.48     841.1915     54.92305     150.3071        12     1.218     0.697 -46.52   0
       322     70.0617    519.6036 307.8919151  +6.4561471     503.7765     908.1441     1613.818     77.48628     155.5942     311.3124      2.808     5.21     845.5417     54.92305     84.81049         6     0.983     0.780  74.11   0
       323    391.8451    518.5779 307.7583018  +6.4673941     1754.869     2727.769     3067.208     77.73504     155.8422     311.4365      1.803     3.74     842.1241     54.92305     261.0591        15     1.075     0.959  67.67   0
       324    323.5714    516.6498 307.7867239  +6.4658966     3663.563     5799.027     5542.881     77.73504      155.966     311.4984      1.685     3.65     841.9645     54.92305     595.7997        27     1.396     1.067 -64.51   0
       325    138.6719    515.2959 307.8635651  +6.4602363     25230.33     39302.97     41396.68     77.98299      155.966     311.5914      1.683     3.38      844.707     54.92305     3423.819        55     1.465     1.268 -57.24   0
       326    503.3263    516.3139 307.7120744  +6.4720706     2129.917     2996.947     2977.565     78.23017     156.1516     311.5914      1.506     3.48     842.1807     54.92305     300.5145        18     1.196     0.955 -52.02   0
       327    866.6857    515.4344 307.5611778  +6.4846002     1488.155     2083.224     2113.379     78.10668     155.7182     311.5914      1.546     3.54      839.007     54.92305     268.7405        16     1.266     0.780 -36.58   0
       328    103.7526    513.4451 307.8781306  +6.4598246     2627.395     4106.802     4705.506     78.10668     155.7182     311.6224      1.757     3.37     844.9719     54.92305     374.2283        20     1.237     0.976 -77.68   0
       329    340.5999    511.7021 307.7798181  +6.4685116     951.0982     1481.859     1454.426     77.61076     155.4701     311.2194      1.707     5.81     841.7252     54.92305     124.9984        11     1.285     0.739 -76.98   0
       330    964.2197    510.0961 307.5208436  +6.4900626     5134.836     7769.168      8144.02     77.98299     155.6562     311.4055      1.615     3.30     836.8138     54.92305     737.2268        29     1.321     1.103 -80.21   0
       331    537.5173    502.6270 307.6983337  +6.4788684     1463.155       2075.7     1497.326       77.983     155.6562     311.5294      1.535     3.79     841.5329     54.92305      226.498        18     1.215     1.043 -74.60   0
       332      3.0080    499.6281 307.9204397  +6.4621345     24289.17     37596.73     39051.19     77.73504     145.3293      259.869      1.664     3.39     845.7063     54.92305     3253.994        51     1.513     1.212 -65.64  24
       333    435.6869    496.4940 307.7408363  +6.4779841     41851.81     64418.65     67256.68     78.10668     156.2751     311.6534      1.705     3.37     841.1919     54.92305     6036.549        63     1.495     1.281 -56.75   0
       334    643.6887    496.2172 307.6544495  +6.4850734     12004.16     18243.75     19446.64     77.85912     155.5942     311.4674      1.627     3.20     840.9249     54.92305     1782.717        42     1.381     1.206 -59.08   0
       335    283.6627    496.6459 307.8039746  +6.4728144     1044.635     1812.421     1523.246     77.98299     155.7802     311.6534      1.821     7.02     841.0941     54.92305     145.5139        15     1.614     0.858 -55.69   0
       336    200.9121    494.0423 307.8384325  +6.4711062     18182.22     29129.56     30793.75     78.10668     155.8422     311.6224      1.716     3.40      842.738     54.92305     2335.715        56     1.475     1.410 -63.81   0
       337    166.6233    495.1737 307.8526358  +6.4694851     1501.984     2294.414     2253.093     77.61076     155.7182     311.4984      1.616     3.54     843.7745     54.92305     228.0122        16     1.202     0.925 -57.64   0
       338    977.6683    494.7171 307.5157728  +6.4968615      1264.58     1880.081     1953.979     78.35346     156.0897     311.6224      1.644     4.16     836.0425     54.92305     198.2772        13     1.186     0.876 -33.19   0
       339    817.5827    494.0572 307.5822913  +6.4917852     842.7752     1301.948     1206.429     77.61076     155.7802     311.3434      1.464     4.94     839.4548     54.92305     155.0331        11     1.376     0.655 -75.82   0
       340    565.5781    492.9862 307.6870028  +6.4837898     2639.494     4199.234     4433.866     77.85912     155.6562     311.4984      1.740     3.35     841.1314     54.92305     397.0941        26     1.407     1.149 -66.24   0
       341    906.2300    493.9114 307.5454740  +6.4948083     616.9954     775.8271     794.1355     78.23017     155.6562     311.5294      1.455     4.53     837.7442     54.92305     83.56464         8     1.115     0.522 -34.24   0
       342    939.3398    490.1729 307.5318461  +6.4974579      4853.41     7130.867     7434.132     77.73504     155.9041     311.4674      1.576     3.41     836.8954     54.92305     714.6541        25     1.289     1.031 -52.19   0
       343    612.4535    488.4307 307.6676855  +6.4872418     6378.376     9920.644     10975.46       77.983     155.9041     311.4984      1.743     3.41     840.9287     54.92305     990.6438        36     1.496     1.200 -77.62   0
       344    100.1478    489.1349 307.8804496  +6.4697401     1216.884     1685.163     1780.161     78.10668     155.7802     311.5604      1.446     3.28     844.6623     54.92305     206.7347        11     0.968     0.765 -45.39   0
       345    961.9250    482.4354 307.5227239  +6.5014069     3492.893     5125.777     5425.159     77.98299     155.9041     311.5914      1.542     3.32     836.0912     54.92305     536.9568        25     1.367     0.982 -59.81   0
       346    400.0992    481.1884 307.7561337  +6.4831087     689.3149     884.5734     1160.498     77.85912     155.5942     311.3745      1.298     4.82     840.2419     54.92305      102.837         8     1.080     0.718 -68.22   0
       347    524.7104    479.7263 307.7044241  +6.4878943     7271.531     10863.41     10890.43     78.10668     156.0897     311.6224      1.608     3.25     840.8137     54.92305     1116.238        31     1.344     1.106 -60.80   0
       348    370.6760    479.9619 307.7683962  +6.4826269     2671.143     4260.544     4326.316     77.98299     155.9041     311.5914      1.672     3.55     840.1798     54.92305     374.9111        22     1.336     0.984 -65.50   0
       349    533.8801    476.5930 307.7007208  +6.4894955     779.9863     1299.564     1133.236     77.73504      155.408     311.4055      1.660     5.72     840.5358     54.92305     104.5391        11     1.289     0.932  89.65   0
       350    881.1916    475.6564 307.5564868  +6.5015091      3178.29     4813.494     5540.285     77.48628     155.7802     311.3434      1.606     3.49     837.6486     54.92305      506.754        24     1.312     1.006 -52.79   0
       351    229.0402    474.8086 307.8273990  +6.4799936     591.2618     957.1464     1054.615     77.48628     155.6562     311.3124      1.611     4.19     841.3005     54.92305     109.5665         6     1.210     0.414 -54.83   0
       352    888.6497    470.1461 307.5535736  +6.5040335     2205.628     3212.974     3767.808     78.10668     155.8422     311.6224      1.556     3.26     837.1171     54.92305     318.9064        19     1.166     0.987 -54.72   0
       353    107.2573    469.5854 307.8781575  +6.4780510     887.4905     1451.223     1329.845     77.48628     155.7182     311.2504      1.636     4.75     844.2307     54.92305     135.8889        10     1.238     0.796  48.61   0
       354    928.0564    469.4548 307.5372277  +6.5056355     1255.862     1664.266     1115.842     78.23017     155.9041     311.6224      1.473     3.66      836.331     54.92305     190.1802        12     1.079     0.797 -39.36   0
       355    712.5051    466.1313 307.6268763  +6.4997999     3037.857     4538.756     4373.351     77.98299      155.966     311.6224      1.607     2.98     839.2125     54.92305     488.5036        23     1.222     1.027 -75.04   0
       356    266.4948    467.8777 307.8120762  +6.4841149      571.639     991.7125     987.3815     77.85912     156.0279     311.6224      1.842     5.39     840.1985     54.92305     81.61218         7     1.022     0.804  48.62   0
       357    423.2879    465.1084 307.7470440  +6.4905265     849.7682     1319.785     1660.367     78.10668     156.2751     311.7153      1.882     4.53     839.3065     54.92305      158.968         7     1.034     0.565 -70.59   0
       358    383.5010    464.0956 307.7636042  +6.4896086     3718.204     5798.968     6012.576     78.10668     156.3369     311.4365      1.716     3.51     839.1865     54.92305     533.4175        27     1.379     1.073 -54.78   0
       359     74.2313    465.0869 307.8920267  +6.4787959     1940.944      3136.38     3035.769     78.23017     155.6562     311.5294      1.714     3.49     844.4835     54.92305     288.1675        20     1.266     0.963 -61.79   0
       360    611.1951    460.7251 307.6691401  +6.4986390      9849.04      15051.5     15613.74     77.73504     155.3458     311.5294      1.644     3.35     839.2719     54.92305     1522.858        40     1.414     1.189 -61.08   0
       361    773.8598    457.4160 307.6016832  +6.5054516     16623.45     24833.53     26074.91     77.61076     155.7802     311.3434      1.614     3.26     838.3665     54.92305     2345.888        48     1.542     1.199 -49.17   2
       362    777.4930    452.5325 307.6003380  +6.5075895     1558.092     2482.944     2811.688       77.983     156.0279     311.6224      1.723     3.91     838.1667     54.92305     219.3555        15     1.194     0.921 -43.01   3
       363    293.5955    457.7278 307.8011622  +6.4892167     2498.737     4018.843     3891.258     77.73504      155.408     311.4365      1.693     3.55     839.2375     54.92305     371.8083        25     1.386     1.061 -76.19   0
       364    802.5978    454.4232 307.5898463  +6.5076486     1219.186     1967.399     1844.672     77.73504     155.5322     311.4055      1.774     4.00     838.0616     54.92305     205.2438        13     1.160     0.919 -58.90   0
       365    376.5844    454.2779 307.7668080  +6.4934298     1694.724     2637.073     3352.182     77.73504     155.5942     311.4365      1.774     3.62     838.5656     54.92305     220.8885        17     1.196     0.899 -62.54   0
       366    959.0994    452.1673 307.5249122  +6.5138101     1921.354     2999.723     2529.026     78.10668     155.7182     311.7462      1.626     3.55     834.7495     54.92305     279.5319        17     1.190     0.928 -65.46   0
       367    706.9818    451.2183 307.6296717  +6.5057725     532.1311     918.3663      856.028     77.85912     155.5942     311.5294      2.001     3.84     838.4576     54.92305     72.78845         5     0.822     0.514  58.44   0
       368    111.3409    449.0795 307.8771546  +6.4866549      4502.37     7087.565     7525.371     78.23017     155.8422     311.5294      1.687     3.15     843.7513     54.92305     693.1449        30     1.302     1.169 -42.75   0
       369    749.3951    448.1568 307.6121566  +6.5084561     2334.306     3697.403     3836.561     77.48628     155.5322     311.2814      1.630     3.40     838.0447     54.92305     331.6592        21     1.274     1.001 -64.28   0
       370   1013.0341    446.9352 307.5026832  +6.5177709     3927.618     6676.984     7024.038     77.98299     155.8422     311.5914      1.831     4.02     833.1666     54.92305     499.9148        31     1.388     1.243  18.09   0
       371    269.0291    446.1627 307.8117564  +6.4931657     1474.838     2227.531     2778.187     77.73504     155.5942     311.4674      1.638     3.67     839.2103     54.92305     225.0793        15     1.171     0.869 -84.24   0
       372    347.3141    444.0189 307.7793119  +6.4966822     3044.707     4626.457     4714.813     77.73504     155.5942     311.4984      1.605     3.65      838.014     54.92305      446.068        23     1.241     1.084 -45.24   0
       373    703.2051    441.9185 307.6315530  +6.5094858     1579.843     2416.172     2599.132     77.73504      155.408     311.3745      1.650     3.99     837.9882     54.92305     256.2895        15     1.223     0.886 -55.70   0
       374    977.0652    440.3568 307.5178452  +6.5192865     683.8567     840.3792     524.2131     78.10668     155.7802     311.5914      1.481     4.37     833.7274     54.92305     113.0928         7     0.938     0.579 -31.97   0
       375    234.4590    440.1382 307.8263189  +6.4944904     875.5878      1127.81     1357.415     78.10668     155.7802     311.6224      1.472     2.30     839.7341     54.92305     174.6623         6     0.701     0.608 -15.29   0
       376    544.8265    434.2988 307.6975976  +6.5073253     836.6631     1273.499     1588.513     78.23017     155.5942     311.5294      1.792     4.31     837.2332     54.92305      156.187         8     1.202     0.487 -20.40   0
       377    466.7776    432.9367 307.7300634  +6.5052694     1163.666      1811.65     1803.665     77.73504     155.8422     311.4674      1.634     3.36     837.3162     54.92305     174.0773        14     1.061     0.905 -59.62   0
       378    814.9094    431.1963 307.5855119  +6.5176506     1875.977     2812.533     3043.117     77.61076     155.5322     311.3124      1.574     3.48     836.5847     54.92305     306.8732        19     1.223     0.983 -82.39   0
       379    829.3504    431.6887 307.5794966  +6.5179302     1587.343     2060.028     2114.443     78.10668     155.6562     311.7153      1.465     3.82     836.1687     54.92305     252.9952        13     1.155     0.771 -48.49   0
       380    614.8986    430.5170 307.6686179  +6.5112356     636.3253     1110.375      1348.07     78.10668     156.2134     311.6843      1.738     5.75     837.0502     54.92305     101.4095         8     1.388     0.670 -67.72   0
       381    712.3627    429.0714 307.6281808  +6.5150968     14757.23     22083.61     23620.88     77.98299     155.8422     311.6534      1.593     3.22     837.2443     54.92305     2315.258        40     1.365     1.172 -60.99   0
       382    633.5164    425.1657 307.6610642  +6.5140689     2717.428     4274.748     5013.866     78.10668     155.8422     311.5604      1.712     3.21     836.7665     54.92305     459.0828        21     1.225     1.001 -46.29   0
       383    605.8510    420.1203 307.6727259  +6.5152251     11491.92      25740.9     30230.14     78.10668     155.9041     311.5914      2.347     6.08     836.1769     54.92305     1966.099        65     2.288     1.409  33.22   0
       384    376.7816    414.8709 307.7680548  +6.5097068     28263.97     43891.57     46106.34     77.73504     155.7182     311.5294      1.642     3.22     836.2251     54.92305     3917.157        60     1.470     1.311 -57.94   0
       385    893.2398    414.6954 307.5535270  +6.5270821     1543.298     2727.917     3715.731     78.10668     155.7182     311.7153      1.920     4.00     833.8384     54.92305     242.7214        19     1.336     0.958 -35.27   0
       386    122.7705    414.2529 307.8735845  +6.5014187     2292.793     3673.805      3848.07     77.85912      155.966     311.5294      1.692     3.47     842.7017     54.92305     295.5643        23     1.342     1.001 -65.41   0
       387    906.4573    409.3259 307.5482165  +6.5297407      5100.55     7717.235     7952.327     78.10668     155.8422     311.5604      1.640     3.47     833.6669     54.92305     791.1289        28     1.331     1.061 -60.67   0
       388     55.9637    410.0664 307.9014749  +6.5008966     1444.176     2338.135     3421.599     77.98299     155.8422     311.6534      2.012     3.90     844.1174     54.92305     195.9034        16     1.163     0.995  74.33   0
       389    937.7031    418.9846 307.5349128  +6.5267965     3810.826     5819.693     5538.073     77.85912     155.5942     311.3745      1.592     3.33     833.6893     54.92305      591.381        25     1.335     1.032 -53.30   0
       390    962.5984    407.0008 307.5249728  +6.5325759     548.5183     755.2584      816.598     77.48628      155.408     311.2814      1.914     4.19     832.6203     54.92305     89.75854         5     1.571     0.318 -62.06   0
       391    234.2834    405.3866 307.8275652  +6.5088326     13806.79     21634.18     22468.63     77.73504     155.5942     311.4365      1.685     3.31     838.6561     54.92305      1891.39        48     1.473     1.254 -62.73   0
       392     69.6240    399.1330 307.8961707  +6.5058710     683.9333     1019.481     1078.053     77.73504     155.7802     311.5294      1.632     4.48     843.6642     54.92305     115.7287         7     1.187     0.480  86.46   0
       393    957.5101    397.8924 307.5273919  +6.5361669     1079.662     1646.929     1681.372     78.10668     156.3369     311.6224      1.644     3.53     832.4554     54.92305     159.1126        12     1.164     0.688 -85.97   0
       394    728.8257    398.9925 307.6223528  +6.5280672     801.8033     987.1418      1349.24     77.61076     155.7182     311.4365      1.308     3.89     835.7496     54.92305     107.2382         8     0.828     0.672 -46.23   0
       395    697.3220    398.4307 307.6354584  +6.5272445     788.0889     1117.243     1321.129     77.98299     155.9041     311.5604      1.656     4.46     835.7021     54.92305     139.2526        10     1.169     0.812 -82.31   0
       396    346.8416    395.2609 307.7811526  +6.5167975     1289.036     1667.634     1708.541     78.10668     155.8422     311.6534      1.342     3.10     835.9365     54.92305       181.25        10     0.989     0.674 -68.10   0
       397    134.5562    394.0168 307.8693731  +6.5101705     4867.042     7414.131     7987.691     77.61076     155.7182     311.3745      1.625     3.23      841.856     54.92305     695.6946        30     1.342     1.091 -48.71   0
       398    179.9455    395.1325 307.8504820  +6.5112379     773.8127     904.9158     803.6535     78.10668     155.7802     311.5294      1.338     4.80     840.4228     54.92305     106.5541         9     0.817     0.797 -57.15   0
       399    239.1781    392.9561 307.8259517  +6.5141295     1274.064     2048.424     2431.499     77.61076     155.7182     311.4055      1.708     4.09     838.3998     54.92305     195.3346        14     1.259     0.839 -64.49   0
       400    432.1644    392.4200 307.7458064  +6.5208362     755.8584     1153.598     843.3983     77.61076     155.6562     311.4055      1.648     5.05     835.4564     54.92305     121.6583         9     1.397     0.516 -55.62   0
       401    156.6082    389.7945 307.8603560  +6.5126562     2535.597     4353.021     4727.419     77.48628     155.6562     311.4365      1.839     4.24     841.1078     54.92305     290.9455        30     1.569     1.129 -80.42   0
       402    820.5789    390.8709 307.5845105  +6.5344902     865.6805     1185.897     982.5421     77.73504     155.7182     311.5604      1.483     4.81     834.6566     54.92305     124.5733         9     0.983     0.749  37.51   0
       403    552.1871    389.2966 307.6960548  +6.5261528     965.1334     1307.297     1499.104     77.98299     155.5942     311.3434      1.462     4.15     834.2585     54.92305     134.6225        11     1.120     0.691 -55.51   0
       404    379.9527    384.5114 307.7677612  +6.5223481     2164.797     3234.117     3092.756     78.10668     155.7182     311.7153      1.567     3.44     835.5704     54.92305      339.054        18     1.245     0.890 -52.55   0
       405    268.1746    384.8927 307.8141794  +6.5184339     734.9841     1156.202     781.5584     78.23017     155.5942     311.4365      1.701     4.03     837.4778     54.92305     123.0862         6     0.814     0.570 -60.34   0
       406    968.5513    383.8164 307.5232771  +6.5423474     880.9036     1465.367     1980.366     77.61076     155.9041     311.3124      2.242     3.16     831.5964     54.92305     160.1226         9     1.033     0.608 -55.98   0
       407    313.6654    382.3091 307.7953704  +6.5210301     537.3693     1005.946     1375.471     77.98299     156.0279     311.5914      1.802     4.00      836.319     54.92305     90.53198         6     0.929     0.493  47.44   0
       408     30.2750    378.9554 307.9131975  +6.5128755     2945.423     4970.787     5074.758     77.98299     155.9041     311.6224      1.822     3.95     844.3196     54.92305     423.0977        31     1.653     1.105 -52.88   0
       409    433.9046    378.2342 307.7455616  +6.5267517     7198.174     10900.25     11249.76     78.23017     155.7182     311.6843      1.598     3.18     834.9861     54.92305     951.0137        36     1.389     1.146 -59.37   0
       410    766.6235    377.1767 307.6073841  +6.5383396     1875.326      2939.76     3247.582     77.61076     155.6562     311.5294      1.633     3.85     834.6738     54.92305     291.9749        21     1.383     1.016 -56.75   0
       411    774.5656    375.6036 307.6041377  +6.5392548     13002.55     19381.87     20467.32     77.36161     155.7182     311.3745      1.624     3.29     834.6194     54.92305     2030.843        40     1.386     1.152 -55.23   0
       412    193.8485    378.2218 307.8452783  +6.5186878     519.2011     790.8984     534.1497     77.73504     155.8422     311.4984      1.207     3.34      839.647     54.92305     96.16437         5     0.946     0.341  43.78   0
       413    337.6290    373.7334 307.7857055  +6.5253762     963.6009      1838.36     1926.263     77.85912     155.8422     311.5604      2.070     3.98     835.6817     54.92305     138.6249        12     1.080     0.874 -55.96   0
       414   1018.4648    370.7565 307.5029795  +6.5494060      3639.87     5435.371     5384.105     78.10668     155.7802     300.4246      1.646     3.37      829.196     54.92305     568.2787        26     1.295     1.061 -61.70  16
       415    949.4353    367.5489 307.5317637  +6.5484258     616.4256     845.9067     1194.412       77.983     155.8422     311.5294      1.370     5.02     831.8015     54.92305     90.94891         7     1.046     0.681 -39.53   0
       416    182.7205    366.5688 307.8502943  +6.5231244     781.0428     1299.714     967.1537     77.98299     155.8422     311.5604      1.708     4.03     839.7942     54.92305     128.1678         8     0.911     0.880  -6.30   0
       417    454.3253    362.5038 307.7376089  +6.5339319     2337.815     3586.873     3760.092     77.85912     156.0279     311.6224      1.684     3.89     833.9508     54.92305     314.9099        20     1.356     0.934 -48.62   0
       418    482.0572    361.9562 307.7261075  +6.5350887     3105.084     4711.209     4948.446     77.98299     155.8422     311.5914      1.608     3.15     833.1295     54.92305       475.59        24     1.231     1.073 -61.36   0
       419    910.7853    361.7124 307.5480156  +6.5495446     722.5938     1044.564     1138.423     77.85912     155.6562     311.4365      1.359     4.21     832.5103     54.92305     120.9598         8     0.963     0.739 -32.85   0
       420    839.9191    358.5119 307.5775625  +6.5484976     33214.61        51056     54272.62     77.85912     156.0279     311.6843      1.658     3.48     833.0737     54.92305      4696.53        63     1.540     1.253 -70.31   0
       421     57.3439    355.3493 307.9027524  +6.5235341     569.9231     795.6456     517.0361     78.10668     155.8422     311.5914      1.384     3.03     843.2672     54.92305     125.4298         5     0.903     0.432  75.52   0
       422    332.5226    353.7682 307.7885002  +6.5334477      797.004     1373.077     1556.881     77.98299     155.8422     311.5604      1.649     5.45     835.3666     54.92305     139.1427         8     1.354     0.634 -31.11   0
       423    611.6005    351.0605 307.6726608  +6.5439315     2622.011     3886.108     4267.178     77.36161     155.6562     311.2814      1.592     3.14     832.0533     54.92305     385.4833        20     1.213     0.973 -65.48   0
       424     19.5161    351.4889 307.9185957  +6.5238528     1006.814     1354.733     1268.417     77.85912     156.0897     311.6843      1.329     3.92     844.3408     54.92305      154.577         9     1.129     0.567 -77.38   0
       425    696.3730    344.5083 307.6376652  +6.5494766     80906.49     118720.8     124697.2     78.23017     155.5942     311.4674      1.640     3.23     833.1526     54.92305     12051.03        91     1.517     1.314 -59.79   0
       426    854.4781    346.1523 307.5719291  +6.5540875     1134.551     1746.342     2562.257     78.10668     155.9041     311.5294      1.676     4.39     832.3843     54.92305     199.8606        12     1.235     0.773 -51.00   0
       427     75.5591    344.1067 307.8955665  +6.5287896     1331.058     2041.997     2205.022     78.23017     155.7802     311.6843      1.699     3.64     842.3496     54.92305     179.1193        13     1.079     0.803 -41.91   0
       428    937.5297    341.6831 307.5375769  +6.5587080     872.3123     1216.335     891.2428     78.35346     156.0897     311.6224      1.602     6.21     831.1617     54.92305     111.4647        11     1.270     0.853 -39.41   0
       429    558.7930    341.0357 307.6949352  +6.5463005     2643.422     4346.424     4800.251     77.48628     155.6562     311.3745      1.799     3.80     831.4907     54.92305     372.6957        24     1.339     1.095 -36.56   0
       430     96.0682    339.9490 307.8871880  +6.5311972     5989.858     9481.191     9910.843     77.98299     155.7182     311.5294      1.664     3.61     841.6152     54.92305     835.3103        32     1.389     1.130 -63.36   0
       431    757.1029    339.6414 307.6126000  +6.5535189     561.0913     990.8475      1569.08     78.10668     155.7182     311.8082      1.698     4.98      833.015     54.92305     81.05981         5     0.969     0.724 -73.08   0
       432    542.0972    337.4081 307.7019930  +6.5472383     7088.032     10974.01     11856.85     77.85912     155.4701     311.3745      1.657     3.21     831.3172     54.92305     995.5335        33     1.368     1.138 -58.89   0
       433    271.1888    335.1992 307.8146048  +6.5390525     2678.105     4270.084     3632.051     77.73504     155.5322     311.4055      1.632     3.69      836.482     54.92305     383.7167        23     1.363     1.019 -55.11   0
       434    405.0156    332.5517 307.7591019  +6.5446430     25234.98     39704.21     41686.78     77.61076     155.8422     311.3745      1.668     3.32     833.7953     54.92305     3479.639        56     1.506     1.255 -60.02   0
       435    512.6790    331.2468 307.7144212  +6.5487955     1253.265     1849.264     2154.227     78.10668     155.9041     311.5604      1.564     3.34     831.2406     54.92305     190.5548        14     1.156     0.806  75.64   0
       436    583.7497    331.4396 307.6848907  +6.5510992     599.8199     1049.401     895.7798     77.98299     155.8422     311.5294      1.675     3.43      830.997     54.92305     83.70178         5     0.752     0.453 -19.68   0
       437    384.8549    330.6979 307.7675393  +6.5447312     1198.363     1846.458     2416.436     77.98299     155.8422     311.8082      1.657     3.57     833.9582     54.92305     160.3399        12     1.017     0.795 -57.18   0
       438    484.3611    328.0384 307.7262930  +6.5491701     1143.693     1884.284     1988.787     77.85912     155.7802     311.4674      1.805     4.18     831.3017     54.92305     170.4813        14     1.222     0.834 -68.43   0
       439    799.3846    325.6860 307.5955038  +6.5606955     729.3717     1086.912     1059.485     77.73504     155.5942     311.4984      1.707     4.02     832.4174     54.92305     117.4885         6     0.929     0.651  73.33   0
       440    635.6431    325.1702 307.6635440  +6.5554269      523.697     809.9794     843.1432     77.73504     155.8422     311.4365      1.632     4.19     831.2324     54.92305     96.45306         6     0.939     0.604  25.88   0
       441    494.1292    322.9106 307.7224078  +6.5516150     8482.828     13241.42     14296.35     77.98299     156.0897     311.5914      1.662     3.32     830.9646     54.92305     1219.221        41     1.465     1.229 -54.38   0
       442    381.7905    325.1933 307.7689979  +6.5469011     757.2366      1180.64     1935.433     77.61076     155.6562     311.4365      1.677     3.91     833.7607     54.92305     121.4579         8     0.911     0.746  21.09   0
       443    763.1899    321.8782 307.6106681  +6.5610568     3153.351     4820.271      5365.91     77.73504     155.5322     311.4674      1.622     3.48     832.2467     54.92305     447.8956        24     1.264     1.088 -48.01   0
       444    918.6544    321.7083 307.5460883  +6.5663249     982.1229     1364.439      951.805     77.98299     155.7182     311.7153      1.501     3.51     830.4463     54.92305     137.9633        10     0.969     0.764  34.08   0
       445    711.0895    321.4286 307.6323273  +6.5594986      761.547      1173.71     1181.746     78.23017     155.5942     311.4984      1.676     4.40     832.0118     54.92305     104.4614         8     1.083     0.695  71.97   0
       446    320.4933    320.2310 307.7946287  +6.5468901      991.624     1344.001     1439.579     78.23017     155.6562     311.5914      1.528     3.90     834.8475     54.92305     174.4642        11     1.063     0.776 -37.35   0
       447    156.0226    313.4103 307.8631806  +6.5441733     1096.183     1703.804     1969.915     77.73504     155.5942     311.4365      1.520     3.97     839.4367     54.92305     173.4623        13     1.199     0.832 -48.41   0
       448    256.1995    313.0328 307.8215797  +6.5477003     656.0925     921.5413     1202.104     77.36161     155.6562     311.3434      1.684     5.59      836.576     54.92305     98.78455         8     1.236     0.712 -28.66   0
       449    383.9606    307.1743 307.7687041  +6.5544136     7179.741     11273.53     11883.82     77.73504     155.6562     311.4365      1.673     3.46     833.0021     54.92305     955.0884        34     1.393     1.167 -56.67   0
       450    239.7390    307.7007 307.8285975  +6.5493481     2057.377     3158.231     3322.342     77.85912     155.7802     311.7153      1.642     3.57     837.0362     54.92305     279.7712        21     1.325     0.952 -50.89   0
       451    737.3558    307.3184 307.6218896  +6.5662038     1073.056     1627.441      1943.38     78.10668     155.8422     311.5604      1.622     4.34     831.6064     54.92305     173.8213        13     1.214     0.886  81.63   0
       452    751.8575    303.0833 307.6160074  +6.5684378        53490     81007.29     85032.03     78.10668     155.8422     311.6534      1.604     3.30     831.4357     54.92305     7912.096        77     1.504     1.282 -63.23   0
       453    423.3445    302.4127 307.7525038  +6.5577023     2303.803     3554.991     3551.409     77.48628     155.7802     311.2814      1.620     3.36     831.7447     54.92305     348.8576        18     1.130     0.957 -58.47   0
       454    986.6097    300.1602 307.5185792  +6.5774914     1696.899      2493.57     2581.431     77.48628     155.6562     311.3434      1.563     3.29      827.131     54.92305     271.9772        16     1.158     0.881 -64.44   0
       455    569.6871    300.0208 307.6917901  +6.5636001     1245.779      2041.64     2060.012     78.10668     155.5942     311.4674      1.735     4.00     829.4667     54.92305     198.9172        18     1.195     1.054 -44.49   0
       456    927.6011    299.1918 307.5431267  +6.5759207     2381.309     3323.645      3280.07     77.48628     155.5322     311.3745      1.540     3.60     828.8538     54.92305     362.3965        17     1.185     0.901 -65.66   0
       457    460.2117    298.9527 307.7373050  +6.5603685      1038.51     1565.487     2143.749     77.48628     155.7182     311.2814      1.801     4.36     830.4286     54.92305      137.164        11     0.958     0.878 -52.98   0
       458    409.6895    297.9734 307.7583260  +6.5590766     1983.965     3224.033     3120.705     78.23017     155.5942     311.4674      1.662     3.65     831.9072     54.92305     280.3719        21     1.317     1.056 -32.07   0
       459    289.7919    297.6637 307.8081439  +6.5551755     724.6787     1083.207     793.9825     77.61076     155.5942     311.4055      1.631     4.36     835.1069     54.92305     104.3911         8     0.946     0.613 -81.46   0
       460    831.1144    292.7855 307.5834267  +6.5753410     1134.908     1650.709     1769.702     77.73504     155.5942     311.4674      1.503     3.90     830.7006     54.92305     200.9548        10     1.091     0.693  86.48   0
       461    460.2515    293.1142 307.7374852  +6.5627805     779.3507      1317.14     1900.661     78.10668     155.7802     311.6843      2.027     6.16     830.1044     54.92305     120.3765        10     1.113     0.983  67.28   0
       462    963.2341    291.6488 307.5285759  +6.5802252     598.8373     1170.392     1713.793     77.98299     155.8422     311.5294      2.112     4.30     827.4283     54.92305     84.12103         5     0.966     0.546  51.64   0
       463    186.4215    289.3895 307.8513644  +6.5551142     2182.415      3351.92     3963.931     77.73504     155.5942     311.4365      1.665     3.55     838.2007     54.92305     327.0133        21     1.291     1.002 -57.02   0
       464    440.6436    289.4601 307.7457539  +6.5636310      1126.68     1821.288     2074.027       77.983     155.8422     311.7153      1.644     4.08     830.4731     54.92305     155.5686        12     1.043     0.949 -84.84   0
       465    750.3073    287.6268 307.6171708  +6.5747677     6100.729     8842.346     8796.653     78.23017     155.5942     311.4365      1.585     3.22     830.7855     54.92305     919.3873        30     1.288     1.130 -59.88   0
       466    221.9660    287.8884 307.8366496  +6.5569301     646.5074     1121.414     1212.987     78.23017     155.7802     311.5914      1.815     3.80     837.2395     54.92305     93.68658         5     0.807     0.513 -60.91   0
       467     82.4871    286.7769 307.8946276  +6.5526927     1053.648     1574.819     1564.028     78.10668     155.6562     311.4674      1.499     4.07     840.4561     54.92305     180.2787        10     1.208     0.688 -61.33   0
       468    766.7596    285.7231 307.6103997  +6.5761043     2630.378     4051.137     4424.016     77.98299     155.8422     311.6534      1.669     3.43     830.6799     54.92305      408.929        23     1.328     1.017 -51.43   0
       469    340.9263    286.2997 307.7872853  +6.5615863     582.4219     842.7195     392.7882     77.61076      155.966     311.5294      1.452     3.95      833.502     54.92305     105.9103         5     0.881     0.506 -48.89   0
       470    356.1479    280.2818 307.7811650  +6.5645825     1643.601     3428.946     3439.116     78.10668     155.8422     311.6224      2.170     7.17     832.8878     54.92305     173.0569        26     1.667     1.172 -13.14   0
       471     69.8153    280.8537 307.9000918  +6.5547111     1299.368     2040.578     2037.693     77.48628     155.8422     311.3124      1.619     3.75     840.6689     54.92305     187.5867        15     1.224     0.807 -44.09   0
       472   1004.9102    276.5390 307.5117680  +6.5878553     5971.497     9088.095     9413.254     78.10668      155.966     311.6534      1.664     3.33     825.8203     54.92305     797.7551        33     1.368     1.147 -68.35   0
       473    483.0220    276.2820 307.7285928  +6.5704944      2069.44     3161.855      3566.16     77.85912     155.5322     311.5294      1.641     3.38       828.83     54.92305     335.5037        19     1.223     0.956 -62.99   0
       474    245.5817    271.8551 307.8273808  +6.5643443     5698.634     8869.282     9324.555     77.61076     155.8422     311.3745      1.657     3.41     836.1119     54.92305     804.3451        32     1.390     1.153 -45.78   0
       475    254.0159    273.2468 307.8238301  +6.5640535     515.1126     728.2361      1283.56     77.61076     155.7182     311.3434      1.414     3.82     835.8657     54.92305     73.92395         5     0.832     0.503  52.62   0
       476    912.8334    270.6084 307.5502207  +6.5872291     486.7019     894.6769     1107.059     77.61076     155.6562     311.4055      1.511     3.58     827.9514     54.92305     94.75769         5     1.033     0.357  83.77   0
       477    764.9339    265.5751 307.6118351  +6.5843620     897.6251      1204.74     1460.091     77.73504     155.8422     311.4984      1.406     4.67      829.625     54.92305     138.3436        11     1.063     0.821  45.04   0
       478    222.1084    264.7360 307.8373725  +6.5664939     609.5511     1116.513     656.5125     78.10668     156.0279     311.6534      1.832     4.52     836.7287     54.92305     101.0895         7     1.352     0.429 -61.84   0
       479    379.6861    262.7412 307.7719782  +6.5726154     1671.394     2681.847      2582.59     78.10668     155.8422     311.7153      1.730     4.15      831.582     54.92305     240.5923        21     1.285     1.131 -72.95   0
       480    966.6526    261.4132 307.5281695  +6.5928234     1129.793     1775.788     1750.017     77.48628     155.7802     311.3434      1.663     3.59     826.3268     54.92305     206.9448        10     1.092     0.634 -69.75   0
       481    302.0157    258.9279 307.8043733  +6.5715795     1227.957     1715.735     1842.359     77.61076     155.7182     311.4984      1.497     4.71     834.0352     54.92305     161.9949        13     1.201     0.751  61.86   0
       482    149.4489    258.3346 307.8677728  +6.5666911     1741.384     2868.957     2924.973     77.98299     155.7182     311.5604      1.703     3.69     838.3949     54.92305     270.2032        19     1.303     0.936 -28.54   0
       483    559.0171    254.1438 307.6977671  +6.5821841     2206.325      3478.41     3349.164     77.61076     155.7802     311.3434      1.641     3.67     827.6288     54.92305     289.2406        22     1.243     1.088 -66.87   0
       484    902.5982    253.3941 307.5550505  +6.5939948     1841.889     2936.941     2958.036     77.48628     155.5322     311.4055      1.760     3.61     827.3569     54.92305      260.214        18     1.148     1.035  17.97   0
       485    722.7350    251.7423 307.6298315  +6.5886610     5107.468     7453.771     7160.427     78.23017     155.7802     311.6224      1.567     3.20      828.746     54.92305     780.2975        30     1.313     1.103 -47.69   0
       486    663.4509    251.7430 307.6544612  +6.5866755      2307.62     3451.941     3473.716     78.10668     155.8422     311.5914      1.672     3.75     828.1367     54.92305     318.0236        19     1.211     0.982 -40.87   0
       487    960.4012    252.0209 307.5310817  +6.5964926     673.3098     912.6721      1004.47     77.73504     155.5322     311.3124      1.451     4.55     826.2185     54.92305     122.0139         6     0.845     0.697 -79.70   0
       488    378.4141    246.2463 307.7730629  +6.5793831     711.1796      1076.34     1000.191     77.48628     155.6562     311.3745      1.630     4.64     831.1071     54.92305     99.61853         7     0.878     0.696 -19.68   0
       489    918.6259    243.8640 307.5487114  +6.5984652     997.7638     1470.693     1848.011     77.73504     155.8422     311.5294      1.740     4.47     826.7598     54.92305     206.5386        10     1.253     0.749 -52.43   0
       490    222.1862    237.3057 307.8382667  +6.5778217     2341.753      3666.33     4123.662     77.85912     155.5942     311.4365      1.726     3.35     836.1069     54.92305     354.9077        22     1.177     1.082 -67.18   0
       491    864.9296    236.2066 307.5712773  +6.5998323     1693.609     2784.037     2424.629     77.61076     155.4701     311.4674      1.676     3.52     826.8718     54.92305     258.8362        19     1.197     1.052 -45.58   0
       492    755.3582    235.4625 307.6168251  +6.5964747     1649.318     2490.859     2909.814     78.10668     155.7802     311.6534      1.675     4.04     827.9897     54.92305     207.4228        15     1.202     0.856 -72.76   0
       493    678.8228    235.2878 307.6486282  +6.5939845     493.4803     729.6198     907.0718     78.10668     155.6562     311.4674      1.360     3.62     827.5345     54.92305     85.69934         5     1.001     0.378  86.59   0
       494    575.6101    232.2595 307.6916103  +6.5917762     488.3973     732.4268     802.7469     77.48628     155.7182     311.3124      1.755     4.80     826.8148     54.92305     102.1203         5     1.165     0.561 -60.80   0
       495    456.1715    226.8887 307.7414119  +6.5899866     22472.39     34912.04     36636.34     78.23017     155.5942     311.4984      1.658     3.40     828.1052     54.92305     3264.635        57     1.540     1.241 -55.73   2
       496    461.9731    221.3875 307.7391870  +6.5924527     1410.272     2220.055     2307.789     77.73504     155.6562     311.5294      1.654     4.89     827.6676     54.92305     189.1279        15     1.328     0.832 -76.65   3
       497    317.3118    228.5435 307.7990442  +6.5846387     659.8976     1023.876     610.2255     78.10668     155.7182     311.7153      1.326     2.79     832.8331     54.92305     119.9683         6     0.846     0.461  86.76   0
       498    782.1566    225.9968 307.6060093  +6.6012797     13187.05     20314.88     22019.35     77.48628     155.4701     311.2504      1.659     3.34      827.515     54.92305     1848.497        52     1.529     1.333 -16.11   0
       499    721.1020    221.8235 307.6315156  +6.6009594     818.2702      1306.57     1697.362     78.23017     155.5942     311.4365      1.701     5.92     827.2698     54.92305     132.1819        11     1.228     0.802 -67.15   0
       500    144.3515    220.0760 307.8711836  +6.5823152     2397.357     3604.955     3658.524     77.98299     155.9041     311.5914      1.591     3.29     837.7225     54.92305     388.9678        20     1.202     0.965 -48.71   0
       501    118.9339    219.2563 307.8817705  +6.5817975     976.8173     1474.666     1628.909     78.23017     155.7802     311.5914      1.601     4.85     838.6437     54.92305     134.7402        12     1.164     0.891 -67.60   0
       502    171.1880    218.3670 307.8600927  +6.5839244     624.1443     880.1113      724.518     77.61076     155.5942     311.4984      1.473     3.87     836.8218     54.92305     101.7281         7     0.874     0.748 -56.26   0
       503    918.5946    216.3161 307.5496485  +6.6098384      1541.24     2251.658     2199.707     77.61076     155.4701     311.3434      1.584     3.45     825.5287     54.92305      247.581        17     1.094     1.031 -67.93   0
       504    580.2646    212.6806 307.6903356  +6.6000159     4703.471     7182.583     7698.441     78.35346     155.9041     311.5604      1.691     3.35     826.1209     54.92305     711.7301        28     1.317     1.088 -57.43   0
       505    542.9222    212.8924 307.7058426  +6.5986763     1999.088     3119.703     3027.742     77.85912     156.0897     311.6224      1.623     3.44     826.0467     54.92305     271.9473        22     1.177     1.121 -24.26   0
       506    300.5009    213.5712 307.8065335  +6.5902552     1191.128     1617.522     1290.552     78.10668     155.5942     311.5914      1.442     3.28     833.3727     54.92305      197.632        10     0.982     0.729 -69.73   0
       507    384.6790    211.8724 307.7716195  +6.5937857      1652.76     2581.098     2503.764     78.35346     156.0897     311.5604      1.614     4.53     829.8781     54.92305     252.1329        18     1.309     0.947 -66.35   0
       508    941.0763    209.8381 307.5405252  +6.6132641     2711.138     4054.053     3662.521     77.98299     155.9041     311.5914      1.517     3.33     824.9658     54.92305     383.2677        23     1.251     0.973 -45.30   0
       509    887.2280    209.2711 307.5629169  +6.6116990     11402.34      16877.4      17390.6     77.85912     155.8422     311.5294      1.609     3.26     825.3386     54.92305     1643.686        37     1.332     1.169 -68.48   0
       510    314.7458    209.9031 307.8007393  +6.5922486     946.6635     1560.164      2040.16     77.98299     155.8422     311.8082      2.089     3.50     832.6858     54.92305     153.4191        10     0.989     0.821  62.88   0
       511    206.2867    209.4911 307.8458115  +6.5887705     681.8391     1093.355     896.7427     77.85912     156.2751     311.7153      1.559     4.55     835.9705     54.92305     110.8275         7     1.200     0.645  45.12   0
       512    973.8984    207.1566 307.5269783  +6.6154674     9862.054     14891.77     15417.48     78.10668     155.7802     311.8082      1.596     3.39     824.3499     54.92305     1407.266        37     1.324     1.195 -58.04   0
       513    685.3829    207.1453 307.6468491  +6.6058238     2860.898     4311.346     4940.267     77.61076     155.7802     311.3434      1.581     3.25     826.8052     54.92305     432.3125        23     1.265     1.006 -62.07   0
       514    562.1423    209.0621 307.6979865  +6.6009023     950.9248     1226.672     1252.015     78.23017     155.7802     311.6224      1.424     4.20     825.9125     54.92305     150.9393         8     0.994     0.588 -27.10   0
       515     13.4197    205.7307 307.9260612  +6.5838256     25197.39     39596.43     42465.34     77.73504     155.7182     311.4984      1.713     3.34     841.1722     54.92305     3637.592        60     1.528     1.304 -57.51   0
       516    259.2329    206.9667 307.8239008  +6.5915942     1081.708     1574.865     1946.747     77.61076     155.5942     311.3434      1.597     3.79     834.7062     54.92305     169.1931        10     0.947     0.885  25.76   0
       517    493.8919    202.0208 307.7265788  +6.6015201      2095.25     3380.131      3373.91     77.98299     155.6562     311.4365      1.645     3.79     825.9124     54.92305     294.3143        20     1.320     0.976 -60.81   0
       518    878.1931    197.8647 307.5670535  +6.6161066     2114.857     3185.474     3623.726     77.61076     155.5942     311.3745      1.673     3.84     824.8786     54.92305     267.7628        21     1.264     1.023 -83.26   0
       519    825.8527    198.5750 307.5887759  +6.6140634     1910.148     2933.253     2653.438     77.61076     155.8422     311.4984      1.627     3.80     825.9681     54.92305     293.0685        20     1.210     1.081 -42.02   0
       520    737.4703    195.2142 307.6256094  +6.6124939      40370.2     60621.28     63422.86     77.61076     155.7802     311.4984      1.634     3.27     826.4332     54.92305     5909.611        67     1.477     1.273 -66.30   0
       521    505.9232    197.8621 307.7217204  +6.6036408     2732.129     4091.495     4393.337     78.35346     155.8422     311.5914      1.600     3.43     825.6227     54.92305     373.7483        22     1.266     0.993 -59.75   0
       522    340.5183    194.4969 307.7905521  +6.5994757     5926.137     11824.51     12670.55       77.983     156.1516     311.6534      2.134     5.77      831.144     54.92305     735.4684        53     2.105     1.245 -74.94   0
       523    971.1923    194.0220 307.5285430  +6.6208002      2862.73     4160.271     4591.183     77.61076     155.6562     311.4055      1.508     3.38     823.8208     54.92305     414.7406        22     1.216     1.062 -61.03   0
       524   1009.4894    192.7480 307.5126739  +6.6226048     1672.402     2380.409     2507.186     78.10668     155.6562     311.7153      1.574     3.96     823.4107     54.92305     264.0208        16     1.313     0.802 -59.17   0
       525    905.3395    192.2697 307.5559625  +6.6193240      7736.97     11489.83     12387.23     78.23017     155.8422     311.5914      1.664     3.34     824.3477     54.92305     1127.455        40     1.477     1.193 -68.92   0
       526    448.8156    191.3107 307.7456670  +6.6044290     5068.683     7765.096     7947.028     77.85912     155.6562     311.4365      1.623     3.23     826.7981     54.92305     666.3007        29     1.378     1.064 -62.42   0
       527    223.7916    188.1013 307.8392618  +6.5981907     601.7443     833.5687     870.6937     77.85912     155.4701     311.3745      1.537     4.27     835.4031     54.92305     99.52185         6     1.279     0.406  89.18   0
       528    106.1609    182.7112 307.8883126  +6.5964555     4766.922     7355.426      7756.49     78.10668     155.7802     311.6224      1.652     3.30     837.8013     54.92305     690.3721        31     1.330     1.160 -69.57   0
       529    251.8651    180.4516 307.8278571  +6.6022937     6556.967     9916.412     10586.12     78.10668     155.7802     311.5914      1.629     3.35     834.7243     54.92305     811.2292        32     1.350     1.117 -63.00   0
       530    925.8363    181.6986 307.5478011  +6.6243735     855.8964     1151.811     1396.579     78.10668     155.7182     311.7772      1.574     4.52     823.5932     54.92305     138.1418        12     1.081     0.837 -52.68   0
       531    276.5272    179.3152 307.8176497  +6.6035924     33825.57     52700.62     55658.93     78.23017     156.1516     311.6224      1.714     3.31     834.1854     54.92305     4473.743        66     1.526     1.310 -60.23   0
       532    705.7888    178.6733 307.6393283  +6.6182628     922.4556     1284.092     1359.757     77.61076     155.4701     311.4674      1.419     5.59     826.1407     54.92305     127.0742        11     1.192     0.739 -43.90   0
       533    400.6250    174.8165 307.7662443  +6.6096208      49117.1     77074.37     81475.58     77.85912     155.7182     311.5294      1.687     3.27     828.2957     54.92305     7355.854        74     1.544     1.312 -61.61   0
       534    156.4903    176.0356 307.8676295  +6.6009068     4152.924     6418.838     6583.115     78.23017     155.7802     311.6224      1.643     3.28     836.2352     54.92305     602.5304        28     1.348     1.101 -62.01   0
       535    418.0778    175.3953 307.7589739  +6.6099680     1428.093     2057.968     1709.903     77.73504     155.3458     311.3745      1.547     3.98     827.6559     54.92305     199.1454        17     1.263     0.894 -36.12   0
       536    304.6334    172.4816 307.8062036  +6.6073589     18225.86      28391.9      29944.7       77.983     155.7802     311.5604      1.699     3.24     832.9464     54.92305     2666.195        49     1.440     1.279 -64.83   0
       537    739.8920    171.0764 307.6254146  +6.6225411     33189.29     50268.04     52478.31     77.98299     156.0279     311.5914      1.601     3.30       825.61     54.92305     4770.523        56     1.449     1.243 -61.22   0
       538    688.0100    172.9432 307.6469077  +6.6200332     974.1217     1618.548     1194.818     77.48628     155.8422     311.3124      1.602     4.31     826.1784     54.92305     133.8218        12     1.118     0.782 -53.03   0
       539    312.2987    171.7654 307.8030431  +6.6079123     1975.953     3979.185      4540.97     78.10668     155.7182     311.7462      2.289     6.59     832.5162     54.92305      293.918        35     2.117     1.143 -73.39   0
       540    788.0925    171.5637 307.6053717  +6.6239529     1129.948     1863.322     1896.228     78.23017     155.7182     311.6224      1.853     4.86     825.6443     54.92305     163.5412        13     1.263     0.733 -52.44   0
       541     26.8486    171.8002 307.9216309  +6.5982871     582.9756     1117.368     1017.015     77.36161      155.408     311.1574      1.832     4.74     841.8004     54.92305     65.70331         6     1.128     0.566 -65.65   0
       542     56.7326    168.2486 307.9093362  +6.6007609     8884.485     13933.22     14198.13     77.98299     155.7802     311.6224      1.687     3.39     840.0074     54.92305     1179.821        43     1.412     1.298 -53.54   0
       543     90.6126    166.1647 307.8953316  +6.6027631       1426.6     2316.466     2302.111     77.61076     155.6562     311.4055      1.618     4.27     837.7751     54.92305     202.3693        17     1.360     0.939 -46.87   0
       544    998.2855    165.5539 307.5182405  +6.6334589     1176.614     1349.427     1579.415     78.10668     155.7802     311.5914      1.357     3.26      822.551     54.92305     168.7141        13     1.103     0.765  38.05   0
       545    573.4766    155.6209 307.6950766  +6.6233472     754.9156     1104.238     945.3924     77.73504     155.5942     311.5294      1.646     4.79     824.0158     54.92305     94.23804         7     0.926     0.701 -28.10   0
       546    999.2693    151.6859 307.5182967  +6.6392178     2187.978      3330.36     4061.393     78.23017     156.0897     311.6224      1.747     3.85     821.8537     54.92305     331.5392        19     1.306     1.047 -87.37   0
       547    582.2176    149.3374 307.6916564  +6.6262346     908.6239      1325.53     1537.897     77.73504     155.7802     311.4365      1.656     4.81     823.9595     54.92305     134.8324        10     1.060     0.774 -64.85   0
       548    590.6541    147.6181 307.6882091  +6.6272273     2071.903     3038.516     3398.458     77.61076     155.8422     311.3745      1.613     3.20     824.0472     54.92305     322.0449        17     1.125     0.967 -54.14   0
       549    334.6307    147.9156 307.7945700  +6.6185100      1045.06     1509.598       1759.2     78.10668     155.6562     311.4674      1.660     3.91     830.9193     54.92305     148.0382        13     1.154     0.844 -62.49   0
       550    838.3901    148.1938 307.5852585  +6.6352844     407.9699     646.0346     559.8788     77.61076     155.6562     311.4674      1.178     3.40     823.5104     54.92305     79.58447         5     0.754     0.444  70.59   0
       551    275.4409    145.5755 307.8192402  +6.6174859     30524.06     47674.31     50857.86     77.73504     155.7182     311.3745      1.712     3.24      834.173     54.92305     4420.729        65     1.527     1.333 -51.36   0
       552    196.7924    147.3830 307.8518543  +6.6140934     3313.823     3336.278     3261.558     77.73504     155.5942     311.4365      0.829     2.11     835.2027     54.92305     1246.219         7     0.751     0.409 -30.74   0
       553     20.8310    143.9662 307.9250730  +6.6095758      4319.43     6825.131     6463.011     77.61076     155.5942     311.3434      1.643     3.34     842.1439     54.92305     635.5114        32     1.414     1.161 -73.65   0
       554    707.0723    142.2543 307.6400195  +6.6333426     8164.087     12416.88     13468.57     77.98299     155.7182     311.5294      1.616     3.31     824.9199     54.92305     1121.495        38     1.389     1.181 -66.30   0
       555    184.3985    143.3974 307.8571381  +6.6153217     890.5916      1404.73     1291.798     77.48628      155.408     311.3434      1.639     3.79     835.1819     54.92305     160.0449         9     1.085     0.611 -57.56   0
       556    117.8618    139.2841 307.8849202  +6.6147792     4831.213     7613.044     7989.581     78.23017     155.8422     311.6224      1.675     3.34     836.1829     54.92305     628.1741        34     1.473     1.121 -63.87   0
       557    261.0110    140.5376 307.8254054  +6.6190806     936.3038     1338.338     1287.896     77.61076     155.6562     311.3745      1.578     3.96     834.4202     54.92305     147.5638        11     1.017     0.841 -52.21   0
       558    579.8069    137.4240 307.6930591  +6.6310726     749.6258     1269.694       1524.4     77.61076     155.6562     311.4365      1.856     4.70     823.6321     54.92305     94.21344         8     0.926     0.677 -59.39   0
       559    456.7263    136.7339 307.7442199  +6.6272281     1362.502     2159.842     1985.422     78.23017     155.9041     311.5914      1.729     4.41     824.5449     54.92305     176.5684        13     1.162     0.861 -71.62   0
       560    414.0273    137.9739 307.7619185  +6.6252824     463.5588      475.663     -634.814     77.61076     155.6562     311.4365      1.366     3.73      826.492     54.92305     64.51013         5     1.030     0.389 -57.72   0
       561    645.7529    136.0474 307.6657058  +6.6338513     915.8115     1475.076     1923.202     78.10668     155.7182     311.5914      1.763     5.77     824.4666     54.92305     106.4916        13     1.334     0.704 -64.06   0
       562    388.5606    135.4095 307.7725857  +6.6254857     3913.109     6859.917     7272.108     77.48628     155.6562     311.3434      1.868     3.82     827.7558     54.92305      532.679        34     1.496     1.246 -79.88   0
       563    352.9512    134.3262 307.7874169  +6.6247364     3209.244     4888.658     4990.345     78.10668     155.9041     311.6224      1.625     3.22     829.7446     54.92305     422.0264        25     1.252     1.077 -54.50   0
       564    565.1526    134.2401 307.6992549  +6.6318958     728.9792     1465.189     1302.902     77.98299     155.8422     311.4055      2.191     5.51     823.3929     54.92305     92.22131         9     1.078     0.796 -82.67   0
       565    107.2963    133.9075 307.8894915  +6.6166431     1682.098     2532.689     1879.291     78.10668     156.3369     311.5604      1.586     3.61     836.3373     54.92305     256.2465        17     1.189     0.978 -51.96   0
       566    668.5135    132.2259 307.6563775  +6.6361917     655.5077     945.8501     541.1271     78.23017     155.6562     311.4674      1.327     4.14     824.5964     54.92305     106.8138         7     0.987     0.497  86.34   0
       567   1000.0204    128.5189 307.5187613  +6.6488082     1604.185     2313.627     2335.882     77.85912     155.5322     311.5294      1.584     4.46     820.5172     54.92305     243.4648        17     1.237     0.946 -40.13   0
       568    725.8047    128.3181 307.6327049  +6.6397237     546.0533     656.0375     410.0227     77.61076     155.4701     311.3124      1.519     5.61      824.305     54.92305     78.55597         8     1.127     0.787  44.72   0
       569    204.9284    123.0986 307.8492947  +6.6243935     5365.295     8532.763      8458.42     77.85912     156.0279     311.5914      1.671     3.32     834.9149     54.92305     720.4624        34     1.401     1.184 -62.41   0
       570     87.6299    123.0276 307.8980300  +6.6204723     2093.648      3486.09     3616.749     77.61076     155.5942     311.3745      1.721     3.62     836.9744     54.92305     308.8281        21     1.279     1.099  77.62   0
       571    666.6871    122.0072 307.6574801  +6.6403496     6276.229      9128.08     9274.137     77.61076     155.5322     311.3434      1.563     3.25     824.0689     54.92305     968.3878        29     1.308     1.086 -53.64   0
       572    814.5682    121.7707 307.5960438  +6.6453974     1056.707         1427     2107.071     77.61076     155.5942     311.3434      1.577     3.92     822.7567     54.92305     157.2494        10     1.086     0.696 -50.12   0
       573    618.8653    119.3150 307.6774403  +6.6398588       9494.8     14788.39     16103.54     78.23017     156.0279     311.6534      1.680     3.39     823.5259     54.92305     1224.878        44     1.443     1.280 -63.80   3
       574    622.3839    110.7854 307.6762654  +6.6434984     53719.77     81618.75     85778.25     77.85912     155.5322     311.5294      1.649     3.33     823.2831     54.92305     7937.398        69     1.487     1.281 -59.98   2
       575    556.1663    119.4537 307.7034865  +6.6376994     628.2472     1157.441     1756.828     77.98299     155.8422     311.5294      1.905     5.55     822.9596     54.92305     99.37219         9     1.216     0.715 -75.67   0
       576    253.4414    119.9222 307.8292465  +6.6273374     851.7505     1414.015      1192.13     77.98299     155.8422     311.6534      1.717     2.85     834.5356     54.92305     137.8666         8     0.818     0.673 -43.54   0
       577     17.4775    118.2238 307.9273376  +6.6200907     954.2988     1619.623     1597.228     77.73504     155.7182     311.5604      1.888     6.28     841.8073     54.92305     126.2933        13     1.445     0.798 -62.66   0
       578    345.9559    114.9935 307.7909756  +6.6324833     3799.795      6557.56     7412.168     77.61076     155.5942     311.2814      1.911     3.85     830.1991     54.92305     468.5384        30     1.469     1.133 -61.67   0
       579    527.7234    114.2505 307.7154794  +6.6388936       1841.8      2874.72     2799.983     77.98299     155.9041     311.5914      1.682     3.75     822.8887     54.92305     259.0022        19     1.277     0.961 -64.53   0
       580    991.8275    114.3744 307.5226398  +6.6543748     792.0049     1260.256     1390.906     77.61076     155.6562     311.4674      1.604     5.63     819.7833     54.92305     128.3086         9     1.340     0.667 -42.99   0
       581    301.4825    104.4811 307.8098081  +6.6353284     3590.495     5476.253     5735.933     78.10668     156.0897     311.6843      1.662     3.29      833.115     54.92305     483.5322        24     1.236     1.088 -66.73   0
       582    706.4706   1020.4828 307.6107623  +6.2707110     1016.808     1560.231     2384.246     78.35347     156.0897      279.657      1.872     3.87     854.7895     54.92305     153.6083        10     1.159     0.632 -45.39  16
       583    701.0955     99.1850 307.6439510  +6.6509249     951.9528     1362.101     948.0524     77.85912     155.5942     311.4055      1.468     3.94     823.1332     54.92305     164.6007        12     1.094     0.837   8.08   0
       584    672.5468     98.0715 307.6558505  +6.6504285     1462.797     2109.781     1971.906     77.98299     155.7802     311.5294      1.561     4.24     822.8676     54.92305     188.6631        19     1.230     1.113 -77.01   0
       585    686.7867     94.7248 307.6500464  +6.6522873     3106.267     4599.611     4391.715     77.61076     155.5942     311.4055      1.561     3.30     822.8735     54.92305     478.9285        24     1.229     1.110 -64.49   0
       586    428.5233     85.7197 307.7576576  +6.6473436     4093.801     6089.584     5804.771     78.35346     156.0897     311.7462      1.618     3.27     824.2929     54.92305     651.1119        24     1.299     0.990 -71.01   0
       587    901.1110     81.2149 307.5614461  +6.6650357     3945.085     5945.075     5742.157     77.85912     155.6562     311.4055      1.612     3.38     819.8124     54.92305     521.8721        27     1.283     1.118 -76.24   0
       588    581.2006     81.8022 307.6943525  +6.6540844     718.3291     885.4664     942.0875     77.48628      155.408     311.2814      1.408     4.62     822.2351     54.92305     103.8439         8     0.937     0.646  79.58   0
       589    593.0997     79.8037 307.6894757  +6.6553084     1671.706     2713.173     2562.282     77.85912     155.5942     311.2504      1.641     3.98     822.2261     54.92305     288.2473        20     1.328     1.026  83.74   0
       590    239.1726     78.8528 307.8365620  +6.6438136     934.5015     1471.822     2067.747     77.85912      155.966     311.5294      1.882     3.98     834.3897     54.92305     126.0654        13     1.150     0.887 -60.46   0
       591    613.2203     79.5869 307.6811228  +6.6560725     501.5313     583.8991      297.083     77.85912     155.5322     311.4984      1.263     3.41       822.29     54.92305     76.38885         5     0.742     0.453 -19.11   0
       592    391.9762     77.8055 307.7731095  +6.6493836     1939.686      2853.74     2369.325     77.61076     155.5942     311.4365      1.520     3.45     826.6544     54.92305      257.896        18     1.222     0.899  87.36   0
       593    139.8510     74.4097 307.8779782  +6.6423043     3171.748     5046.752     5130.699     77.61076     155.7182     311.3124      1.671     3.28     834.1706     54.92305     424.8909        25     1.300     1.100 -67.80   0
       594     21.7208     72.1723 307.9271336  +6.6392466     12314.04     19796.04      21664.9     77.98299     155.7802     311.5914      1.753     3.48       838.89     54.92305     1568.947        47     1.529     1.228 -64.70   0
       595    288.1417     72.9526 307.8164154  +6.6478969      1278.03     1947.005     2871.695     78.10668     155.8422     311.7153      1.798     3.66     833.7475     54.92305     190.4043        13     1.227     0.820 -63.37   0
       596    942.3480     71.3477 307.5446423  +6.6704875     633.7514     877.6158     868.7852     78.35346     155.7182     311.5914      1.527     4.16     818.8043     54.92305     89.75171         6     1.067     0.463 -83.33   0
       597    768.5191     67.2796 307.6170084  +6.6663552     3407.356     4893.016     4762.911     78.35346     156.0897     311.7462      1.595     3.21     821.3164     54.92305     488.0743        24     1.274     1.032 -55.66   0
       598    883.1074     82.0832 307.5688978  +6.6640755     2168.959     3243.751     3437.268     77.85912     156.1516     311.7153      1.617     3.65     819.9659     54.92305     297.9431        19     1.291     0.939 -63.45   0
       599    890.0746     68.0018 307.5664754  +6.6701224     591.2465     984.2122     1229.429     77.61076     155.2837     311.4674      1.684     4.64     819.4777     54.92305     104.4119         5     1.438     0.425 -20.77   0
       600    823.4152     66.9202 307.5942101  +6.6683402       6262.2     9352.198     10112.26     77.73504     155.5942     311.4055      1.605     3.34     820.2122     54.92305     952.7034        31     1.278     1.165 -44.86   0
       601    413.6636     67.5794 307.7644434  +6.6543342     977.8449     1449.585     1327.846     77.73504     155.8422     311.4674      1.601     4.43     824.8914     54.92305     149.5463         9     1.028     0.706 -51.37   0
       602    530.8298     65.3506 307.7158358  +6.6591874     1246.245     1725.447         2170     77.73504     155.9041     311.4984      1.433     3.13     821.8217     54.92305     176.8325         9     0.877     0.695  68.09   0
       603     62.1243     64.1145 307.9106199  +6.6439356      3146.98     5114.836      5419.19     78.23017     156.1516     311.6534      1.756     3.58     836.3613     54.92305     404.1923        25     1.371     1.044 -44.17   0
       604     46.0591     65.0600 307.9172626  +6.6430037     808.7098     1218.583     1255.869     78.10668     155.8422     311.6224      1.465     2.60      837.174     54.92305     148.5083         7     0.839     0.526  52.20   0
       605    423.0223     63.6300 307.7606881  +6.6562791     933.9406     1542.104     2347.196     77.48628     155.5942     311.4365      1.754     4.48     824.4073     54.92305     141.1465        11     1.129     0.706 -88.24   0
       606    585.8090     60.8613 307.6931428  +6.6628849      1396.67     1960.209     1817.871     77.48628     155.7182     311.3745      1.487     3.86     821.6819     54.92305     219.3653        13     1.045     0.900 -60.68   0
       607    256.9781     61.2139 307.8297599  +6.6516952     561.6738     627.5074      1255.34     77.85912     155.6562     311.4984      1.403     4.57     833.9007     54.92305     77.91187         6     1.121     0.529  79.76   0
       608      4.3271     59.5992 307.9347858  +6.6438509     2557.029     4182.708     5098.036     77.48628     154.9103     277.2303      1.873     3.67     838.6853     54.92305     356.5103        24     1.355     1.026 -58.50  16
       609    763.1242     54.9155 307.6196656  +6.6712796     2117.578     3063.514      2969.97     78.23017     156.1516     311.6534      1.528     3.20     820.9957     54.92305     312.9828        17     1.032     0.993 -57.84   0
       610    403.8257     54.8034 307.7689619  +6.6592785      1099.36      1857.95     1809.575     77.61076     155.5322     311.4365      1.773     4.24     825.7012     54.92305     157.8261        14     1.235     0.815 -49.46   0
       611     77.0866     55.0270 307.9047110  +6.6481918     750.8787     1270.871     1335.993     78.23017     155.5942     311.4674      1.821     5.02     835.2538     54.92305     133.3847         8     1.109     0.643 -34.95   0
       612    100.8452     53.4238 307.8948940  +6.6496544     962.1234     1215.343     980.7011     77.61076     155.8422     311.4674      1.408     4.93     834.3326     54.92305      150.121        11     1.125     0.787 -60.29   0
       613     89.7440     48.3826 307.8996769  +6.6513617     9261.461     14899.58     15174.91     77.61076     155.7802     311.3434      1.706     3.35     834.4723     54.92305     1227.862        40     1.445     1.226 -73.13   0
       614    418.8785     48.1547 307.7629317  +6.6625292     2641.236     4089.119     3986.666     78.10668     155.8422     311.5604      1.675     3.54     824.5535     54.92305     317.6492        23     1.288     1.050 -51.41   0
       615    240.1362     48.1253 307.8371997  +6.6565324     609.2842     756.5094     1028.861     78.35346     155.8422     311.5604      1.492     4.93     833.7756     54.92305      95.8139         8     1.201     0.573 -62.55   0
       616    256.3582     42.3970 307.8306531  +6.6594432     1388.102     2408.505     3606.244     77.48628     155.5322     311.3124      2.327     4.45     833.6207     54.92305     194.1083        17     1.371     0.876 -70.04   0
       617    632.5499     40.5089 307.6744063  +6.6728548     19049.89     28346.37     29736.78     78.10668     155.6562     311.7772      1.651     3.25     821.1741     54.92305     2733.859        53     1.410     1.263 -60.04   0
       618    532.3594     36.5208 307.7161714  +6.6711419     5349.065     8050.045      8629.71       77.983     155.8422     311.5604      1.645     3.27      821.186     54.92305     803.7163        30     1.331     1.118 -54.35   0
       619    250.6066     36.7504 307.8332336  +6.6615810     1898.591     3238.726     3797.854     77.61076     155.6562     311.2194      1.887     4.03     833.5503     54.92305     272.6169        21     1.387     1.002 -43.68   0
       620    437.8662     32.1393 307.7555822  +6.6697792      22558.4     34965.59     36847.67     78.10668     155.7802     311.5914      1.651     3.28     823.4736     54.92305     2987.731        54     1.490     1.235 -60.17   0
       621    687.7759     35.3639 307.6516318  +6.6768293     629.4095     879.7496     1439.689     77.73504     155.6562     311.3745      1.383     3.45     821.1252     54.92305     115.2404         5     0.729     0.472  -9.49   0
       622    619.0517     31.1014 307.6803317  +6.6762865     2881.018     5739.626     6803.189     77.98299     155.8422     311.8082      2.210     5.26     820.8076     54.92305     441.8884        40     2.119     1.237  70.52   0
       623    258.5121     32.5143 307.8300920  +6.6635959     9300.553     14388.29     15479.06     77.85912     156.0897     311.7153      1.706     3.26     833.4844     54.92305     1294.732        39     1.433     1.205 -48.87   0
       624    915.7012     32.3468 307.5570235  +6.6857002     1937.539     2995.998     2785.784     77.98299     155.8422     311.8391      1.632     3.37     817.7997     54.92305     302.0432        18     1.198     0.926 -55.73   0
       625    318.1719     33.0597 307.8052849  +6.6653773     982.0908     1477.774     2065.903     77.73504     155.9041     311.4984      1.750     3.65     831.8455     54.92305     161.9262        10     1.086     0.621 -45.27   0
       626     23.7434     32.0630 307.9276512  +6.6558743     2315.921     3665.833      3830.72     78.23017     155.7802     311.6224      1.665     3.64     835.5241     54.92305     309.0978        21     1.194     1.053 -70.41   0
       627    550.6072     32.1429 307.7087367  +6.6735616     664.1277       1052.8     950.4984     77.48628     155.7182     311.3434      1.581     3.40     821.0485     54.92305     97.22302         5     0.759     0.441 -70.18   0
       628    523.1631     32.0143 307.7201444  +6.6726940     656.0092     862.6213     993.0411     77.73504     155.6562     311.3745      1.375     3.82     821.0719     54.92305     102.0201         5     0.824     0.509 -37.80   0
       629    246.3381     29.2041 307.8352620  +6.6645530      2939.22     4645.647     4785.096     77.48628     155.5322     311.3124      1.695     3.75     833.4132     54.92305      384.303        25     1.415     1.015 -80.41   0
       630    299.4427     27.5384 307.8132533  +6.6670271     981.5519     1643.055     1521.795     78.10668     155.8422     311.6843      1.788     4.18     832.8942     54.92305     163.9728        10     1.048     0.825  42.07   0
       631    935.8461     22.8726 307.5489704  +6.6902850     889.3134     1298.053     1474.113     77.98299     155.9041     311.5914      1.476     3.50     816.8479     54.92305     125.8316        10     0.883     0.779   4.75   0
       632    687.6521     22.0206 307.6521321  +6.6823343     1936.917     2710.787     2795.142     77.61076     155.9041     311.4055      1.466     3.04     820.7448     54.92305      317.639        17     1.070     0.983 -31.60   0
       633     92.4224     22.7362 307.8994317  +6.6620403     634.5867     1146.689     1060.832     77.73504     155.8422     311.4674      2.059     5.06     833.5237     54.92305     84.15802         7     0.992     0.730  88.95   0
       634    198.5009     17.7045 307.8555269  +6.6676907     955.2366     1249.118      1086.66     78.10668     156.3369     311.4365      1.315     3.04     833.2374     54.92305     168.4796         9     0.884     0.739 -70.10   0
       635      3.9712     17.9413 307.9363443  +6.6610376      444.985     466.8521     33.82599     77.73504      153.659     272.7724      1.291     4.75     834.6867     54.92305     81.23755         6     0.896     0.713  47.29  16
       636    253.5069     16.8222 307.8327017  +6.6699062     746.1566     951.2895     1369.465     78.10668     155.6562     311.4365      1.464     4.53     833.2337     54.92305     117.2584         8     1.032     0.833 -31.50   0
       637    746.1951   1016.7901 307.5943928  +6.2735647     1272.128     1884.005     2433.527     77.61076     155.5942     310.9402      1.662     3.05     854.4141     54.92305     226.5412        11     0.936     0.797 -67.21  16
       638    953.8564   1010.8576 307.5083696  +6.2829537     6042.923      10923.5     11189.94     78.23017     155.9041     311.6224      1.938     3.90     849.4196     54.92305     703.7856        41     1.567     1.325 -45.36   0
       639    708.1840   1011.4665 307.6103537  +6.2744910     1145.343     1738.313     2514.769     77.61076     155.7182     311.4984      1.659     5.37     854.5677     54.92305     126.7266        15     1.336     0.806 -62.36   3
       640    713.5516   1009.0423 307.6082064  +6.2756716     2851.657     4639.976     4965.245     78.10668     155.7802     311.5294      1.804     3.80     854.5143     54.92305     344.0643        28     1.385     1.234 -15.89   2
       641    238.2831   1010.8174 307.8054723  +6.2589984     1146.889     1561.366     1595.527     77.73504     155.5322     311.5294      1.445     4.17     855.6334     54.92305     155.9528        12     1.081     0.793 -50.32   0
       642    436.3267   1010.0252 307.7232754  +6.2659767     916.8191     1204.975     1063.389     77.73504     155.7182     311.5294      1.435     4.81     855.9602     54.92305     146.4406         9     1.049     0.624 -37.82   0
       643    729.2184   1008.3144 307.6017260  +6.2764963     955.0312     1396.123     1572.418     77.73504     155.5942     311.5294      1.741     3.64     854.4773     54.92305     142.0777        11     1.070     0.739 -54.93   0
       644    360.2659   1006.3882 307.7549771  +6.2649254     1946.229     3174.027     3404.952     77.61076     155.6562     311.4674      1.742     4.22     855.7027     54.92305     270.7007        19     1.306     0.994 -40.39   0
       645    698.4954   1002.9435 307.6146625  +6.2776859     543.1451     966.2943     1461.215     77.98299     155.8422     311.7772      1.916     5.17     854.3829     54.92305      74.1615         6     0.927     0.814  -1.84   0
       646    747.1035    996.0560 307.5947115  +6.2821560     7666.857     12306.88     12957.65     77.98299     155.7802     311.7772      1.682     3.41     853.8454     54.92305     988.1513        42     1.427     1.308 -61.07   0
       647    542.5459    996.6096 307.6796255  +6.2750779     4334.686     6581.539     6959.863     77.48628     155.7802     311.3124      1.659     3.34     856.1497     54.92305     629.3309        27     1.288     1.124 -66.12   0
