#   1 NUMBER                 Running object number                                     
#   2 X_IMAGE                Object position along x                                    [pixel]
#   3 Y_IMAGE                Object position along y                                    [pixel]
#   4 ALPHA_J2000            Right ascension of barycenter (J2000)                      [deg]
#   5 DELTA_J2000            Declination of barycenter (J2000)                          [deg]
#   6 FLUX_APER              Flux vector within fixed circular aperture(s)              [count]
#   9 FLUXERR_APER           RMS error vector for aperture flux(es)                     [count]
#  12 FLUX_RADIUS            Fraction-of-light radii                                    [pixel]
#  13 FWHM_IMAGE             FWHM assuming a gaussian core                              [pixel]
#  14 BACKGROUND             Background at centroid position                            [count]
#  15 THRESHOLD              Detection threshold above background                       [count]
#  16 FLUX_MAX               Peak flux above background                                 [count]
#  17 ISOAREA_IMAGE          Isophotal area above Analysis threshold                    [pixel**2]
#  18 A_IMAGE                Profile RMS along major axis                               [pixel]
#  19 B_IMAGE                Profile RMS along minor axis                               [pixel]
#  20 THETA_IMAGE            Position angle (CCW/x)                                     [deg]
#  21 FLAGS                  Extraction flags                                          
         1    187.0146     20.1919 307.8651076  +6.6681515     10834.36     16608.01     17287.84     82.10252     164.3361     328.9343      1.609     3.35      949.779     58.00886     1411.916        39     1.435     1.160  70.19   0
         2    531.2013     18.4150 307.7221401  +6.6804494     3063.091     4322.858     4728.753     82.10252     164.2706     328.8688      1.587     3.41     929.9999     58.00886     406.4098        22     1.213     1.056  85.26   0
         3    469.4052     16.8557 307.7478729  +6.6790200     1897.414      2879.79     2390.108     81.83979     164.4017     328.8033      1.550     3.47     931.4299     58.00886     281.2884        17     1.199     0.910  58.08   0
         4    997.3328     14.1648 307.5285700  +6.6978001      2261.77     3380.462     3458.242     82.36441     164.6634     329.1634      1.652     3.64     914.4092     58.00886     345.1296        20     1.298     0.909  63.15   0
         5    716.7146     10.7496 307.6453048  +6.6898303      7977.72     11121.67     11752.73     82.49505     164.5326     329.1306      1.494     3.05     925.3007     58.00886     1164.206        31     1.307     1.018  60.67   0
         6    636.9227      9.9860 307.6784900  +6.6874735     3981.638     5835.616     5879.772     82.10252     164.2706     328.9015      1.519     3.10     927.4552     58.00886     574.8608        27     1.320     1.044  63.58   0
         7    339.0696      9.7854 307.8022737  +6.6775620      916.652     1298.225     1495.481     81.97126     164.5326     328.9997      1.437     3.25     943.2488     58.00886     147.3659         7     0.751     0.648   0.59   0
         8    437.1456      6.2842 307.7616357  +6.6823019     6422.504     9731.838     10154.68     82.49505      164.598     315.1584      1.634     3.28     934.7448     58.00886     824.5786        33     1.358     1.135  69.67  16
         9    393.0083      8.2863 307.7799098  +6.6799932      646.465     725.6492     568.3102     82.10252     164.2706     328.5084      1.268     2.61     938.5171     58.00886     109.1434         5     0.773     0.480 -58.54   0
        10     38.1724      5.8284 307.9274437  +6.6690680     8723.661     13034.97     12966.06     81.97126     164.4017     310.4076      1.567     3.21     950.7806     58.00886     1160.067        35     1.336     1.143  63.91  16
        11    683.8162      5.1395 307.6591656  +6.6910452     876.2767     1327.416     1069.645     81.97126     164.5326     302.7507      1.722     3.27     926.3543     58.00886     158.0255         7     0.886     0.654 -82.70  16
        12    512.4052      2.8746 307.7304756  +6.6862353     828.5004     1201.037     1006.745     82.10252     151.9434     272.3033      1.301     3.78     929.9844     58.00886     126.8644         6     1.024     0.400  72.45  24
        13    429.0137      2.2248 307.7651521  +6.6837049      823.803     1187.877     1747.198     81.04649     143.9368     262.3951      1.581     3.50     935.6417     58.00886     138.2975         9     0.998     0.610 -56.85  24
        14    333.8374      1.8776 307.8047153  +6.6806511     11065.93     14305.34     15128.92     78.20661     139.2986      256.921      1.343     3.16     943.9232     58.00886     1683.639        24     1.264     0.880  -2.47  24
        15    107.5445      1.8556 307.8987517  +6.6730461     2365.375     3049.858     2955.369     78.34418      138.989     256.5854      1.334     3.17     949.5231     58.00886     337.8595        15     1.175     0.767  -5.06  24
        16    400.7024      1.2667 307.7769496  +6.6831498      586.028     688.3156     329.2702     70.68517      129.691     246.5697      1.096     3.77     938.0514     58.00886     130.0679         6     1.036     0.395  12.01  24
        17     99.0391      1.3721 307.9023024  +6.6729591     817.6837     1089.503     1317.369     72.04317      131.177     248.1803      1.156     3.65     949.4432     58.00886     184.5985         6     0.959     0.481   3.30  24
        18    303.6165   1000.8600 307.7835151  +6.2671716        16970     23519.69     24725.64     81.97126     164.5326     328.8361      1.453     2.82     969.1843     58.00886      2550.38        40     1.267     1.102  66.63   2
        19    757.2490   1022.0386 307.5944384  +6.2736289     1523.023     2155.197     2030.302     82.49504     152.9323     273.8018      1.414     2.78     963.2603     58.00886     226.9602        12     0.943     0.780  83.25  24
        20    580.9989   1023.8267 307.6675637  +6.2669923     980.2642      1205.58     1357.246     68.83283     127.7671     244.5966      1.086     2.81     967.1608     58.00886     300.9475         7     1.063     0.371  -4.37  24
        21    307.8049    997.8504 307.7818776  +6.2685549     1251.687     1972.823     2566.369     81.83979     164.4017      328.705      1.864     4.29     969.1814     58.00886     162.5269        12     1.112     0.839  62.17   3
        22    819.2582   1000.9382 307.5693983  +6.2844141     1430.442     1936.222     2160.307     82.62547     164.5326     329.1306      1.485     3.59      960.078     58.00886     208.0929        12     1.088     0.758  42.04   0
        23    427.8938   1001.3305 307.7318959  +6.2711488     1051.771     1374.611     1471.938     82.36441     164.7288     329.0979      1.336     3.01      968.406     58.00886     165.0853         9     0.888     0.676  75.85   0
        24    274.8288    998.2070 307.7955580  +6.2673000     1114.361     1634.486     1780.142     81.97126     164.4017     328.9015      1.531     4.19     969.1016     58.00886     170.2749        13     1.133     0.909  65.69   0
        25    919.3226    994.9988 307.5280455  +6.2902087     9888.981     14022.56     14066.31     81.70811     164.0082     328.9015      1.471     3.01      957.639     58.00886     1383.438        34     1.339     1.022  61.94   0
        26    637.2823    996.4661 307.6451138  +6.2801741     626.6131     728.8209     828.9216     82.75569     164.8595     329.1634      1.795     4.24     964.5479     58.00886     90.15991         6     1.141     0.448  53.57   0
        27    550.7261    994.3015 307.6811285  +6.2781690     9767.508     13277.66     14166.77     82.10252     164.6634     329.0652      1.449     2.86     967.1778     58.00886     1400.461        30     1.297     0.973  51.81   0
        28    893.0034    991.1075 307.5391054  +6.2909367     14115.34     20167.87     21108.26     82.10252     164.2706     328.8688      1.484     3.01     958.2317     58.00886     2184.664        43     1.366     1.185  65.99   0
        29    605.7812    991.6508 307.6583565  +6.2811075     1451.032     2120.168     2117.984     81.97126     164.6634     328.8361      1.542     3.51     965.5935     58.00886     239.7931        15     1.171     0.864 -87.98   0
        30   1014.6955    990.6159 307.4885880  +6.2952009     5513.242      7682.86     7482.589     82.23357     164.4017     328.9343      1.481     2.97     954.2336     58.00886     774.5385        26     1.239     1.002  61.07   0
        31    537.0666    990.1609 307.6869399  +6.2794209     4722.187     6540.687     6784.573     82.36441     164.5326     329.1633      1.448     3.06     967.2982     58.00886     731.4016        22     1.202     0.907  60.25   0
        32    646.5504    989.4335 307.6415019  +6.2833881     1637.667     2282.736     2448.176     82.36441      164.598     329.0325      1.480     3.34     964.0602     58.00886     271.3306        16     1.133     0.947  81.56   0
        33    490.1945    986.6080 307.7065228  +6.2793168     2678.647     3436.688     3161.387     81.83979     164.4017     328.9343      1.430     3.19      967.526     58.00886     351.6395        17     1.148     0.905  71.68   0
        34     71.7225    988.7617 307.8802105  +6.2643697     886.6821     1113.562      1297.89     82.36441     164.6634     329.0979      1.375     4.88     970.1285     58.00886     127.3062         9     1.086     0.622  62.74   0
        35    802.0695    988.5900 307.5769508  +6.2889382     648.7724     929.1693     855.8996     81.97126     164.4017     328.9343      1.318     3.72     960.0979     58.00886     112.8735         6     0.809     0.492  -0.31   0
        36    924.7241    978.7228 307.5263488  +6.2971095     50389.87     70013.92     73118.39     82.75569     164.8595     329.1634      1.489     2.96     956.9239     58.00886     7423.268        61     1.403     1.134  58.14   0
        37    232.1061    977.0474 307.8140123  +6.2746009     1966.413     2601.378      2971.47     82.36441     164.5326     329.2288      1.396     3.28     968.8904     58.00886     320.6924        14     1.147     0.769  67.75   0
        38    631.0743    975.1459 307.6484092  +6.2887692     1112.271     1362.028     1469.098     82.36441      164.598     329.0979      1.325     3.08     964.3391     58.00886     169.8318        10     0.914     0.714  67.18   0
        39    120.1418    976.1857 307.8605316  +6.2711916     724.9281     963.4014     1312.831     81.83979     164.4671     328.8033      1.407     3.99     969.4312     58.00886      110.956         6     0.788     0.578  56.63   0
        40    822.6575    972.6653 307.5689365  +6.2962016     2817.184     3950.107     4150.819     82.62547     164.5326     329.1306      1.484     2.61     959.3387     58.00886     449.9423        17     1.030     0.880 -87.35   0
        41    770.9153    970.3728 307.5905000  +6.2954187     7667.048     10570.22     11333.38     82.62547     164.3361      328.967      1.475     2.96     960.7745     58.00886     1157.105        28     1.264     1.007  77.94   0
        42    738.5607    971.2003 307.6039077  +6.2939951     494.9977     521.6873     525.1128     81.44411     164.4017     328.8033      1.166     3.47     961.9989     58.00886     76.91315         5     0.764     0.454 -70.97   0
        43    204.9704    969.1291 307.8255474  +6.2769581     884.1536     1387.533     1583.943     82.36441      164.598     329.0979      1.701     5.73     968.8336     58.00886     120.1646        11     1.398     0.662  79.16   0
        44    557.3983    969.5332 307.6791921  +6.2886192     1166.745     1592.709     1858.393     81.83979     164.1395     328.8688      1.508     4.02     966.4154     58.00886     175.1995         9     1.017     0.608  76.90   0
        45    240.4175    969.4018 307.8108195  +6.2780370     1727.481     2319.751     2138.614     82.10252     164.1395     328.8033      1.423     2.96     968.9297     58.00886     239.7357        14     0.959     0.898  62.01   0
        46     65.2372    967.3770 307.8836270  +6.2729806      3069.34     4367.716     4328.122     82.10252     164.3361     328.8688      1.453     3.01     969.8773     58.00886     424.8252        22     1.189     0.978  74.98   0
        47    959.0453    965.4751 307.5125409  +6.3037250     7690.125     10641.35     11347.94     82.36441     164.6634     329.1306      1.495     3.06     955.4037     58.00886     1058.864        28     1.225     1.021  58.21   0
        48    215.0713    961.8700 307.8215985  +6.2802948     749.3795      1131.15     1221.599     82.49505     164.7288     329.0325      1.544     4.16     968.8416     58.00886     111.8015         7     0.861     0.662 -50.56   0
        49    641.3644    959.7036 307.6446560  +6.2954898     741.7695     1074.343     907.2355     82.49505     164.4671     329.2615      1.642     4.98     963.7839     58.00886     102.5515         8     1.078     0.651  53.48   0
        50    932.9136    957.0624 307.5236748  +6.3063265     2145.519     2941.465     2728.328     82.62547     164.7942     329.0979      1.395     3.06     955.9154     58.00886     330.2979        16     1.124     0.831  77.78   0
        51    653.5904    953.0410 307.6398032  +6.2986501     5186.121     7264.422     7532.272     81.83979     164.4017     328.8033      1.453     2.79     963.3896     58.00886     794.8925        26     1.289     0.933  71.31   0
        52    265.8081    953.3235 307.8008197  +6.2855287     5107.186     7012.582     6992.111     82.10252     164.0738     328.8688      1.436     2.70     969.0574     58.00886     831.7097        26     1.236     0.964  67.70   0
        53    792.4316    953.6157 307.5821283  +6.3030570     1559.101      1737.98      2090.38     82.10252     164.3361     328.9997      1.380     3.33     959.5756     58.00886     202.9346        12     0.939     0.816  80.97   0
        54     34.4972    950.7932 307.8969522  +6.2787927     2513.535     3530.838     3514.889     82.23357      164.205     328.8361      1.486     3.21     970.1708     58.00886     345.9121        18     1.230     0.869  69.54   0
        55   1002.7667    952.1991 307.4948300  +6.3106655     671.8826     802.6837      633.407     81.70811     164.4017     328.8361      1.307     4.29     953.7819     58.00886     113.8474         6     0.791     0.664  27.73   0
        56    476.1865    951.5663 307.7135207  +6.2933156      1301.05     1841.118      2120.93     81.97126     164.3361     328.9997      1.525     3.89     966.9891     58.00886     233.0833        14     1.090     1.011  71.00   0
        57    885.3642    949.6747 307.5436687  +6.3077893       1191.3     1367.855     1100.376     82.36441     164.6634     329.1306      1.459     3.53     957.3179     58.00886     167.0323        12     1.066     0.788  40.63   0
        58    977.7915    947.2546 307.5053674  +6.3118739     667.7827     1055.323     1644.607     81.83979     164.5326     328.8033      1.853     5.50     954.3492     58.00886     98.33514         9     1.259     0.677 -32.28   0
        59    956.7182    946.5801 307.5141412  +6.3114492     965.0652     1203.505     921.6227     82.10252     164.2706     329.0325      1.331     3.53     954.9194     58.00886     130.5538        10     0.914     0.767 -50.85   0
        60    578.4002    945.5872 307.6712776  +6.2992100     2060.832     3037.185     2757.765     82.10252     164.2706     328.9015      1.574     3.31     965.1392     58.00886     286.3293        17     1.146     0.928  62.14   0
        61    301.8459    946.7491 307.7860775  +6.2894538     1040.811     1486.257     2021.297     82.62547     164.4671     329.1634      1.483     3.40     969.1013     58.00886      144.927        10     0.928     0.752  69.30   0
        62   1009.9329    944.5918 307.4921091  +6.3140456     844.7762     1505.436     972.4475     81.97126     164.3361     328.9997      1.758     5.60     953.4382     58.00886     153.6612        10     1.468     0.602 -68.02   0
        63     67.2415    942.4010 307.8836401  +6.2833602     944.9843     1453.973     2008.669     81.83979     164.2706     328.7705      1.797     3.76     969.5423     58.00886     147.8738        10     0.977     0.793 -63.18   0
        64    617.2390    941.6885 307.6552806  +6.3021205     1665.251      2079.33     2446.388     82.49505     164.5326     329.1306      1.325     2.94     963.8814     58.00886     272.8853        15     1.090     0.826  42.12   0
        65    297.2300    939.6379 307.7882343  +6.2922349     1650.047     2339.768     2618.677     82.10252     164.3361      328.967      1.506     3.30     969.1214     58.00886     243.9562        14     1.094     0.810  75.92   0
        66    565.1240    937.3909 307.6770667  +6.3021494     731.4293     938.8827     747.0672     82.10252     164.1395     328.9015      1.244     1.93     965.3298     58.00886     151.0302         5     0.665     0.463  18.76   0
        67    764.3920    935.8915 307.5943680  +6.3094379     845.6436     1005.352     960.4539     82.10252     164.2706     328.8688      1.185     4.21     959.8226     58.00886     135.0718         7     0.852     0.595  67.41   0
        68    901.8394    932.4005 307.5374069  +6.3154720     8013.281     10947.81     10990.49     81.57622     164.3361     328.8033      1.432     2.97     956.1749     58.00886     1174.586        26     1.217     0.968  54.30   0
        69    139.8783    933.5720 307.8537779  +6.2894499       628.51     852.5202     1369.354     82.36441     164.5326     329.0979      1.518     4.18     968.7139     58.00886      83.5249         6     1.053     0.474  60.23   0
        70    111.2704    931.5898 307.8657239  +6.2893058      629.438     808.2578     1433.187     81.97126     164.2706     328.9343      1.626     4.04     968.7225     58.00886     100.0453         6     0.896     0.520  43.38   0
        71    606.5342    929.7443 307.6601281  +6.3066937     616.9786     461.9666    -165.3706     82.62547     164.4671     329.0979      1.162     3.42     963.7248     58.00886      90.1936         5     0.740     0.457  69.94   0
        72    437.8613    929.4230 307.7301820  +6.3011731     2523.542     3354.472     3382.051     82.10252     164.5326     328.9997      1.443     3.09     967.0508     58.00886     362.6184        18     1.101     0.996  44.83   0
        73    339.3704    927.9116 307.7711317  +6.2984918     11065.29     15044.36     15385.04     82.62547     164.3361      328.967      1.428     2.85     968.7939     58.00886     1572.127        32     1.238     1.029  71.19   0
        74    259.4502    926.7916 307.8043561  +6.2962697     7983.588     11284.05     11676.09     81.97126     164.4671     328.7705      1.509     2.83     969.0294     58.00886     1123.863        33     1.279     1.077  71.11   0
        75    587.6755    921.4132 307.6682400  +6.3095020     1387.166     1516.321     1173.121     81.97126     164.3361     328.9015      1.321     3.23     964.1703     58.00886     221.9131        13     1.094     0.749  56.52   0
        76    771.7896    921.1390 307.5917919  +6.3157765     843.3098       798.97     824.3873     81.83979     164.4671     328.8033      1.230     4.44      959.131     58.00886     130.2701         8     0.865     0.648  53.07   0
        77    917.6470    917.4720 307.5313435  +6.3221638     1221.592     1797.347     1641.351     82.49505     164.6634     329.0979      1.465     2.66     955.1642     58.00886     197.1503        11     0.902     0.771  80.28   0
        78    874.2681    916.3149 307.5493968  +6.3211931     844.8937      1266.02     1204.531     82.62547     164.8595     329.1306      1.730     3.86     956.7552     58.00886     122.7896         7     0.856     0.623 -59.86   0
        79    985.3947    913.3787 307.5033462  +6.3261151     868.2095     1077.554     1373.902     82.10252     164.3361     328.9015      1.389     4.74     952.8582     58.00886     134.6458        10     1.080     0.729  33.84   0
        80    847.0686    911.1508 307.5608657  +6.3224167     660.6925     702.9839     181.5083     82.36441     164.5326     329.0979      1.295     3.02     957.2703     58.00886     124.6143         7     0.849     0.634  52.66   0
        81    753.7932    910.4033 307.5996263  +6.3196076     1951.742      2581.76     2904.452     81.83979     164.2706     328.9343      1.415     3.20     959.1927     58.00886     301.9586        14     1.079     0.823  72.13   0
        82    577.6140    910.8932 307.6727725  +6.3135086     852.4894     1110.487     1033.197     82.23357     164.3361     328.9343      1.348     3.79     964.2435     58.00886     131.2351         8     0.927     0.622  76.20   0
        83    346.6082    909.9059 307.7687339  +6.3061691     446.4079     653.5938     1168.675     82.10252      164.205     328.8688      2.584     5.47     968.5936     58.00886     85.68835         6     1.626     0.520  51.11   0
        84      4.4661    907.5435 307.9108865  +6.2956380     966.0133     1288.535     1176.449     82.62547     164.5326     294.7489      1.386     3.95     969.4781     58.00886     156.4742         8     1.002     0.747  78.02  16
        85    985.3636    906.5157 307.5035894  +6.3289478     1555.684     2135.951     2218.277     82.49505      164.598     329.0652      1.466     3.33     952.5419     58.00886     229.9229        13     1.103     0.751  58.73   0
        86    629.6492    906.4070 307.6513148  +6.3171036     733.6371     765.9752     655.2563     81.97126     164.4017      328.705      1.415     4.92     962.7816     58.00886     94.47656         8     0.950     0.721  86.70   0
        87    617.9277    906.9731 307.6561634  +6.3164774     941.0856     1300.509     973.8773     82.10252     164.5326     328.9997      1.374     2.45     963.0835     58.00886     171.4824         7     0.838     0.522  46.44   0
        88    538.7415    906.3742 307.6890673  +6.3140721     1419.258     2163.581     2160.114     82.10252      164.598     328.9343      1.574     4.84     965.1323     58.00886     197.3018        15     1.178     1.052 -54.61   0
        89    672.3952    903.9320 307.6336467  +6.3195565     2793.389     3754.777     3910.569     81.97126     164.2706     328.9015      1.425     3.04     961.6985     58.00886     387.2098        19     1.140     0.928  73.53   0
        90   1023.5253    902.5721 307.4878734  +6.3318491     663.1849      788.848     671.9969     73.66897     132.9707      249.996      1.271     3.73     950.8745     58.00886     110.8074         6     1.003     0.399 -70.95  24
        91    962.9374    902.0964 307.5130510  +6.3300242     677.9153     957.5342     1043.038     82.36441     164.7288     329.1633      1.489     3.07     953.1112     58.00886     111.6959         6     0.781     0.649   4.10   0
        92    570.1711    900.8583 307.6762013  +6.3174027     541.4982     758.6371     481.2295     82.10252     164.6634     328.9997      1.347     4.17     964.2064     58.00886     95.02704         6     1.152     0.432  63.14   0
        93     68.9836    899.9000 307.8843553  +6.3009666     3402.478     4813.797     5391.203     82.49505     164.3361     328.9343      1.498     3.16     968.6864     58.00886     516.9768        21     1.255     0.917  67.72   0
        94    950.7817    898.8312 307.5182087  +6.3309668     867.9302     1187.441     825.1799     82.10252     164.4017      328.967      1.548     4.42     953.4596     58.00886     154.8788         8     1.169     0.497  62.13   0
        95    833.5641    900.2608 307.5668398  +6.3264620     882.1901     1140.978     832.4217     82.49505      164.598     329.0652      1.283     3.37     957.1748     58.00886     137.1243         8     0.939     0.604  23.60   0
        96    212.5702    898.8931 307.8247657  +6.3062129     2496.605     3419.968     3493.919     82.62547     164.3361     328.9997      1.421     3.07     968.9407     58.00886     373.1315        17     1.125     0.866  70.19   0
        97     86.5733    899.1600 307.8770764  +6.3018642      2089.18     2834.998     2740.175     82.10252     164.4017     328.9015      1.406     2.95     968.6047     58.00886     350.7667        18     1.157     0.894  60.18   0
        98    351.3115    895.2963 307.7672740  +6.3123591     1003.015     1290.555      1752.43     82.49505     164.9901     329.1306      1.380     3.61     968.4266     58.00886     158.1852         9     1.014     0.705  24.39   0
        99    246.7034    895.6635 307.8107009  +6.3086937      804.377     1160.994     623.7234     82.36441     164.7288     329.1306      1.356     2.99     969.0967     58.00886     149.6748         6     0.832     0.522 -46.07   0
       100    667.0342    893.0297 307.6362399  +6.3238786     8111.217     10916.26     11244.76     81.97126     164.3361     328.9015      1.399     2.95     961.3201     58.00886      1275.16        26     1.199     0.982  56.25   0
       101    804.1605    893.9244 307.5792636  +6.3280956     855.7308     1196.751     1358.871     82.36441      164.598     329.1306      1.482     3.69      957.574     58.00886     127.5985         7     0.884     0.731   2.60   0
       102     27.1900    891.2260 307.9020034  +6.3031406     1436.113     1848.974     1995.788     82.10252     164.4017      328.967      1.429     3.28     968.3961     58.00886     220.0775        13     1.068     0.779  74.81   0
       103    904.7792    889.2535 307.5376346  +6.3333857     3332.108     4523.252     4147.146     81.97126      164.598     328.9015      1.405     2.68     954.8863     58.00886     494.5674        20     1.210     0.870  60.04   0
       104     40.1343    889.8824 307.8966739  +6.3041313     1306.175     1934.349     1977.213     82.75569     164.8595     329.1633      1.823     3.55     968.3821     58.00886     203.1779        12     1.197     0.628  70.71   0
       105    350.0987    886.1179 307.7680875  +6.3161081      18440.2     25484.56     27267.91     82.49505     165.0553      329.196      1.463     2.95     968.3651     58.00886     2759.435        38     1.293     1.065  64.07   0
       106     84.8324    887.1581 307.8782055  +6.3067610     1517.155     2394.462     2219.959     82.23357      164.598     328.9343      1.557     3.45     968.4758     58.00886     234.9134        15     1.201     0.790  46.65   0
       107    220.9325    885.3876 307.8217497  +6.3120702     1347.275     1716.464     1242.361     81.97126     164.4671     328.9997      1.321     2.58     969.0664     58.00886     226.1038         9     0.866     0.661  67.57   0
       108    400.8213    885.1431 307.7470570  +6.3182132     793.0305     970.7277     715.9747     82.10252     164.5326     328.9015      1.276     3.85     967.1452     58.00886     114.9026         8     0.845     0.656  44.30   0
       109    679.6738    877.8356 307.6315022  +6.3305752     639.9247     914.9409     881.8568     82.36441     164.6634     329.0652      1.177     3.39     960.2017     58.00886     109.7402         5     0.802     0.416  71.60   0
       110    427.8576    876.9854 307.7361048  +6.3224886     1069.514     1579.438     1475.845     81.83979     164.4671     328.7378      1.536     4.02     966.5065     58.00886      170.967        10     1.058     0.707 -88.59   0
       111    113.2996    876.9960 307.8667285  +6.3119148     1985.542     2652.222     3025.474     82.23357     164.3361     328.7378      1.400     2.88     968.5082     58.00886     295.1147        17     1.118     0.864  76.38   0
       112    681.4423    873.0922 307.6309273  +6.3325929     963.5948     1159.931     1344.485     82.49504      164.598      329.196      1.267     4.67     959.9385     58.00886     147.4957        10     1.237     0.566  55.84   0
       113    508.4235    873.7057 307.7027584  +6.3265445     678.5801     677.0425     918.7914     82.62547     164.3361      328.967      1.503     4.10     964.9908     58.00886     104.3712         5     1.197     0.400  75.12   0
       114    895.2090    870.8785 307.5422260  +6.3406532     2465.115     3233.719     2473.493     82.10252     164.1395     328.9343      1.401     2.89     954.7103     58.00886     368.5071        18     1.071     0.906  54.59   0
       115    865.9777    870.5602 307.5543763  +6.3398084     2369.875     3134.312     3249.836     82.10252     164.4017     328.9015      1.418     2.92     955.6115     58.00886     379.0004        17     1.135     0.833  57.21   0
       116    829.3868    869.8481 307.5695963  +6.3388799      3490.75     4676.307      4925.55     81.83979     164.4671     328.8033      1.413     2.79      956.336     58.00886     503.6204        21     1.150     0.970  56.25   0
       117     96.7727    870.3181 307.8738172  +6.3141158     2848.561      3586.23     3392.932     82.36441     164.4017     329.0325      1.381     3.04     968.4815     58.00886     415.2446        19     1.069     1.018  80.99   0
       118    344.5853    868.4450 307.7709736  +6.3232199     898.6229     1051.304     1180.573     81.83979     164.4017     328.8688      1.502     5.13     968.3003     58.00886     120.1353         9     0.972     0.764  67.35   0
       119    565.1673    861.3607 307.6796097  +6.3335434       378988     519848.3     539354.8     82.10252     164.4017     328.9015      1.466     2.86      963.197     58.00886     54803.93       143     1.455     1.243  65.70   4
       120    409.4451    863.9271 307.7441916  +6.3272624     8511.809     11880.46     12168.95     82.36441     164.6634     329.1306      1.474     2.83     966.6859     58.00886     1235.257        30     1.231     1.046  56.74   0
       121    653.0512    864.2654 307.6430149  +6.3352873     1294.699     1635.607     1936.948     82.49505     164.5326     329.0979      1.369     3.59     960.6254     58.00886     206.2054        10     0.995     0.732  87.18   0
       122    352.6396    862.2748 307.7678372  +6.3260379     13830.69     19173.16     20319.22     82.36441      164.598     329.1306      1.476     2.95     968.0652     58.00886     1914.572        36     1.264     1.099  69.95   0
       123    671.0435    858.6243 307.6357327  +6.3382187     4030.845     5539.104     5478.915     81.97126     164.4671     328.9015      1.453     2.97     959.5855     58.00886     572.4111        24     1.223     0.967  61.11   0
       124    903.5293    857.4651 307.5392209  +6.3464695     6264.567     8448.151     8927.347     82.49505     164.6634     329.0979      1.441     2.70     953.9098     58.00886     903.5161        28     1.230     1.008  58.48   0
       125    743.0410    855.4869 307.6059381  +6.3419230     756.0703     896.4629      428.812     82.49504      164.598     329.1306      1.237     3.13     957.7062     58.00886     153.1718         5     0.844     0.507  46.56   0
       126    754.8561    853.4409 307.6011001  +6.3431629     634.5186     644.8265    -5.241085     82.36441     164.6634     329.1306      1.342     5.11     957.3823     58.00886     100.9298         7     1.036     0.712  51.18   0
       127    645.8915    852.6376 307.6463796  +6.3398487     3793.445     4887.382     5043.668     82.62547     164.5326     329.1306      1.381     2.84     960.4139     58.00886     591.2458        22     1.189     0.949  59.70   0
       128    834.2332    851.8099 307.5681897  +6.3464898     1833.502     2135.513     1692.437     81.97126     164.4017     328.9343      1.336     3.04     955.6461     58.00886     250.6717        13     1.046     0.735  58.01   0
       129    636.2010    851.6910 307.6504359  +6.3399151      1103.57     1609.946     2060.135     81.70811     164.1395     328.8688      1.450     2.89      960.809     58.00886     181.7805         8     0.839     0.659   1.68   0
       130    459.6146    868.0859 307.7232171  +6.3272283     774.5014     1165.999     2240.275     82.10252     164.3361      328.967      1.443     2.41     965.9626     58.00886     144.0569         7     0.703     0.659  88.79   0
       131    961.6096    850.4145 307.5153365  +6.3513196     851.8826     1326.067     1049.673     82.23357     164.3361     329.0325      1.680     4.09     950.9747     58.00886     133.2946        10     1.024     0.814 -29.90   0
       132    922.3432    845.4601 307.5318104  +6.3520546     3875.957     4931.965     4510.488     82.62547      164.598     329.1306      1.347     2.67     952.7136     58.00886     583.4434        19     1.188     0.820  67.58   0
       133    638.7242    847.1290 307.6495416  +6.3418832     2401.333      3409.56     4462.916     82.75569     164.7942     329.0979      1.568     2.95     960.4357     58.00886     365.0824        18     1.118     0.923  84.85   0
       134    332.8785    846.2184 307.7765855  +6.3320039     1014.408     1482.183      1799.73     81.97126     164.2706     329.0325      1.608     3.43     968.0566     58.00886     161.2421         9     0.927     0.646  68.04   0
       135    188.7525    852.3931 307.8362282  +6.3246112     582.0452     714.3197     176.0345     81.97126     164.4017      328.705      1.086     3.48     968.7071     58.00886     101.0377         5     0.810     0.431 -19.61   0
       136    380.5485    841.1039 307.7569619  +6.3357161     2962.699     3867.825     3805.251     82.36441     164.5326     329.3596      1.374     2.83     966.9058     58.00886     425.9154        18     1.118     0.872  60.38   0
       137    860.5378    836.9869 307.5577632  +6.3534891     611.0999     554.6663     431.0393     81.97126     164.4017     328.8033      1.244     3.78      954.621     58.00886     89.12689         6     0.822     0.499  89.84   0
       138    516.7263    831.0435 307.7007483  +6.3444378     3511.836     4903.717     4888.993     82.36441     164.6634     329.1306      1.433     3.00     963.3317     58.00886     539.8447        21     1.163     1.046  38.14   0
       139    861.5376    830.2286 307.5575750  +6.3563130     1208.192     1532.117     1302.643     82.10252      164.598     329.0325      1.274     3.13     954.3742     58.00886     191.4036         9     0.913     0.666  71.56   0
       140    582.0233    829.2722 307.6736905  +6.3473573     866.7513     1204.677     1113.614     82.10252     164.4017     329.0979      1.239     3.47     961.6887     58.00886     150.9119         9     0.909     0.690  73.80   0
       141    563.5840    827.1387 307.6814201  +6.3476205     6742.097     9166.289     9730.307     81.97126     164.5326     328.9015      1.434     2.91     962.1754     58.00886     999.8807        25     1.172     1.008  62.11   0
       142    570.5523    826.6262 307.6785435  +6.3480655      1394.16     1964.325     2294.817     82.10252     164.6634     328.9997      1.553     3.50     961.9565     58.00886     199.6312        14     1.079     0.856  72.47   0
       143    899.3901    825.5312 307.5420121  +6.3595169     1688.565      2077.76     1903.124     81.97126     164.4017     328.9343      1.311     2.98     952.7367     58.00886     243.3986        15     1.051     0.864  69.33   0
       144    481.4719    826.1177 307.7155552  +6.3452897      1689.66     2464.056     2603.997     82.75569     164.9248     329.1306      1.584     3.54     963.6879     58.00886     225.1801        17     1.219     0.847  61.19   0
       145    275.3472    826.9766 307.8011269  +6.3380161     756.6806     1126.666     453.9553     81.97126      164.598     328.9015      1.440     3.62     968.6071     58.00886     138.3724         6     1.038     0.462  82.83   0
       146    123.1247    825.0959 307.8644045  +6.3336740      1645.34     2360.468      2443.72     82.10252     164.7942     329.1306      1.459     3.19     968.0247     58.00886     261.8275        13     1.066     0.817 -87.49   0
       147    699.0037    824.0126 307.6252855  +6.3534455     766.4008     936.8863     763.1746     82.10252     164.2706      328.967      1.291     3.87     957.5447     58.00886     116.5768         7     0.978     0.628  29.76   0
       148    534.2919    821.0535 307.6937901  +6.3491514     21999.84     30475.76     30900.64     82.36441     164.4017     329.2615      1.444     2.89     962.7723     58.00886     3101.537        40     1.302     1.074  60.89   0
       149    375.4740    822.8271 307.7596861  +6.3430921     817.0255     1292.967     951.3722     82.23357     164.5326     329.0652      1.647     4.15     966.6396     58.00886     116.3948         7     0.926     0.673  45.64   0
       150    947.9324    819.3890 307.5220580  +6.3636737     4485.453     5878.312     5826.807     81.97126     164.4017     328.9343      1.380     2.74      950.238     58.00886     699.5323        22     1.205     0.884  60.34   0
       151    180.7968    820.4562 307.8406119  +6.3375298     659.3522     906.1456     820.9415     81.83979     164.4017     328.7705      1.444     2.79     968.4575     58.00886     123.6227         6     0.716     0.640  64.18   0
       152     68.2160    816.9492 307.8874821  +6.3351894     687.0331     1128.195     1539.018     81.97126     164.6634     328.8033      1.475     2.70     967.4088     58.00886     116.4359         6     0.732     0.564 -42.20   0
       153    702.3480    813.1190 307.6242631  +6.3580554     599.5168     748.7797     804.2457     82.49504      164.598     329.0979      1.254     3.36     957.1038     58.00886     100.3358         5     0.763     0.429  70.93   0
       154     44.6276    811.4713 307.8974631  +6.3366568     1735.583     2372.413      2834.27     82.23357     164.5326     329.0325      1.534     3.58     967.2463     58.00886     248.4348        14     1.117     0.767  54.24   0
       155    326.8184    809.7165 307.7803348  +6.3468717     3639.802     5048.833     5161.458     82.10252     164.2706     329.0652      1.475     2.98     967.3949     58.00886     529.4005        23     1.204     0.977  65.80   0
       156    792.4396    805.6006 307.5870998  +6.3641728     63696.88     85639.91     88497.52     81.57622     164.3361     328.7705      1.428     2.79     954.9962     58.00886      9291.98        63     1.323     1.125  59.43   0
       157     27.1084    807.9987 307.9048558  +6.3375005      2236.91     3371.775     3480.885     81.70811      164.205     328.8688      1.512     2.86     967.1713     58.00886     383.4601        17     1.083     0.880  75.20   0
       158    249.2155    782.0652 307.8134966  +6.3556812     766162.2      1705512      1863649     81.97126     164.4671     328.9997      2.205     4.81     967.7888     58.00886      62800.8       602     2.811     2.027  83.87   4
       159    714.3893    796.7088 307.6198142  +6.3652340     100787.2       136568     141833.4     82.23357     164.2706     328.9015      1.438     2.80     956.4371     58.00886     14173.26        73     1.359     1.151  65.01   3
       160    359.3059    797.5754 307.7672529  +6.3529755     22724.88     32073.55     33010.29     82.62547     164.3361     328.9343      1.539     2.93     966.2354     58.00886     3054.139        46     1.343     1.162  62.90   0
       161    408.6177    797.9609 307.7467609  +6.3544715     1615.671     2232.114     2451.832     82.10252     164.4017     328.8688      1.444     3.75     965.4055     58.00886     241.7204        17     1.210     0.910  54.37   0
       162    421.1707    795.3935 307.7416343  +6.3559528     24364.18     34202.76     35178.28     81.97126     164.3361     328.9015      1.508     2.91     964.9471     58.00886     3424.088        47     1.354     1.128  63.94   0
       163    648.0367    796.8792 307.6473656  +6.3629430     860.1313     1025.105     1516.164     82.36441     164.6634     329.0979      1.335     4.64     957.7523     58.00886     124.4279         8     1.042     0.587  62.73   0
       164    958.2073    794.3170 307.5186320  +6.3743690     2354.908     3587.104     4119.857     82.10252     164.2706      328.967      1.606     3.29     948.8491     58.00886     353.5388        22     1.291     1.017  79.07   0
       165    914.6129    792.3118 307.5368052  +6.3737417     7970.367      10739.5     11235.91     82.23357     164.3361      328.967      1.432     2.81     950.6127     58.00886     1142.453        28     1.262     0.960  70.06   0
       166    887.6038    793.0740 307.5479972  +6.3725250     755.7205     1199.958     1079.885     81.97126     164.0738     328.9997      1.580     2.29     951.9363     58.00886     146.0159         6     0.713     0.585  32.68   0
       167    655.1710    791.3337 307.6445893  +6.3654716     7358.292     10289.59     10490.28     82.23357      164.598     329.0325      1.473     2.91     957.3506     58.00886     1014.706        32     1.261     1.092  63.41   0
       168    443.9131    789.2867 307.7323954  +6.3592372     1888.843     2624.198     2405.868     82.23357     164.8595      329.196      1.524     3.46     963.7024     58.00886     250.0219        17     1.195     0.885  54.21   0
       169    169.0514    788.6693 307.8465645  +6.3502590     899.4061     1262.351     1115.736     82.36441     164.4671     329.0652      1.491     5.54      968.213     58.00886     120.5719        11     1.136     0.888 -19.59   0
       170    436.0909    804.4420 307.7351328  +6.3527173     872.4187     1379.423     1463.775     82.49504      164.598     329.1634      1.702     4.87     964.6152     58.00886     110.9069        10     1.093     0.763  54.01   0
       171    917.6563    800.8264 307.5352554  +6.3703276     10181.64     13551.31     14348.27     82.10252     164.6634     328.9343      1.384     2.64     950.6978     58.00886     1659.676        31     1.224     0.969  58.86   0
       172    883.3350    783.0789 307.5501058  +6.3765094     791.2278     1087.565     770.5292     82.75569     164.6634     329.0652      1.402     4.18     951.8135     58.00886     120.1163         7     0.763     0.652  74.24   0
       173    690.2178    781.4358 307.6303670  +6.3707314     2866.385      3961.12     4150.522     81.97126     164.4017     328.8688      1.469     2.93     956.2296     58.00886     420.2765        19     1.099     0.943  59.15   0
       174    608.2742    783.2999 307.6643367  +6.3672184     920.1533     1018.982     914.5422     81.97126     164.7288     328.9997      1.122     2.28     958.7524     58.00886     177.9126         6     0.671     0.622 -67.34   0
       175    134.4484    781.8151 307.8611665  +6.3519249     1166.817     1632.679     1446.538     81.83979     164.5326     328.8361      1.472     4.70     967.7859     58.00886     147.7792        14     1.191     0.856  60.89   0
       176    424.0836    778.0643 307.7410092  +6.3632056     59068.11     83654.84     86771.38     82.62547     164.7288     329.1306      1.490     3.02     964.0206     58.00886      8598.26        64     1.380     1.196  65.82   0
       177    159.3896    781.9754 307.8508033  +6.3526979     1160.493     1563.776     1491.659     82.10252     164.4017      328.967      1.428     3.98     968.1176     58.00886     178.4843        12     1.009     0.876  35.55   0
       178    966.5594    779.1576 307.5156719  +6.3809071     741.7381     674.7593     1008.479     82.23357      164.598      328.967      0.998     4.60      948.231     58.00886       134.12         7     1.120     0.536  31.70   0
       179    541.8810    777.1452 307.6921179  +6.3675353     7939.674      11079.8     11260.06     82.49504      164.598     329.1306      1.456     2.93     960.4469     58.00886     1211.827        30     1.229     1.057  72.95   0
       180    458.5804    775.6742 307.7267631  +6.3653497     4880.847     7074.177     7630.058     82.10252     164.5326     329.0325      1.558     3.17     962.6628     58.00886      678.657        28     1.265     1.073  64.49   0
       181    787.0300    773.7328 307.5904178  +6.3771503     13133.45     17814.01     18235.65     82.23357      164.598     329.0652      1.428     2.98       953.72     58.00886     1991.844        38     1.273     1.068  55.41   0
       182    682.0132    773.2335 307.6340505  +6.3738436     452.8418     888.7799     1278.603     81.97126     164.3361     328.9997      2.332     4.63     956.2406     58.00886     80.31348         5     0.926     0.658  28.14   0
       183    455.1516    769.2283 307.7284045  +6.3678962     2518.817     3698.372     3874.864     82.10252     164.6634     328.9997      1.568     3.23     962.5718     58.00886      393.255        18     1.188     0.878  76.11   0
       184     16.8116    770.0865 307.9104159  +6.3528067     1057.406     1460.166     1695.497     82.10252     164.3361     328.9343      1.426     4.04     967.2291     58.00886     165.3488        10     1.133     0.601  58.67   0
       185    808.6127    768.0554 307.5816448  +6.3802160     1412.094     2170.619     1741.725     81.83979     164.5326     328.7705      1.582     4.78     952.9943     58.00886     199.9666        16     1.245     1.137  11.29   0
       186    144.8171    765.6979 307.8574057  +6.3589283     12716.77     17970.14     19362.18     82.49505     164.4017     328.8688      1.525     3.01     967.7545     58.00886     1814.744        35     1.272     1.127  56.15   0
       187    152.9175    766.0568 307.8540296  +6.3590526     3233.403     4650.217     4643.644     82.49505      164.598      329.196      1.504     2.90     967.8311     58.00886     495.3079        19     1.109     0.953  54.13   0
       188    136.9955    763.1216 307.8607412  +6.3597288     3179.811      4542.04     5311.679     82.10252     164.0738     328.8361      1.534     2.92     967.6501     58.00886     468.2799        21     1.183     0.986  74.87   3
       189    137.0683    756.5958 307.8609317  +6.3624256     2130.759     3154.496     3165.015     81.83979      164.205     328.8688      1.544     3.33     967.5947     58.00886      321.821        19     1.214     0.982  67.16   2
       190    932.6573    762.2870 307.5303188  +6.3867414     7624.693      10142.1     10230.62     82.49505      164.598     329.2288      1.406     2.90     949.1439     58.00886     1046.697        27     1.246     0.976  52.18   0
       191    981.6351    762.0933 307.5099830  +6.3884561     1845.242     2358.937     3081.043     82.62547     164.4671      329.196      1.356     2.91     947.3961     58.00886     294.7456        15     1.101     0.765  75.78   0
       192    720.6751    800.1640 307.6170875  +6.3640177     24243.45     33677.27     35914.13     82.36441     164.6634     329.1306      1.468     2.87     956.5273     58.00886      3577.33        44     1.370     1.079  59.86   3
       193    687.9009    759.9805 307.6320512  +6.3795128     2046.849     2920.799     3209.691     82.49505     164.4671     328.8688      1.523     3.41     955.7867     58.00886     281.0496        17     1.229     0.834  53.75   0
       194    574.7971    759.1941 307.6790522  +6.3760502      2525.89     3365.595     3221.721     81.83979     164.2706      328.967      1.426     3.20     958.4027     58.00886     338.6064        18     1.133     0.874  49.82   0
       195    422.7012    758.4189 307.7422461  +6.3712706     1417.202     2205.039     1804.958     82.49505     164.4671     328.8361      1.704     5.26     963.1149     58.00886     174.0688        15     1.438     0.734  61.58   0
       196    706.6057    757.1747 307.6243770  +6.3812972     528.5678     614.9512     834.3416     81.97126     164.4017     328.9343      1.190     3.52     954.9961     58.00886     92.46521         5     0.769     0.465 -75.81   0
       197    956.1926    753.7735 307.5208295  +6.3910423     3553.383     4689.096      5332.06     81.97126     164.4017     328.9015      1.376     2.91     948.1725     58.00886     515.4227        18     1.108     0.863  64.03   0
       198    926.7424    754.2190 307.5330463  +6.3898753     3589.769     4621.685     4685.974     82.10252     164.5326     328.9015      1.384     2.97     949.1829     58.00886       528.25        18     1.109     0.878  64.19   0
       199    987.0197    753.5805 307.5080322  +6.3921508     2201.289     3002.013     3273.985     82.23357     164.5326     329.0325      1.422     2.84     947.0947     58.00886     363.6299        14     1.051     0.826  45.79   0
       200    679.0291    753.4144 307.6359568  +6.3819270     1760.498     2368.454     2579.033     82.10252     164.4017     328.9997      1.465     3.18     955.9949     58.00886     251.6486        14     1.069     0.824  56.46   0
       201    826.6711    751.7645 307.5746921  +6.3875461     1086.137     1598.444     1396.269     82.36441      164.598     329.0979      1.595     3.75     951.9907     58.00886     176.8953        12     1.247     0.664  62.10   0
       202    901.4207    749.4938 307.5437221  +6.3909808     908.2258     1214.779      1305.87     82.36441     164.4017     328.9343      1.615     2.75     949.9617     58.00886      177.209         7     0.805     0.655  75.37   0
       203    251.7424    748.3072 307.8135881  +6.3697044     2005.442     3017.583     4268.263     82.36441     164.5326     329.2288      1.760     3.90     967.0693     58.00886     295.6098        20     1.363     0.968  68.74   0
       204    688.5079    745.7339 307.6322785  +6.3854155     683.6845     867.5177     946.2849     82.49505     164.7942     329.0979      1.344     3.43     955.4186     58.00886      141.339         5     0.821     0.415 -66.78   0
       205    944.6165    744.0082 307.5259653  +6.3946881     1334.602     1628.818     1208.364     82.10252     164.3361     328.9343      1.327     2.88     948.3537     58.00886     209.7517        11     0.892     0.807  70.01   0
       206    272.0636    744.4271 307.8052797  +6.3719894     689.8514     1111.147     728.0016     82.10252      164.598     328.9997      1.719     3.90     966.8367     58.00886     104.6278         7     0.921     0.621  55.25   0
       207    918.3564    742.9631 307.5369073  +6.3942429     1198.245     1651.398     1826.376     82.23357     164.5326     328.9343      1.400     3.87     949.2266     58.00886     195.5992         9     1.027     0.632  51.99   0
       208    167.4464    743.5782 307.8487562  +6.3688224     897.8394     889.0944     934.1143     82.10252      164.598     328.9343      1.228     3.59     967.5453     58.00886     156.4991         8     0.851     0.750 -67.97   0
       209    971.2280    741.6000 307.5149932  +6.3965706     3041.523     3723.909     4616.517     81.97126     164.3361     328.8688      1.329     2.82     947.4447     58.00886     480.8284        18     1.067     0.903  76.47   0
       210    690.5934    740.6428 307.6315836  +6.3875874     1028.064     1264.242     1580.816     81.97126     164.2706     328.8033      1.299     2.56     955.1998     58.00886     207.3715        10     0.909     0.718  43.68   0
       211   1012.9600    735.1823 307.4978753  +6.4006130     1900.007     2557.884     2395.491     82.10252     164.4017     328.8688      1.393     2.98     945.9857     58.00886     322.9379        15     1.206     0.712  78.45   0
       212    907.2261    734.9968 307.5417976  +6.3971606     658.1709     1061.323     1366.103     81.97126     164.2706     328.9015      1.608     3.87     949.3681     58.00886      113.968         6     1.026     0.638 -74.86   0
       213    481.8462    735.6297 307.7184510  +6.3826641     622.7663     735.0344     988.9407     81.97126     164.7288      328.967      1.450     4.03      960.871     58.00886     111.7648         6     1.032     0.450  63.50   0
       214    411.9380    736.3503 307.7474609  +6.3800214     699.5823     1120.928     635.4008     82.49504     164.5326     329.1634      1.418     3.39     962.2279     58.00886     119.9236         5     0.758     0.439 -17.54   0
       215    814.2953    733.5825 307.5804432  +6.3946398     1312.437     1676.582     1699.709     82.36441     164.4017     328.9343      1.335     3.64      951.529     58.00886     216.2859        12     1.166     0.658  61.83   0
       216    900.4890    730.5338 307.5447458  +6.3987784     1832.802     2270.306     2559.685     82.49505     164.7942     329.0652      1.377     3.17     949.5082     58.00886     290.9108        14     1.088     0.763  51.09   0
       217    874.6656    726.1155 307.5556198  +6.3997402     928.7947     1359.455     1387.943     82.62547     164.8595     329.1634      1.579     4.46     950.2444     58.00886      149.288         8     1.073     0.526  42.10   0
       218    857.2870    722.3046 307.5629659  +6.4007332     1756.285     2099.466     2172.929     82.49505     164.9901     329.1634      1.297     2.96     950.6614     58.00886     249.4247        14     1.033     0.807  36.47   0
       219    120.5513    720.0734 307.8690270  +6.3769493     995.6002     1934.251     2137.144     82.49504     164.6634     329.1306      2.187     7.55     967.0567     58.00886     149.1559        17     1.798     0.888  83.58   0
       220     56.4953    721.1149 307.8955943  +6.3743627      2680.42     3870.799     4453.188     82.49504     164.9901      329.196      1.568     3.07     967.2742     58.00886     395.8821        18     1.150     0.921  55.38   0
       221    574.2574    716.3768 307.6807189  +6.3937112     592.0739     923.3544     825.0764     82.10252      164.598     328.9015      1.488     3.18     956.6617     58.00886      91.9278         5     0.722     0.462  15.14   0
       222    669.1174    709.5974 307.6415483  +6.3996872     7124.946      9993.87     9987.792     81.83979      164.205     328.7705      1.490     2.94     954.7018     58.00886      1003.14        27     1.237     0.996  61.02   0
       223    616.1192    708.9330 307.6635829  +6.3981870     1468.144     2257.155     2768.824     82.62547     164.8595     329.1306      1.660     3.52     955.7434     58.00886     188.7993        14     1.065     0.880  60.22   0
       224    526.5638    709.5464 307.7007579  +6.3949330     934.9796     1302.115      1369.71     82.36441      164.598     329.1306      1.503     3.50     957.7272     58.00886      130.652        10     0.972     0.739  77.58   0
       225   1006.1814    704.9874 307.5017038  +6.4128544     3044.702     4271.909      4315.22     82.23357     164.2706     328.9997      1.441     2.67     946.2354     58.00886     539.2645        20     1.189     0.931  78.04   0
       226    254.7091    705.2672 307.8138106  +6.3875747     737.3336     1006.499     1123.803     82.62547     164.7288     329.0979      1.498     5.65     965.1227     58.00886     98.54492        10     1.719     0.523  70.36   0
       227    132.1108    705.4404 307.8647215  +6.3833800     3900.203     5529.344     5760.074     82.49504     164.5326     329.1306      1.506     3.14      966.605     58.00886     545.1678        23     1.210     1.012  65.52   0
       228    643.0541    705.3503 307.6525164  +6.4005682     2467.621     3531.885     4320.746     82.49504      164.598     329.1306      1.567     3.10     955.0144     58.00886      341.103        16     1.116     0.858  53.21   0
       229    318.8305    705.7049 307.7871649  +6.3895485     696.5711     927.7175      538.027     82.62547     164.3361     329.1306      1.512     3.86     963.2222     58.00886     103.4818         6     0.920     0.583 -63.73   0
       230    786.0252    701.7559 307.5932550  +6.4068360     22582.82     30713.53     32427.18     81.97126     164.6634      328.967      1.430     2.92     951.3424     58.00886     3401.152        44     1.298     1.074  64.60   0
       231    916.0157    701.5627 307.5392696  +6.4112591     4316.741     5871.321     5832.648     82.10252     164.4017     328.8361      1.431     2.97     948.3182     58.00886     636.8018        20     1.131     0.962  82.64   0
       232    484.8308    702.1562 307.7183401  +6.3965852     1442.595     2194.213     2605.978     82.10252      164.598      328.967      1.649     4.20     958.8762     58.00886     204.1202        15     1.201     0.932  75.21   0
       233    513.8223    701.5435 307.7063196  +6.3978103     989.5347     1559.609     1482.594     82.10252     164.5326     328.9015      1.742     5.64     957.9488     58.00886     116.2581        12     1.148     0.866  49.83   0
       234    666.5721    694.5462 307.6431121  +6.4058166     7839.331     10946.76     10979.28     82.23357     164.6634     328.9997      1.515     2.82     953.9758     58.00886      1091.96        32     1.292     1.091  65.31   0
       235    259.5216    695.2778 307.8121495  +6.3918609      6727.52     9770.966     9510.594     82.75569     164.8595     329.2288      1.560     3.03     964.4777     58.00886     958.4181        31     1.347     1.040  66.09   0
       236    648.9333    695.8475 307.6503945  +6.4046888     959.6898     1387.214     1608.735     82.49505     164.5326     329.1306      1.493     3.22     954.4773     58.00886     167.3374         9     0.921     0.723  81.77   0
       237    361.8681    694.4495 307.7696704  +6.3956411     795.1765     1179.168     1218.592     82.36441     164.5326     329.0979      1.546     3.15     961.4631     58.00886     143.5706         8     0.881     0.648  58.24   0
       238    926.5309    687.2218 307.5353835  +6.4175316     1389.295      2001.86     2066.777     82.10252     164.5326     329.0652      1.471     2.65     947.4933     58.00886      235.625        11     0.865     0.833 -87.20   0
       239    738.2617    682.9333 307.6137266  +6.4130105     3971.467     5898.228     6068.298     82.49505     164.5326     329.0979      1.558     3.16     951.3624     58.00886     574.6711        25     1.272     1.029  82.22   0
       240    693.6635    683.5064 307.6322313  +6.4112817     1145.726     1398.363      827.606     82.49505     164.6634     329.1634      1.465     3.87     952.6337     58.00886     142.9888        12     1.071     0.805  66.82   0
       241      3.8004    681.9236 307.9188061  +6.3887688     890.1221     979.9188     792.4075     81.70811     160.5578     285.9219      1.367     4.52     967.3846     58.00886     124.7461         9     0.980     0.844  66.52  16
       242   1004.5546    679.5493 307.5032329  +6.4233037     10622.68     13589.75      13852.3     82.62547     164.4671     329.1634      1.377     2.75     946.2685     58.00886     1548.615        28     1.210     0.952  63.61   0
       243    943.1333    680.0192 307.5287294  +6.4210599     2852.798     3596.233     3542.083     82.10252      164.598     328.9997      1.356     3.05     947.0452     58.00886     421.3455        15     1.102     0.787  60.66   0
       244    745.9926    680.4116 307.6106004  +6.4143103     577.9965     781.0549     1034.771     82.10252     164.4017     328.9997      1.769     4.14     951.2308     58.00886     94.45319         5     0.974     0.547 -74.61   0
       245     24.0239    679.2419 307.9104980  +6.3905574     2084.845     3090.042     4020.788     82.10252     164.4671     328.8688      1.631     3.11     967.3242     58.00886      282.229        16     1.123     0.848  70.87   0
       246    557.0708    677.6229 307.6891630  +6.4091366     756.8465     887.8473     750.9327     82.10252     164.4671     329.0652      1.314     4.94     956.3472     58.00886     110.6539        10     1.085     0.638  59.66   0
       247    440.7192    677.6470 307.7374880  +6.4052252     748.5471     1166.907      1469.53     82.49505      164.598     329.1306      1.740     4.62     959.5662     58.00886     107.9545         8     0.979     0.619  16.94   0
       248     82.0102    674.3400 307.8865816  +6.3945343     27369.31     39574.53     41150.27     81.83979     164.4671     328.8033      1.530     3.07     967.1211     58.00886      3939.51        49     1.376     1.157  69.88   0
       249    543.2593    675.3126 307.6949774  +6.4096276     2284.831     3106.957     2968.219     82.49505     164.6634      329.196      1.473     3.38     956.6698     58.00886     295.8596        13     1.005     0.834  51.67   0
       250    511.7422    672.5762 307.7081601  +6.4097010     1279.869     1889.714     2286.397     82.10252      164.598     328.9343      1.861     4.93      957.004     58.00886     199.1855        13     1.285     0.777  71.29   0
       251    932.9291    671.5862 307.5332509  +6.4242013     1234.195     1713.499     1976.704     81.97126     164.4671      328.967      1.512     3.28     946.9769     58.00886     181.7383        11     0.990     0.755  49.97   0
       252    552.1506    669.4039 307.6914836  +6.4123653     1037.958      1316.03     1419.366     81.83979     164.4017     328.6723      1.425     2.73     956.2456     58.00886     174.2057         8     0.809     0.656 -83.94   0
       253    727.9391    666.7267 307.6185594  +6.4193569     3831.433     5462.122     5889.364     82.62547      164.598     329.1306      1.497     2.94     951.2866     58.00886      612.584        24     1.287     0.920  49.47   0
       254    749.9169    664.8519 307.6094937  +6.4208662     4517.167     5985.718     6222.418     82.49505      164.598      329.196      1.394     2.94     950.9498     58.00886     700.1176        23     1.153     0.973  70.93   0
       255    417.4319    663.4525 307.7476391  +6.4103046     1350.606     1986.661     1785.442     82.36441      164.598     328.9997      1.563     3.60     960.0847     58.00886     225.0011        14     1.067     0.937 -81.85   0
       256    581.3984    662.8549 307.6795562  +6.4160494     3404.668     4816.413     4705.193     81.83979     164.3361     328.7378      1.504     3.06     955.1732     58.00886     448.2285        22     1.173     0.998  70.64   0
       257    242.1109    662.3273 307.8204944  +6.4048805     1831.638     2680.004     2685.817     82.49505     164.8595     329.1306      1.509     3.23     963.4146     58.00886     251.4999        17     1.116     0.948  64.80   0
       258   1022.6851    660.9285 307.4963268  +6.4315971     5885.371      7346.38     6850.211     81.83979     145.4994     263.9499      1.333     2.99     945.1777     58.00886     893.5495        21     1.172     0.874  61.96  24
       259    988.1843    659.9191 307.5106913  +6.4308629     9517.618     12567.07      12718.1     82.10252     164.3361      328.967      1.382     2.86     945.7503     58.00886     1454.886        31     1.255     0.959  52.01   0
       260    325.4928    661.5945 307.7858878  +6.4079850     1420.832      1953.98     1938.515     82.10252     164.2706     328.9015      1.576     3.32     961.2382     58.00886      194.285        15     1.025     0.944  55.03   0
       261    708.3057    658.4761 307.6269919  +6.4221066     1240.895     1768.683     1892.031     82.23357     164.7942     329.0979      1.528     3.69     951.5682     58.00886      176.921        11     0.961     0.836  17.99   0
       262    146.7527    653.3091 307.8604044  +6.4053967     25563.07     36734.75     37746.89     82.49505     164.5326     329.2288      1.556     3.09      965.045     58.00886     3621.259        47     1.416     1.136  64.92   0
       263    433.4628    654.1563 307.7412944  +6.4146808     2970.621     4353.301     4933.835     82.49505     164.5326     329.1634      1.656     4.01     959.0093     58.00886     377.8411        26     1.493     1.047  88.85   0
       264     99.8797    656.2147 307.8797736  +6.4026194     858.5901     1265.312     1364.444     82.10252     164.3361     328.9015      1.521     3.13     966.4584     58.00886     121.3842         7     0.836     0.637 -56.21   0
       265    815.1881    653.8859 307.5827512  +6.4275765     1355.471     2103.982      1895.98     82.10252     164.3361     328.9343      1.562     3.47     949.9545     58.00886     203.4991        12     1.075     0.741  39.22   0
       266    366.0903    648.3217 307.7694742  +6.4148285     837.5571     1360.255     1053.622     82.23357     164.8595     329.1634      1.695     4.09     960.0005     58.00886     141.8815         9     1.205     0.676 -87.18   0
       267    608.5073    647.7076 307.6688066  +6.4232118     601.2238     753.9889     764.7242     82.49505     165.1206     329.0979      1.373     4.47     953.8327     58.00886     83.30011         7     1.022     0.556  31.93   0
       268    983.1489    642.8806 307.5133546  +6.4377302     7803.861     11218.71     11638.38     82.49504     164.6634     329.0979      1.500     3.09     944.9937     58.00886     1182.514        32     1.511     0.916  50.46   0
       269     28.0246    642.2925 307.9100881  +6.4059478     1339.564     1981.198     1645.367     82.62547     164.3361     328.9343      1.613     4.00     966.3726     58.00886     183.9801        14     1.170     0.834  84.93   0
       270    576.7330    638.1688 307.6823257  +6.4260859     51558.59      73586.3     76150.41     82.36441      164.598     329.0652      1.531     3.00     954.2829     58.00886     7254.341        64     1.390     1.220  61.75   0
       271    940.8886    639.5512 307.5310203  +6.4376944     842.1455      996.507     978.0069     82.49504     164.4671      329.196      1.473     2.96     946.1718     58.00886     183.4697         9     1.064     0.573  35.68   0
       272    535.6921    638.5043 307.6993612  +6.4245719     755.3063     929.7252     785.9806     82.49505     165.1206     329.0652      1.148     3.82     955.4014     58.00886     121.5639         6     0.908     0.462 -89.58   0
       273    219.3841    638.9059 307.8307254  +6.4137867     659.6452     1047.104      1124.68     82.23357     164.4017     328.9343      1.497     4.63     963.2109     58.00886     117.2307         6     0.986     0.617  21.77   0
       274    801.7193    637.6132 307.5888928  +6.4338453      551.283     861.9399     1193.485     82.10252     164.3361     328.9015      1.568     3.50     949.6121     58.00886     91.10577         5     0.774     0.457  15.68   0
       275    184.4342    634.8818 307.8453775  +6.4142727     2811.161     4200.666      4345.76     82.49505     164.5326     329.0652      1.584     3.60     963.9537     58.00886     375.7963        21     1.217     1.024  62.79   0
       276    987.3870    634.5816 307.5118727  +6.4412983      719.543     1069.203     1003.399     82.23357     164.2706     328.9997      1.622     3.65     944.4544     58.00886     107.5482         6     0.850     0.526  44.51   0
       277    506.7534    635.1965 307.7114926  +6.4249675     753.4478     1022.432     1116.522     81.83979     164.3361     328.7378      1.511     3.64     956.1299     58.00886     112.8688         5     0.833     0.633 -40.69   0
       278     77.1715    629.2140 307.8901191  +6.4130029     1354.707     2055.853     2142.701     82.10252     164.4017     328.9997      1.671     3.59     965.7974     58.00886     187.9925        13     1.144     0.788  75.26   0
       279    473.9890    621.9225 307.7255492  +6.4293495     64197.58     94677.44     98442.16     82.10252      164.205     328.9343      1.554     3.07      956.908     58.00886     8935.527        75     1.442     1.269  65.13   0
       280     17.5277    623.3866 307.9150883  +6.4133999     1879.215     2693.409     3126.475     81.97126     164.2706     328.9015      1.549     3.25     965.8333     58.00886      246.108        14     1.073     0.827  64.14   0
       281    659.5419    618.7838 307.6485827  +6.4368634     1054.305     1479.831      817.376     81.83979     164.5326     328.8033      1.667     5.83     951.4259     58.00886     143.2651        10     1.220     0.804  69.26   0
       282    148.4394    616.9070 307.8609356  +6.4204832     1776.036     2626.376     1805.913     82.62547     164.5326      329.196      1.490     3.37     964.6091     58.00886     240.5623        16     1.164     0.845  65.23   0
       283    427.5665    614.5266 307.7450808  +6.4308457      964.951     1589.288     1916.138     82.36441     164.5326     329.0979      2.038     5.67     957.4987     58.00886     134.1362        12     1.292     0.700  36.69   0
       284    620.2159    613.8743 307.6650829  +6.4375736     892.3876      1469.59     1215.022     81.97126     164.3361      328.967      1.627     3.46     952.2984     58.00886     141.4073         7     0.810     0.743  62.53   0
       285    501.3402    613.0053 307.7144893  +6.4339486     657.2523     1104.648     1325.681     81.97126     164.4671     328.8688      1.648     3.42     955.8387     58.00886     106.8203         7     0.735     0.684  71.82   0
       286    319.4721    611.2853 307.7900879  +6.4285548     2204.646     3337.507     3950.698     82.62547     164.8595     329.1306      1.748     3.64     959.4059     58.00886     275.0746        21     1.324     0.966  72.82   0
       287     20.5660    612.4562 307.9141967  +6.4180152      723.374     1144.063     1313.021     82.36441      164.598     329.0979      1.608     5.48     965.4886     58.00886      110.514         8     1.262     0.672  88.74   0
       288    471.4112    609.7971 307.7270289  +6.4342695     880.8076     1502.017     1605.666     82.10252     164.2706      328.967      1.809     6.08     956.7544     58.00886     106.6237        12     1.255     0.920  10.45   0
       289    745.9846    605.4152 307.6131265  +6.4452760     5914.593     7877.208     8069.786     82.23357     164.2706     329.0325      1.433     2.86     950.2922     58.00886     843.2728        23     1.141     0.976  63.50   0
       290    799.5357    600.7717 307.5910385  +6.4489841     15268.27     20888.76     21317.35     82.10252      164.598     329.0325      1.462     2.86     948.5553     58.00886     2281.278        37     1.264     1.086  66.48   0
       291   1017.0215    601.1738 307.5006839  +6.4560812     1169.227      1494.21     924.4435     81.97126     164.4017     327.3921      1.285     2.61     941.2407     58.00886     204.0884         9     0.801     0.715  55.23  16
       292    541.8384    600.3117 307.6980956  +6.4405474     1207.671     1792.249     1640.551     82.49505     164.5326     329.1306      1.616     5.27     953.6296     58.00886     172.6106        12     1.325     0.779  69.19   0
       293    623.3409    598.8344 307.6642914  +6.4438882     3154.173     4459.618     4672.504     82.36441      164.598     329.0325      1.498     3.23      951.623     58.00886     416.3835        22     1.216     1.013  81.68   0
       294     44.8757    599.8815 307.9045261  +6.4240260     571.0562     789.9103     840.7773     82.75569     164.8595      329.196      1.435     3.93     965.2703     58.00886     115.2971         5     0.816     0.543 -37.46   0
       295    940.7500    595.2631 307.5325649  +6.4559765     1250.042     1919.794     2253.492     82.49505     164.5326     329.1634      1.755     3.75     944.7781     58.00886     165.7653        12     1.086     0.778  61.50   0
       296    235.9574    592.4073 307.8254140  +6.4335425     1291.436     2201.149     2799.809     81.97126     164.3361     328.8033      1.968     4.96     961.0173     58.00886     166.5021        14     1.342     0.773 -86.13   0
       297    381.6961    592.3082 307.7648835  +6.4384799     1041.523     1526.929     1258.541     82.49505     165.1206     329.0652      1.575     4.69     957.3359     58.00886     133.1658        11     1.139     0.773 -63.72   0
       298    875.5931    584.0150 307.5600084  +6.4584449     3256.113       4297.5     4357.404     82.10252     164.3361     328.9343      1.398     2.85     946.6666     58.00886      481.278        20     1.122     0.933  56.19   0
       299    170.7772    583.3442 307.8527933  +6.4350923     896.2952     1234.737     1375.447     82.10252      164.598     328.9015      1.560     4.93     962.8381     58.00886     143.4249         9     1.058     0.767  69.44   0
       300    834.4594    581.5632 307.5771773  +6.4580827      2871.82     3892.724     4125.911     82.49505     164.6634     329.0979      1.438     2.99     947.4871     58.00886     425.5825        20     1.213     0.893  52.63   0
       301    805.2308    577.4417 307.5894572  +6.4588075     2956.668     4077.291     4776.269     81.97126     164.5326     328.9343      1.531     3.02     947.8196     58.00886     388.6766        21     1.189     0.936  64.96   0
       302    262.4387    576.4263 307.8149551  +6.4410310     8188.455     12341.14      12358.5     82.10252     164.4017     328.9343      1.642     3.30     959.8159     58.00886     1033.605        35     1.376     1.137  66.91   0
       303    747.4274    577.6594 307.6134609  +6.4567846     678.5841     935.2183      905.632     82.10252     164.6634     328.9997      1.553     3.97     949.4147     58.00886     120.5063         6     0.882     0.511  46.22   0
       304    814.9608    572.6535 307.5855764  +6.4611098     174622.8     239637.2       249851     82.36441     164.6634     329.0979      1.464     2.88     947.5403     58.00886     26294.16       109     1.459     1.221  62.75   0
       305    196.6048    570.8922 307.8424870  +6.4411024     60340.18     91195.67     96266.92     82.10252     164.2706     328.8688      1.622     3.23     961.4889     58.00886     8072.286        75     1.482     1.304  69.09   0
       306    120.5902    567.1205 307.8741877  +6.4401018     6404.604     9630.948     9992.184     82.10252     164.2706     328.9343      1.602     3.27     963.9471     58.00886     853.9546        33     1.327     1.159  72.39   0
       307    985.9047    564.2649 307.5148483  +6.4702829     1516.343      1974.25     1575.986     82.49505     164.7288     329.1306      1.377     3.74     941.2607     58.00886     277.1077        11     1.218     0.589  62.06   0
       308   1007.1216    563.4062 307.5060636  +6.4713454     768.7784     1179.128     860.1224     82.10252     164.0738     328.8688      1.805     5.23     940.3012     58.00886      100.508         9     1.084     0.714  65.97   0
       309    235.2993    562.8616 307.8266863  +6.4457193     829.5927     1347.965     1851.411     82.23357     164.4671     329.2288      1.972     5.42     960.0917     58.00886     121.6894        10     1.270     0.653  58.90   0
       310    851.5115    559.8543 307.5708236  +6.4676162     4992.087     6937.896     7170.913     82.49505     164.4671     329.2288      1.449     2.73     946.4898     58.00886     768.9266        26     1.163     1.042  52.56   0
       311    369.9536    558.0742 307.7709169  +6.4522204     17313.37     26469.64      27663.9     82.36441     164.6634     329.0979      1.608     3.20     956.1753     58.00886      2331.47        49     1.440     1.238  66.41   0
       312    171.7415    557.1754 307.8532782  +6.4459294     1983.682     2891.812      3519.23     82.10252      164.598     328.9343      1.600     3.36     961.6614     58.00886      326.571        18     1.293     0.925 -86.02   0
       313    460.3090    558.2180 307.7333805  +6.4551937     781.7137     1106.737     1097.798     82.23357     164.3361      328.967      1.736     4.15     954.0851     58.00886      124.424         9     1.110     0.743 -43.90   0
       314    805.4418    553.3025 307.5901812  +6.4687817     6675.895     9225.658     9462.032     82.49505     164.4671     329.3269      1.471     2.85     947.1702     58.00886     892.9739        30     1.248     1.054  52.97   0
       315    247.2094    554.7104 307.8220149  +6.4494852     801.7006     1033.096     516.5195     82.23357     164.2706     328.9015      1.332     3.46     959.5629     58.00886     160.8484         8     0.936     0.606  82.69   0
       316    177.1672    554.2581 307.8511233  +6.4473164     770.9899     1413.322     2163.469     82.36441     164.6634     329.0325      2.289     5.07     961.3866     58.00886     94.21375         8     0.996     0.728 -71.98   0
       317    109.3668    554.2380 307.8792855  +6.4450429     1017.748     1570.716     1465.006     82.23357     164.4017     328.8688      1.503     4.03     964.2213     58.00886     155.8087         9     0.937     0.776  51.95   0
       318    536.2819    552.8752 307.7020028  +6.4599474     6722.633     9575.223     9278.748     82.75569     164.8595     329.1634      1.536     3.22      952.002     58.00886     842.9141        27     1.256     1.051  66.21   0
       319    394.4738    549.6991 307.7610146  +6.4565017      1454.79      2265.43     1956.583     82.10252     164.7288     329.0652      1.682     5.35     955.0264     58.00886     187.2833        17     1.310     1.003 -59.53   0
       320    183.3643    546.1041 307.8488251  +6.4508915     6830.799     10449.35     10997.94     82.62547     164.4671     329.2288      1.628     3.24     960.8786     58.00886     847.2963        34     1.371     1.172  58.04   0
       321    581.1110    546.0097 307.6836127  +6.4642846     2365.929     3885.678     4222.554     82.10252     164.2706     328.8688      1.761     3.77     950.4188     58.00886     299.3206        23     1.317     1.077 -37.07   0
       322    278.6040    542.5604 307.8093852  +6.4555571     87228.41     132975.3       138369     81.57622     164.3361     328.8033      1.661     3.27     958.4721     58.00886     11163.49        80     1.494     1.309  67.71   0
       323     55.0661    544.8307 307.9021582  +6.4470984     4967.396     7648.512      8075.59     82.23357      164.598     329.0325      1.630     3.27     964.9765     58.00886     669.8604        31     1.402     1.094  56.95   0
       324    822.0560    545.6819 307.5835359  +6.4724836     1555.699     2006.864     2636.593     82.49504      164.598     329.1306      1.427     3.08     946.6405     58.00886     235.5238        14     1.009     0.890   9.82   0
       325    568.1189    540.0544 307.6892102  +6.4663081     1036.844     1349.945     1589.316     82.49505      164.598     329.1633      1.470     5.11     950.5306     58.00886     133.1872        10     0.930     0.794  10.70   0
       326    262.8556    537.7187 307.8160904  +6.4570268     1459.573     2187.399      2337.24     82.49505      164.598     329.1306      1.592     3.65      958.514     58.00886     221.3699        17     1.181     0.994  52.47   0
       327    978.1815    536.5483 307.5189869  +6.4814694      1824.36     2370.623     2554.801     81.97126     164.6634     328.8361      1.366     3.08      940.708     58.00886     323.2058        14     1.016     0.870  37.53   0
       328    801.7170    535.0050 307.5923437  +6.4762122     17576.72     24172.93     24700.42     81.97126      164.205     328.8033      1.440     2.86     946.6348     58.00886     2699.681        39     1.285     1.059  56.29   0
       329    655.7664    531.8448 307.6530784  +6.4726338     975.1951     1653.295     1598.919     82.10252     164.4671      328.967      1.819     3.94     948.3987     58.00886     148.9124        10     0.973     0.843  42.14   0
       330    217.7839    529.8318 307.8350786  +6.4587678     1844.455     2938.523     3293.059     82.10252     164.3361     328.9997      1.624     3.41     959.3119     58.00886     281.8892        21     1.171     1.094  69.90   0
       331    665.2438    528.4364 307.6492562  +6.4743584      3137.55     4517.391     5243.975     82.23357     164.5326     328.9343      1.567     3.03     948.1353     58.00886     429.0529        21     1.184     0.965  79.67   0
       332    505.3498    533.3992 307.7155083  +6.4669518     41304.57     66258.22     70586.45     81.83979      164.205     328.6395      1.763     3.44     951.8217     58.00886     5136.418        77     1.591     1.397  43.15   0
       333     53.5708    529.6982 307.9032919  +6.4532959      1314.36     1804.048     1933.032     82.62547     164.3361     329.0979      1.457     2.79     964.6672     58.00886     191.2051        11     0.911     0.773 -80.84   0
       334    675.5117    528.2504 307.6449972  +6.4747790     1498.949     1884.303     2530.363     82.49505     164.4017     329.2288      1.456     3.20     948.0255     58.00886     239.3834        13     1.066     0.807  79.03   0
       335    727.3829    527.5262 307.6234741  +6.4768140     1349.735     2001.682     2207.014     81.97126     164.4017      328.967      1.726     3.67     947.9481     58.00886     204.5169        11     1.102     0.715  63.14   0
       336    402.9324    524.2955 307.7583586  +6.4672745     1697.427     2585.545     2543.759     82.36441     164.7288     329.0979      1.609     4.22     953.6727     58.00886     246.5206        18     1.336     0.923 -84.68   0
       337     84.4447    524.9169 307.8906300  +6.4563098     594.7946     860.2691     1515.003     82.49504      164.598     329.0979      1.445     4.19     963.9521     58.00886       97.414         6     0.778     0.644  40.97   0
       338    149.6864    520.9187 307.8636660  +6.4601569     26213.26     39324.45     41047.09     82.23357     164.8595     329.2288      1.600     3.20     961.2466     58.00886     3625.879        53     1.444     1.210  69.85   0
       339    514.4921    521.7717 307.7121028  +6.4720593     2192.725     3229.215     3600.419     82.62547     164.3361      328.967      1.687     3.26     951.0123     58.00886     293.0651        17     1.117     0.934  73.77   0
       340    334.5945    522.2466 307.7868144  +6.4658257     4031.873     6014.795     6207.112     81.83979     164.4017     328.7378      1.634     3.40     955.3005     58.00886      516.677        25     1.244     1.083  34.21   0
       341    877.7748    521.0397 307.5612180  +6.4845203     1643.272     2217.175     1910.841     82.10252     164.4017     328.8688      1.387     2.70     943.7557     58.00886     259.8167        13     0.983     0.794  86.84   0
       342    114.9478    519.1871 307.8781540  +6.4597026     2707.281     4194.326     4019.795     81.83979     164.5326     328.8361      1.617     3.54     962.6343     58.00886        330.8        22     1.222     1.107  79.86   0
       343    351.6413    517.5803 307.7798910  +6.4683249     1213.455     1724.102     1844.891     82.10252     164.4017     328.9015      1.567     4.03     954.5204     58.00886     165.8428        13     1.062     0.884  54.10   0
       344    975.2066    515.4711 307.5209302  +6.4900730     5799.686     7820.474     8498.713     81.97126      164.205     328.9997      1.427     3.03     940.5516     58.00886      853.608        28     1.236     0.974  61.33   0
       345    548.4373    507.9956 307.6984665  +6.4788854     1515.704     2414.647     2429.144     81.57622     164.3361     328.9015      1.667     5.00     949.4757     58.00886      176.746        14     1.304     0.787  63.88   0
       346     14.0160    505.2609 307.9205495  +6.4620528     26125.43     38978.31     40824.51     81.97126     164.5326     328.8688      1.580     3.18     965.5175     58.00886     3708.817        51     1.436     1.179  67.19   0
       347    424.0026    505.4009 307.7502440  +6.4757831     620.1542     1116.687     918.0632     81.83979     164.1395     328.8361      1.785     4.59     952.5402     58.00886     81.10767         7     0.958     0.625  53.82   0
       348    446.6797    502.0555 307.7409369  +6.4779254     43002.76     64611.81     67341.88     82.62547      164.598     329.1306      1.615     3.23     951.7372     58.00886     5721.438        61     1.434     1.258  69.41   0
       349    654.6971    501.7914 307.6545346  +6.4850069     12717.45     18489.06     19494.35     82.23357      164.205     328.9015      1.569     3.09     947.3222     58.00886     1815.747        39     1.324     1.152  64.99   0
       350    294.4822    502.4091 307.8041467  +6.4726686     1094.218     1717.647     1565.735     82.10252      164.205     328.9343      1.641     6.03     955.1177     58.00886     126.1244        13     1.223     0.900  46.01   0
       351    211.8861    499.6556 307.8385491  +6.4710287     18960.18     30544.86     32277.84     82.49504      164.598     329.2615      1.728     3.48      958.371     58.00886     2391.927        51     1.546     1.254  52.03   0
       352    177.4694    500.8086 307.8528061  +6.4693949     1686.736     2736.737     2326.297     81.97126     164.2706      328.967      1.665     3.88     959.6668     58.00886     213.2809        17     1.191     0.929  74.86   0
       353      1.3743    499.2957 307.9260026  +6.4640897     1392.788     2338.794     3326.371     72.34149      131.423     248.0935      2.080     6.54     966.0623     58.00886     319.4402        17     2.085     0.616  87.62  24
       354    988.5536    499.8847 307.5159088  +6.4969541     1345.081     1903.311     1838.431     82.49504     164.5326     329.0979      1.307     3.01     940.1415     58.00886     219.6359        11     1.094     0.594  50.52   0
       355    917.4469    499.7343 307.5454533  +6.4946425       823.46     1259.263     1512.343     82.49505     164.5326     329.0979      1.687     4.57     941.4578     58.00886     119.0771         9     1.170     0.599  62.55   0
       356    828.8359    499.6736 307.5822662  +6.4917071     981.3687     1391.184      1555.25     82.36441      164.598     329.0979      1.326     3.36      944.277     58.00886     166.4786         9     1.048     0.546  65.15   0
       357    576.4161    498.5864 307.6871611  +6.4837081     2966.664     4337.536     4387.979     82.23357     164.2706     329.0325      1.585     3.33     948.4274     58.00886     334.5841        20     1.183     0.976  76.51   0
       358    950.3845    495.6172 307.5319084  +6.4974422     5478.648     7276.757     7388.346     82.23357     164.2706     329.0325      1.440     2.75     940.6785     58.00886     777.1615        23     1.143     0.970  65.37   0
       359    623.4855    494.0519 307.6677609  +6.4871573     6758.362     9844.939     10228.57     82.49504     164.5326     329.2288      1.566     3.15     947.3835     58.00886     847.5219        33     1.346     1.110  57.26   0
       360    111.3028    494.4344 307.8805060  +6.4697998     1222.317     1770.671     1735.509     82.49505     164.4671     329.2615      1.630     3.52     961.6505     58.00886     170.6906        16     1.140     0.947  76.16   0
       361    222.7745    493.8720 307.8342218  +6.4737828     616.0688     955.7961     1237.832     82.10252     164.4671     328.9997      2.013     5.56     957.7356     58.00886     97.18268         7     1.087     0.801  24.07   0
       362    972.9994    487.8639 307.5227739  +6.5013984     3830.831     5121.087      5010.22     81.70811     164.3361     328.8361      1.392     2.96     940.2461     58.00886     604.1726        23     1.322     0.887  52.32   0
       363    412.2675    487.0198 307.7557392  +6.4829786     675.0876     1158.397     1297.875     82.10252      164.598     329.0325      1.797     5.65     952.2119     58.00886     79.15118         7     1.270     0.709 -86.50   0
       364    535.6705    485.4088 307.7045314  +6.4877833     7616.404      11140.3     11787.49     81.97126      164.205      328.967      1.598     3.23     948.5535     58.00886     992.3692        32     1.312     1.106  58.94   0
       365    381.7161    485.7245 307.7684740  +6.4824877     2706.317     4134.208     4693.097     82.62547     164.9248      329.196      1.683     3.40     952.3195     58.00886     376.2336        21     1.154     1.095 -80.89   0
       366    751.2444    485.6949 307.6149692  +6.4948843     618.3962     769.3036      52.2384     82.49505     164.5326     329.2288      1.283     4.12       945.91     58.00886     117.6706         6     0.747     0.649  52.01   0
       367   1003.4944    483.2799 307.5102592  +6.5043088     483.0583     795.8984     538.8003     82.23357     164.8595     329.1634      1.223     3.44     939.9625     58.00886      108.104         5     0.786     0.435  67.85   0
       368    892.1684    481.1646 307.5565784  +6.5014656     3580.938     4992.612     6163.053     82.10252     164.3361     328.8361      1.469     2.89     941.1645     58.00886     541.7034        19     1.123     0.895  73.93   0
       369    545.1390    481.7816 307.7007204  +6.4895984     767.4468     1030.215     1436.921     82.10252     164.5326     328.9343      1.535     5.40      948.201     58.00886     123.5588         9     1.107     0.759 -84.80   0
       370    899.6458    475.7828 307.5536529  +6.5039376     2334.925     3265.906     3790.866     81.97126     164.4671     328.8361      1.422     3.03     940.8843     58.00886     358.3766        17     1.166     0.830  75.01   0
       371    939.0219    474.9644 307.5373223  +6.5055904     1443.336     1978.914     1726.317     81.97126     164.3361     328.8361      1.421     3.40     940.1653     58.00886     232.8914        14     1.031     0.953  34.58   0
       372    118.5273    474.7629 307.8781711  +6.4781649     725.8047     1262.352     1407.942     82.36441      164.598     329.1634      1.931     6.24     960.6566     58.00886     96.46729        10     1.212     0.904 -79.15   0
       373    723.6898    471.6731 307.6268879  +6.4997520     3109.732      4332.54      4215.22     82.49505     164.8595     329.1306      1.488     3.14     945.6837     58.00886     419.0228        21     1.178     1.025  86.28   0
       374     85.4426    470.6601 307.8920529  +6.4787449     1880.954     2888.227     2988.302     82.49505      164.598      329.196      1.612     3.68     961.7774     58.00886     262.0956        17     1.268     0.844  67.99   0
       375    394.4011    469.7511 307.7637440  +6.4895089     3574.091     5678.926     5862.651     81.83979      164.205     328.6395      1.720     3.50     951.4238     58.00886     434.2699        28     1.303     1.173  81.58   0
       376    434.4814    469.7029 307.7470960  +6.4908741     1072.855     1529.973     1689.622     82.36441     164.9248     329.1634      1.550     4.13     950.7501     58.00886     142.7639         9     0.990     0.665  53.85   0
       377    622.2157    466.3898 307.6692203  +6.4985363     10125.13     14829.79      15482.4     82.23357     164.3361      328.967      1.588     3.16     946.5697     58.00886     1337.648        35     1.286     1.182  72.76   0
       378    784.8701    462.8993 307.6017672  +6.5054212     17286.43     24631.82     25918.65     82.36441     164.7288     329.0979      1.493     2.98     944.1616     58.00886     2606.164        47     1.384     1.143  63.62   2
       379    788.8362    457.9371 307.6002865  +6.5076028     1498.193     2245.324     2608.691     82.36441      164.598     329.0979      1.623     3.67     943.8462     58.00886     211.4945        16     1.122     0.954 -73.21   3
       380    304.6150    463.2229 307.8012620  +6.4891885     2746.106     4051.621     3948.511     82.23357     164.4017     328.9997      1.569     3.20     952.4759     58.00886     374.5667        20     1.231     0.911  68.00   0
       381    428.5294    462.2690 307.7498194  +6.4937437     756.3575     1013.308     773.0393     82.49505     164.7288     329.0652      1.463     4.08     950.4969     58.00886      104.592         7     0.970     0.690 -83.42   0
       382    387.8683    459.8424 307.7667923  +6.4933807     1483.522     2390.105     2888.074     82.49504     164.5326      329.196      1.729     3.47     950.8655     58.00886     188.5597        17     1.069     1.033 -85.52   0
       383    814.0034    459.9046 307.5897650  +6.5076319     1333.505     1981.411     2121.187     82.23357     164.2706     328.7705      1.476     2.66     943.1863     58.00886     248.3252        10     0.892     0.712  82.04   0
       384    970.0226    457.7623 307.5250212  +6.5137281     2211.745      2923.33     2965.812     82.10252     164.3361     328.8688      1.417     3.79     939.0052     58.00886     353.4471        15     1.172     0.808  65.41   0
       385    376.4495    455.6059 307.7716789  +6.4947465     654.3611     1116.028     1151.569     81.97126     164.4017     328.7378      1.631     5.57      950.657     58.00886     90.92456         8     1.134     0.771 -65.25   0
       386    122.2970    454.7309 307.8772835  +6.4865626     4261.981      6548.47     6921.824     82.36441     164.7942     329.0979      1.683     3.48     959.9572     58.00886     516.0394        28     1.278     1.176  71.39   0
       387    760.5079    453.5747 307.6122017  +6.5084566     2485.159     3536.306     3268.645     82.62547     164.3361     328.9343      1.549     3.70     944.2898     58.00886     365.9001        19     1.316     0.877  75.22   0
       388   1023.2288    452.2735 307.5031014  +6.5177699     3369.119     4239.222     4310.088     76.95745     137.4308     254.9857      1.285     3.18     937.5045     58.00886     582.4202        16     1.173     0.752  70.92  24
       389    280.2086    451.9774 307.8117805  +6.4930114     1442.084      2157.18     2342.625     82.10252     164.4017     328.9015      1.509     3.89     952.8964     58.00886     212.4862        14     1.203     0.754  70.72   0
       390    358.3414    449.4760 307.7794082  +6.4966693     3230.073     4968.359     5433.183     82.62547     164.6634     329.0652      1.760     3.62     950.2827     58.00886     383.9016        24     1.351     1.089  65.73   0
       391    714.2181    447.4835 307.6316368  +6.5094229      1763.44     2744.394     2735.289     82.10252     164.2706     329.0652      1.566     4.00     944.6085     58.00886     233.7179        16     1.250     0.847 -84.52   0
       392    987.8537    445.8426 307.5180136  +6.5192449     786.6827     786.0179      612.582     82.49504      164.598     329.0979      1.213     3.62     937.9288     58.00886     125.3915         9     0.948     0.682  80.11   0
       393    246.3681    445.4917 307.8260573  +6.4945516     1063.276     1551.539     1492.245     82.62547     164.4017     329.1306      1.644     4.26     954.2103     58.00886      127.949        11     0.968     0.820  80.17   0
       394    456.5512    441.2919 307.7388868  +6.5033452     599.9577     922.3116      950.663     82.36441     164.4017     329.2615      1.654     4.18     948.4147     58.00886     87.96313         7     1.024     0.488  83.82   0
       395    555.9489    439.9687 307.6976394  +6.5072250     929.2141     1347.163     1856.152     82.36441     164.7288     329.0325      1.436     4.33     946.9545     58.00886     138.1238         9     0.889     0.814  33.58   0
       396    477.8329    438.3633 307.7301447  +6.5052684     1262.787     1828.732     1571.798     82.10252     164.3361     328.8361      1.590     3.93     947.5705     58.00886     185.8772        12     1.043     0.877 -53.68   0
       397    840.4365    437.2840 307.5795443  +6.5178554     1568.691     2199.188     2205.424     82.49505      164.598     329.0652      1.593     3.41     941.5259     58.00886     197.4183        15     1.157     0.788  58.44   0
       398    826.1350    436.5127 307.5855117  +6.5176959     2272.915      3045.75     2731.913     82.49504     164.7942     329.1306      1.431     2.95      941.918     58.00886     339.1592        16     1.005     0.955  65.47   0
       399    723.3466    434.5957 307.6282783  +6.5150497     15891.68     22371.92     23717.76     81.83979     164.3361     328.7378      1.533     2.96     944.0377     58.00886      2063.09        36     1.302     1.080  61.35   0
       400    644.4907    430.5686 307.6611734  +6.5140727     2904.799     4243.518     4821.663     82.62547     164.4017     329.0979      1.687     3.16      945.035     58.00886     371.7252        20     1.125     1.014  59.78   0
       401    616.8445    425.7795 307.6728198  +6.5151241     12592.75      26139.8     30235.48     81.97126     164.4671     328.9015      2.271     6.37     945.8911     58.00886     2037.432        60     2.393     1.191  36.61   0
       402    717.5487    429.2696 307.6308663  +6.5170548     817.3547     1166.669     2109.284     82.36441     164.4671     329.0979      1.510     2.87     943.7848     58.00886     119.0208         5     0.714     0.454 -68.33   0
       403    948.5641    424.4664 307.5350540  +6.5267597      4379.83     5617.005     5507.438     82.36441     164.6634     329.1634      1.375     2.86     938.0851     58.00886     682.3938        20     1.171     0.874  75.24   0
       404    387.7905    420.4668 307.7681543  +6.5096358     29070.78     44522.43     46178.85     81.97126     164.4017     329.0325      1.663     3.30     948.5864     58.00886     3679.032        54     1.435     1.257  65.09   0
       405    133.9548    420.0695 307.8736143  +6.5012660     2236.636     3459.586     3748.416     82.49505     164.5326     329.0979      1.597     4.16     958.3835     58.00886     291.3706        23     1.437     0.990  72.14   0
       406    425.1359    422.1937 307.7525819  +6.5101765     555.2386     653.2324     233.7315     81.83979     164.3361     328.8688      1.127     4.24     948.4287     58.00886     117.0266         6     0.800     0.641 -86.35   0
       407    904.2950    420.0090 307.5535953  +6.5271219     1659.896     2791.658     3697.987     82.23357      164.205     328.8688      2.170     4.28     939.4236     58.00886     264.5093        18     1.430     0.868  60.49   2
       408     67.3578    415.7180 307.9014261  +6.5008201     1448.533     2327.384      2518.57     82.49505      164.598     329.0325      1.784     4.05     961.0182     58.00886     184.3765        17     1.281     0.893  71.18   0
       409    917.3909    414.8869 307.5483267  +6.5296742       5462.5     7363.904     7163.556     82.10252     164.2706     328.9343      1.398     2.88     938.8746     58.00886     781.4583        22     1.230     0.877  53.08   0
       410    973.3882    412.4771 307.5251434  +6.5325388      673.404     707.9986     646.3876     82.10252      164.205     328.9343      1.394     3.08     936.5089     58.00886     141.6054         6     1.023     0.743  80.05   0
       411    245.3140    411.0004 307.8276615  +6.5087570     13773.87     21430.38     21846.14     81.70811     164.0738     328.7378      1.633     3.30     952.5938     58.00886     1791.293        40     1.403     1.199  64.78   0
       412    740.2396    404.5290 307.6222722  +6.5280293     837.4036     1139.578     966.3676     82.36441      164.598     329.1634      1.480     4.96     942.4832     58.00886      110.924         7     1.000     0.697  49.95   0
       413     81.3369    405.0649 307.8959801  +6.5056894     702.7861     1316.397     1248.307     82.49504      164.598     329.1306      1.744     3.46     960.2416     58.00886     116.8555         5     0.816     0.423  72.38   0
       414    968.6477    403.1932 307.5274246  +6.5362139     1339.303     1507.174     1431.753     81.97126     164.4017      328.705      1.242     2.69     936.1537     58.00886     208.9988        12     0.879     0.843  -3.75   0
       415    708.2956    404.0515 307.6355593  +6.5271576     775.4179     1183.247     1300.135     82.36441     164.5326     329.3596      1.576     5.02     942.5891     58.00886     110.6375         7     1.104     0.645  26.67   0
       416    191.5248    401.4690 307.8503287  +6.5108832     824.1458     1568.984     1706.475     82.62547     164.7288     329.0979      2.104     6.17     955.0328     58.00886     126.6832         8     1.421     0.753 -76.43   0
       417    358.2347    400.4710 307.7811078  +6.5168992     1417.044     2183.716     2319.464     82.36441     164.5326     329.0979      1.739     4.37     947.9423     58.00886     171.1152        16     1.212     0.912  81.65   0
       418    145.6086    399.6760 307.8694636  +6.5100783     5207.857     7794.979     8090.824     82.10252     164.0738     328.9015      1.644     3.38      957.516     58.00886     656.1414        30     1.280     1.178  65.18   0
       419    250.7289    398.6889 307.8258284  +6.5140223     1312.178     2060.002     2215.008     82.62547     164.8595     329.0979      1.612     3.55     951.8307     58.00886      182.637        12     1.045     0.833  76.49   0
       420    831.8447    396.6881 307.5844786  +6.5343303     950.4432      1460.73     1030.568     82.49505     164.4671     329.1306      1.590     4.61     940.2125     58.00886     133.1062        10     1.141     0.691  50.57   0
       421    443.0824    398.0780 307.7459405  +6.5207358     708.7706     764.8584     948.3539     82.62547     164.8595     329.2288      1.352     4.20     946.3674     58.00886     126.5732         7     0.952     0.528  48.53   0
       422    167.6704    395.4222 307.8604428  +6.5125771     2464.892     4095.119     4395.213     82.10252     164.5326     329.0652      1.812     4.13     956.3932     58.00886     290.3325        25     1.474     1.055 -81.55   0
       423    563.3217    394.5532 307.6961076  +6.5262238     945.4852     1272.931     1642.444     82.49505     164.6634     329.0652      1.566     4.68     944.2203     58.00886     113.4536        11     0.971     0.831  57.16   0
       424    977.3945    393.7459 307.5241078  +6.5404066     590.2144     723.0978     760.2003     81.97126     164.3361     328.7705      1.366     4.10     935.3126     58.00886     92.31445         5     1.152     0.417  76.29   0
       425    391.0650    390.2017 307.7678161  +6.5222418     2085.468     3174.067     3632.758     81.83979     164.3361     328.8688      1.763     3.99     947.1541     58.00886      264.705        19     1.253     0.980  79.47   0
       426    279.6391    391.1122 307.8140747  +6.5181225     778.4146     1135.575     902.4387     82.49504     164.5326     329.1306      1.596     5.39     950.2775     58.00886     124.1731         6     1.144     0.717  77.64   0
       427    979.6799    389.5875 307.5232979  +6.5421999     949.6263     1395.295     1663.006     82.10252     164.2706     328.9343      1.363     2.51     934.9656     58.00886     180.6387         6     0.686     0.614 -81.59   0
       428     10.2189    390.3642 307.9260209  +6.5093628     656.1988     1233.973     1150.976     81.97126     164.4017     328.8688      2.034     3.52     962.7825     58.00886     91.10138         5     0.802     0.445  15.94   0
       429    444.8991    383.7989 307.7456677  +6.5266925     7289.207     11252.76     11739.57     81.97126      164.205     328.8033      1.637     3.28     945.3797     58.00886     902.2429        33     1.407     1.111  70.03   0
       430     41.2750    384.6768 307.9133127  +6.5127575     3221.659     5164.068     5250.493     82.75569     164.8595     329.1634      1.678     3.86     961.4437     58.00886     402.5723        28     1.319     1.259   2.72   0
       431    777.5175    382.8016 307.6075162  +6.5382475     2289.929     3222.701     3488.476     81.70811     164.1395     328.8033      1.570     3.17     940.5416     58.00886     360.5773        18     1.143     0.905  69.88   0
       432    785.5446    381.1553 307.6042366  +6.5391957     13712.91     19126.13     19985.84     82.49505      164.598     329.0979      1.496     2.89     940.2847     58.00886     1844.143        40     1.330     1.109  63.49   0
       433    349.1804    379.7052 307.7855708  +6.5251690     1012.327     1659.711      1679.25     82.36441     164.4017     328.9015      1.679     4.02     947.5859     58.00886     138.0602         9     0.931     0.673  23.27   0
       434    960.6694    372.9564 307.5317546  +6.5484324     722.6307     870.4079      668.576     82.49504     164.5326     329.1634      1.143     2.78      934.714     58.00886     136.5593         7     0.731     0.650  66.48   0
       435    194.1409    372.3523 307.8502271  +6.5229929      774.712     1337.545     1095.476     82.49504      164.598      329.196      1.794     4.20     954.0668     58.00886     141.5806         9     1.189     0.641  36.91   0
       436    911.0155    371.5511 307.5524313  +6.5473546     655.2584     834.2369     625.3242     81.83979      164.598     328.8033      1.314     4.59     936.6424     58.00886     120.0402         7     1.279     0.469  40.50   0
       437    465.3846    368.2136 307.7376832  +6.5338149     2324.885     3576.381     3398.539     82.23357     164.2706     329.0325      1.625     3.64      943.538     58.00886      291.623        19     1.249     0.926  73.50   0
       438    492.9910    367.3986 307.7262417  +6.5350775     3222.009     4812.183     4475.201     81.83979     164.2706     328.8688      1.583     3.45     942.5903     58.00886     391.1643        25     1.285     1.059  70.02   0
       439    921.8550    367.3967 307.5480674  +6.5494320     927.6246     1175.417     763.4485     81.83979     164.4017     328.7705      1.344     3.81     935.8625     58.00886     138.2208        11     1.039     0.788  45.13   0
       440    850.8989    364.1244 307.5776572  +6.5484126      35256.2     51594.05     53235.81     81.97126     164.7288     329.0325      1.537     3.11     938.5226     58.00886     5072.253        56     1.446     1.146  77.33   0
       441    996.3108    363.8565 307.5172522  +6.5533793     751.0448     1146.937     561.8896     82.36441     164.5326     329.2288      1.537     4.35     932.9011     58.00886     101.5948         7     1.057     0.510  24.68   0
       442    343.4862    359.6809 307.7886129  +6.5332455     775.2343     1326.287     1676.065     82.23357     164.8595     329.2288      1.764     4.48     947.2023     58.00886     129.9637         9     1.118     0.616  61.07   0
       443    622.8384    356.5241 307.6726632  +6.5439200     2874.638     4323.501     4509.433     82.36441     164.6634     329.0979      1.640     3.36     940.4899     58.00886      388.391        24     1.334     0.976  64.31   0
       444     31.2239    357.1112 307.9184223  +6.5238000      1043.63     1597.172     950.8121     82.49504     164.4017      328.967      1.620     4.18      961.301     58.00886     158.6237        13     1.116     0.847  53.14   0
       445    707.3937    350.0969 307.6377504  +6.5494050      82754.6     119674.2     125001.8     82.23357     164.2706     328.8688      1.547     3.10     939.7716     58.00886     10989.14        86     1.458     1.277  59.26   0
       446    865.6235    351.4681 307.5719651  +6.5541304     1354.553     1956.381     2162.657     82.10252     164.5326     329.0652      1.547     3.14     937.7512     58.00886     203.3033        14     1.065     0.838  65.03   0
       447     87.1687    349.6508 307.8954345  +6.5287650     1333.994     1923.348     2000.026     82.36441     164.7288     329.0325      1.568     4.05      958.907     58.00886       168.03        14     1.208     0.782  32.59   0
       448    569.7816    346.7298 307.6950361  +6.5461862     2803.484     4223.775     4710.648     82.10252     164.4671     329.0325      1.624     3.47     939.8774     58.00886     351.6569        24     1.291     1.126  56.94   0
       449    107.0780    345.5775 307.8873016  +6.5311172     6195.775     9775.606     10799.59     82.10252     164.4017     329.0652      1.699     3.41     958.1055     58.00886     787.3054        35     1.416     1.200  62.06   0
       450    948.9097    347.0591 307.5375101  +6.5587328     922.7466     1118.027     1043.582     82.36441      164.598     329.2288      1.361     3.43     933.6674     58.00886     163.9103         8     0.886     0.692  -8.14   0
       451    396.7451    346.6364 307.7669275  +6.5404200     590.3788     731.8839     663.2459     82.36441      164.598     329.1306      1.367     3.81     944.9387     58.00886     100.6497         5     0.987     0.423 -83.26   0
       452    768.3851    345.3972 307.6125687  +6.5533862     584.3922     672.8709      1896.54     82.10252      164.205     328.9343      1.248     4.21     938.8376     58.00886     127.4141         6     1.008     0.502  54.56   0
       453    553.0530    343.0157 307.7021113  +6.5471590     7103.681     10726.36     11190.41     81.83979     164.6634     328.8033      1.571     3.22     939.6999     58.00886     946.2225        33     1.288     1.171  64.23   0
       454    281.9804    340.4386 307.8148152  +6.5391234     2569.677     4111.513     4160.332     82.10252     164.4017     328.8033      1.738     3.98     948.3475     58.00886     315.3342        23     1.367     1.050  69.00   0
       455    416.0292    338.1525 307.7592024  +6.5445703      25070.5     39564.21     41524.59     82.10252     164.6634     328.9997      1.677     3.38     943.7847     58.00886     3194.946        52     1.469     1.257  62.61   0
       456    523.5862    336.7999 307.7145631  +6.5487374     1340.161     2092.231      2154.07     82.10252     164.2706     328.9015      1.679     4.95     939.9521     58.00886     163.3236        16     1.242     0.977 -79.38   0
       457    682.4239    336.7676 307.6485732  +6.5540728     541.1265     867.1054     1162.324     81.83979     164.4671     328.9015      1.788     4.60     939.3008     58.00886     73.60596         5     1.174     0.513  30.39   0
       458    594.0511    337.1351 307.6852766  +6.5509611     627.4551     635.8575     388.4775     82.49505     164.5326     329.1306      1.283     3.90     939.3876     58.00886     88.58154         5     0.825     0.528 -54.84   0
       459    396.0986    336.4926 307.7675387  +6.5445866     1073.287     1713.744      2201.62     82.49504     165.1858     329.0325      1.968     3.97     944.4603     58.00886     166.1004        10     1.048     0.713  55.32   0
       460    495.2245    333.7141 307.7264503  +6.5490603     1191.294     1840.668     2018.849     82.49505     164.3361     328.9015      1.629     4.96     940.5229     58.00886     144.7334        16     1.260     1.008 -21.04   0
       461    810.9357    330.1032 307.5954047  +6.5611240     819.5443     1202.058     1663.814     82.36441     164.7288     329.1306      1.780     4.19     937.6249     58.00886      133.554         9     1.054     0.717  83.23   0
       462    505.1174    328.5514 307.7225144  +6.5515238     8680.223     13426.11     14141.15     82.49504      164.598     329.1306      1.679     3.32     940.0361     58.00886     1083.572        36     1.359     1.237  45.82   0
       463    392.7765    330.2446 307.7691298  +6.5470547     770.2686     1361.446     1826.742     81.97126      164.598     328.9343      2.104     4.35     944.3011     58.00886      96.8186         8     0.923     0.647   6.29   0
       464    774.2975    327.3592 307.6107192  +6.5610318     3439.695     4656.233     4842.848     82.49505     164.4671     329.3269      1.472     3.06     937.9454     58.00886     459.9099        20     1.228     0.883  53.79   0
       465    929.6611    326.8643 307.5461858  +6.5664285     1074.387     1297.828     1096.228     82.49505      164.598     329.1306      1.410     3.29     933.4708     58.00886      184.945        10     1.093     0.624  84.76   0
       466    721.7275    326.8484 307.6325778  +6.5594839     724.8903     930.1774     839.6657     82.49505     164.6634     329.1306      1.526     5.19     938.4449     58.00886     119.8744         8     1.212     0.628  58.78   0
       467    331.9299    325.7752 307.7945596  +6.5468563      983.667     1453.693     1212.703     82.10252     164.4671     329.0325      1.541     5.00     946.4079     58.00886     133.4324        10     0.966     0.731  88.00   0
       468    167.2931    319.3610 307.8631739  +6.5439685     1161.418     1639.253     1171.664     82.62547     164.5326     329.1634      1.539     4.04     955.5281     58.00886     149.4778        13     1.046     0.889  17.92   0
       469    394.9551    312.8010 307.7688139  +6.5543301     7254.813     11570.85     11716.79     81.83979      164.205     328.6723      1.641     3.35     943.4293     58.00886      916.639        35     1.364     1.218  59.17   0
       470    250.8822    313.1826 307.8286564  +6.5493314     2157.016     3424.302     3526.272     82.10252     164.2706     329.0325      1.660     3.36     949.0588     58.00886     292.3859        21     1.153     1.080  77.53   0
       471    748.7882    312.5165 307.6218172  +6.5663069     1057.006      1574.92     1619.624     82.10252     164.4017     328.9343      1.528     3.33     937.4752     58.00886     142.0427        11     0.977     0.774  55.30   0
       472    762.8510    308.6584 307.6161042  +6.5683704     57458.49     81306.66     83881.55     82.49505      164.598     329.0979      1.512     2.94     937.1976     58.00886     8186.193        62     1.383     1.176  57.66   0
       473    434.3367    308.1049 307.7526110  +6.5575911     2273.152     3655.539     3282.105     82.36441     164.7288     329.1634      1.699     3.76     941.4871     58.00886     314.8374        20     1.224     1.035  70.51   0
       474    997.7513    305.7021 307.5186060  +6.5774394     1983.352     2631.985     2577.788     82.49505     164.5326     329.2615      1.413     2.88     929.3953     58.00886     302.9851        13     0.972     0.827  58.59   0
       475    938.5138    304.9069 307.5432453  +6.5757903     2438.942     3392.753     3400.823     82.49504     165.0553      329.196      1.442     2.75     932.0677     58.00886     415.5385        18     1.188     0.875 -88.72   0
       476    580.7714    305.3541 307.6918651  +6.5636382     1344.132     1869.084     1678.202     81.97126     164.6634     328.9997      1.497     4.14     937.8818     58.00886     151.5419        12     1.156     0.739  39.03   0
       477    471.6714    304.3168 307.7372277  +6.5604080     1182.441     1849.846     2621.906     82.75569     164.9248     329.1306      2.043     4.05     939.7321     58.00886     139.5007        14     1.088     0.881 -73.88   0
       478    421.2078    303.6180 307.7582170  +6.5590030     2011.577     3108.474     3303.848     82.10252     164.3361     328.9343      1.651     3.69     941.8106     58.00886     279.5042        19     1.215     1.017  24.70   0
       479    842.2043    298.2332 307.5834850  +6.5753283     1330.659     1736.439     1519.042     81.70811     164.4671     328.8688      1.383     3.92     935.6197     58.00886     214.4194        15     1.213     0.917  64.07   0
       480    197.5444    294.9979 307.8514307  +6.5550454     2238.861     3494.968     3763.318     81.83979     164.2706     328.7705      1.703     3.53      952.442     58.00886     287.0059        18     1.175     0.946  68.80   0
       481    761.3136    293.1393 307.6172652  +6.5747267     6477.201     9169.599     9528.208     82.62547     164.7288     329.1634      1.508     3.04     936.4384     58.00886     934.0663        27     1.232     1.036  72.16   0
       482    452.0552    294.8924 307.7456956  +6.5636410     1044.917     1574.097       1921.5     82.36441     164.4671     329.2615      1.675     4.26     940.0883     58.00886     138.9943        10     0.966     0.739 -59.28   0
       483    233.2109    293.1389 307.8366759  +6.5570128     736.3027      1154.98     472.5637     81.83979     164.4671     328.8033      1.567     4.23     949.4865     58.00886     97.51196         6     1.130     0.452 -62.41   0
       484     93.5303    292.1951 307.8947379  +6.5527012     1108.087     1526.337     1499.415     81.97126      164.205     328.9343      1.549     4.08     957.8126     58.00886     145.3254        12     1.082     0.875 -81.66   0
       485    777.6739    291.0943 307.6105366  +6.5761184     2783.821     3958.913     4235.024     82.36441     164.7288     329.0979      1.475     3.20     936.3334     58.00886     412.8219        22     1.237     0.944  51.28   0
       486    480.6019    290.1668 307.7339948  +6.5665500     528.4691     897.5894     644.7133     81.70811     164.4017     328.8688      1.719     3.46     938.6647     58.00886     83.35321         5     0.790     0.439 -70.70   0
       487    367.4549    285.7148 307.7811541  +6.5645900     1611.891     3300.905     3567.107     82.49505      164.598     329.2615      2.188     5.79     943.6014     58.00886     192.5776        25     1.749     1.041   6.94   0
       488     80.7446    286.2754 307.9002502  +6.5547146       1350.6     2024.961     2272.669     82.36441     164.5326     329.0652      1.602     3.55      958.069     58.00886     211.2141        14     1.091     0.861  63.24   0
       489   1015.9503    282.1208 307.5118361  +6.5877833     6879.483     9178.217     9401.681     82.49505     164.6634     329.0979      1.380     2.89     927.4745     58.00886     1108.488        25     1.207     0.930  55.34  16
       490    493.8308    281.9817 307.7287748  +6.5703733     2102.115     3274.456     3586.857     82.10252     164.4017      328.967      1.698     3.39     937.9293     58.00886     300.4993        20     1.149     1.087  57.83   0
       491    256.6291    277.6048 307.8274721  +6.5642140     5564.768     8870.136     9674.452     81.97126     164.4017     328.9015      1.722     3.52     948.1497     58.00886     680.1481        32     1.434     1.136  63.08   0
       492    821.0118    276.0121 307.5930375  +6.5837949     611.8712     816.9362     831.2397     82.36441     164.3361     329.0325      1.410     2.90     935.2717     58.00886     119.1169         5     0.929     0.381  64.29   0
       493    947.4481    273.0243 307.5406042  +6.5892529     564.3383     683.0084     648.0543     82.10252      164.598     328.9997      1.510     5.36     930.3176     58.00886     119.0171         6     1.249     0.649  52.25   0
       494    775.9984    271.0793 307.6119062  +6.5843264     845.3513     1154.538     1094.335     81.83979     164.0082     328.8688      1.465     4.00     935.7257     58.00886     142.3892         7     0.914     0.501  49.28   0
       495    390.8265    268.6690 307.7720197  +6.5724129     1634.424     2746.923     2483.274     82.10252     164.4671     328.9997      1.779     5.28     941.6512     58.00886     206.6777        19     1.352     1.029  51.73   0
       496    233.5852    269.9150 307.8373060  +6.5666140     690.3595     745.2086     696.9675     82.10252     164.3361     328.9997      1.289     4.66     949.1883     58.00886     109.0502         7     0.994     0.621  68.06   0
       497    977.6266    267.1562 307.5282620  +6.5926833     1225.104     1557.281      1848.68     82.10252     164.6634     329.0325      1.428     3.08      928.917     58.00886     194.5588        11     1.022     0.709  68.80   0
       498    197.2786    265.6544 307.8525341  +6.5671518     611.5282     936.4448     465.4217     82.62547      164.598     329.1306      1.450     4.11     952.0753     58.00886     75.64624         6     0.935     0.515  43.28   0
       499    313.1490    264.2564 307.8044415  +6.5716253     1186.427     1839.599     1823.207     82.49505      164.598     329.0652      1.704     4.43     945.2354     58.00886     147.4401        11     0.943     0.906  36.34   0
       500    160.5632    263.9028 307.8678471  +6.5666394     1711.858     2385.339     1882.136     82.49504     164.4671     329.2615      1.570     4.06     955.2108     58.00886     220.7783        17     1.241     0.893  85.99   0
       501    700.1510    263.4099 307.6436784  +6.5849551     7749.398     7928.811     8003.172     81.97126     164.4017     328.7705      0.783     2.29     935.7618     58.00886     4208.742         8     0.809     0.353 -67.16   0
       502    570.1265    259.7302 307.6978260  +6.5821191     2216.417     3476.285     3194.452     82.62547     164.7288     329.1306      1.686     3.98     935.6024     58.00886     264.7375        21     1.264     1.070  37.86   0
       503    913.7971    259.0552 307.5550555  +6.5938969     1832.267     2650.416     2847.291     81.83979     164.4017     328.7705      1.522     4.02     931.0367     58.00886     268.9922        15     1.218     0.855  55.47   0
       504    733.6849    257.3247 307.6299501  +6.5885900     5288.358     7550.333     7742.062     82.62547     164.9248     329.1634      1.530     3.04     935.3674     58.00886      725.113        29     1.323     1.055  74.57   0
       505    674.6410    257.4523 307.6544782  +6.5865609     2318.823     3444.815     3801.378     82.49505     164.6634     329.0979      1.661     3.59     935.6783     58.00886     271.5151        18     1.118     0.998  55.18   0
       506    972.0959    256.7892 307.5309082  +6.5967792     972.5579     1260.514     1813.409     82.23357      164.205     328.8688      1.524     4.01     928.9054     58.00886     151.0494         9     0.948     0.668  64.21   0
       507    389.3665    251.6517 307.7732011  +6.5793900     759.0023      958.254      470.828     82.36441      164.598     328.9997      1.382     3.95     941.0092     58.00886     115.7548         6     0.872     0.513  42.91   0
       508    929.7115    249.3840 307.5487679  +6.5984217     1256.423     1833.631     1815.337     82.23357     164.3361     328.9343      1.505     4.03     929.8933     58.00886     205.2056         9     1.055     0.643  48.63   0
       509    233.2302    242.7062 307.8383740  +6.5778360     2385.875     3557.865     3722.681     82.62547     164.3361     329.0325      1.671     3.71     948.9897     58.00886     280.6446        21     1.287     1.007  83.58   0
       510    876.1247    241.4413 307.5713006  +6.5999111     1734.483     2510.387     2578.831     82.36441      164.598     329.1306      1.470     3.17     931.7778     58.00886     307.2077        14     1.231     0.689  59.81   0
       511    766.3690    240.9343 307.6169216  +6.5964510     1694.784     2348.371     2109.199     82.23357     164.6634     329.0325      1.464     3.25     934.8703     58.00886     259.2823        16     1.065     0.972  33.86   0
       512    467.1677    232.5181 307.7415221  +6.5899017     22661.84     35327.14     36857.74     82.36441     164.4671     328.9997      1.691     3.41     936.1127     58.00886     2672.668        51     1.504     1.225  66.78   0
       513    793.1639    231.6290 307.6061013  +6.6011893     14209.12     20228.69     21449.85     82.10252     164.3361     328.9015      1.530     3.03     934.5746     58.00886     2099.002        47     1.429     1.218  28.95   0
       514    731.9415    227.2168 307.6316881  +6.6009630     741.5205     999.2233     1633.062     81.97126     164.5326     328.8361      1.457     4.51     934.5074     58.00886     105.1766         8     0.879     0.659  48.71   0
       515    473.0501    226.6523 307.7392760  +6.5925209      1337.82     2164.082     2813.334     82.62547     164.4671     329.1306      1.825     3.91     935.4349     58.00886     210.1857        13     1.112     0.837  83.28   0
       516    155.3964    225.7973 307.8712838  +6.5821983      2408.24     3684.193     3624.278     81.83979     164.1395     328.9015      1.667     3.69      954.373     58.00886     287.9529        20     1.292     0.950  75.24   0
       517    130.1049    225.2141 307.8818114  +6.5815877      1084.97     1761.085     2060.641     82.23357     164.3361     328.9343      1.779     5.64     955.1705     58.00886     136.2465        13     1.229     0.729 -89.15   0
       518    929.2827    221.7020 307.5498762  +6.6098372     1561.177     2453.699     2596.962     82.49505     164.9901     329.1634      1.597     4.84     928.7135     58.00886     230.8845        15     1.445     0.686  55.80   0
       519    786.1140    223.8060 307.6092938  +6.6041836     667.5982     1310.062      1532.31     81.97126     164.2706     328.8033      1.774     3.77      934.332     58.00886     100.4988         5     1.183     0.345   9.86   0
       520    591.2726    218.2495 307.6904385  +6.5999547     4828.294     7398.938     7848.015     82.49505     164.6634     329.1306      1.672     3.40      933.632     58.00886     607.9307        26     1.345     1.025  63.82   0
       521    311.7570    219.0237 307.8065489  +6.5902542     976.5638     1488.798     1268.463     82.10252     164.4671     328.9343      1.560     4.91     944.4473     58.00886     145.3995        12     1.249     0.722  75.09   0
       522    553.8356    218.1932 307.7059955  +6.5987231     1948.736     2873.407     2367.941     81.83979     164.3361     328.8688      1.607     3.94     933.4839     58.00886     236.0692        18     1.236     0.935  66.85   0
       523    395.6924    217.0735 307.7717408  +6.5938792     1659.479     2503.024     2471.915     82.36441     164.7288     329.1306      1.661     3.91     939.2137     58.00886     208.9926        18     1.255     0.899  67.31   0
       524    898.2645    214.7968 307.5629968  +6.6116522      12415.2     17056.89      17677.1     81.83979     164.4017     328.8688      1.435     2.87     929.7529     58.00886     1843.092        36     1.274     1.055  62.73   0
       525    952.0523    215.2863 307.5406306  +6.6132465     3038.786      4198.91     4280.727     82.49504     164.4671      329.196      1.427     2.85     928.0774     58.00886     479.1946        21     1.126     0.929  66.88   0
       526    573.5080    214.7298 307.6979384  +6.6008125     851.9716     1304.808     1321.309     82.49505     164.7288     329.1306      1.648     5.28     933.4901     58.00886     103.2263         9     1.074     0.783  85.00   0
       527    696.1450    212.6753 307.6470514  +6.6057689     3013.056     4529.442     5213.376     82.36441      164.598     329.0652      1.658     3.42     934.1135     58.00886      394.589        22     1.315     0.955  70.74   0
       528    325.6369    214.9081 307.8009211  +6.5924200     862.2108     1537.613     2067.782     82.62547     164.5326     329.1306      1.929     5.45     943.4761     58.00886     102.8398        10     1.075     0.779  54.98   0
       529    217.8416    214.9812 307.8457056  +6.5887654     667.3001     959.6508     945.7668     81.97126     164.4017     328.8688      1.454     3.87     949.7111     58.00886     92.87036         7     0.855     0.670  32.78   0
       530    984.8501    212.6773 307.5270901  +6.6154186     11217.97     14725.71     14748.26     82.49505     164.6634     329.0652      1.382     2.76      927.291     58.00886     1860.079        28     1.198     0.949  58.51   0
       531     24.4362    211.4232 307.9261804  +6.5837217     26394.93     40125.52     42194.17     82.10252     164.3361     328.8688      1.671     3.39     959.0548     58.00886     3223.322        54     1.485     1.253  73.03   0
       532    271.0356    212.4114 307.8236915  +6.5916154     1124.576     1447.759     1129.223     81.97126     164.4017     328.8688      1.453     4.05     947.2214     58.00886     164.4213        12     1.054     0.854  73.41   0
       533    504.9293    207.6177 307.7266727  +6.6014495     2068.889     3223.412     3048.166     81.97126     164.4671     329.0325      1.650     3.56     933.9527     58.00886     274.3998        22     1.242     1.055  50.79   0
       534    836.7053    204.2056 307.5889318  +6.6139681     2175.736     2933.034     3436.897     82.23357     164.2706     328.8688      1.381     2.94     931.7493     58.00886      307.105        15     1.075     0.789  58.49   0
       535    516.9725    203.6278 307.7218034  +6.6035008     2687.974     3993.587     4023.712     81.97126     164.4017     328.9015      1.567     3.30     933.6328     58.00886     351.7505        22     1.237     0.992  63.96   0
       536    889.0833    203.2983 307.5671983  +6.6160932     2248.407     2896.705     3287.361     82.49505     164.9901     329.1634      1.330     3.79     929.6843     58.00886     308.0848        14     1.125     0.740  57.44   0
       537    748.4364    200.8148 307.6257231  +6.6124161     42133.37     60721.63     63135.16     82.10252     164.4017     328.8688      1.554     3.07     933.5225     58.00886     5538.519        56     1.404     1.167  59.68   0
       538    351.5014    200.2300 307.7906708  +6.5993493     5731.865     12099.18     14010.31     82.49505     164.3361     329.1306      2.254     5.54     941.4897     58.00886          602        51     2.041     1.319 -85.71   0
       539    982.1405    199.6102 307.5286548  +6.6207236     3078.277     4076.368     4046.651     81.83979     164.4671     328.8033      1.385     2.93     926.6682     58.00886     488.8513        19     1.147     0.843  58.57   0
       540   1020.4642    198.2792 307.5127750  +6.6225520     1977.694     2395.594     2524.214     82.75569     164.6634     295.4787      1.302     2.87     925.4233     58.00886     275.0832        13     0.959     0.793  64.22  16
       541    916.2649    197.8647 307.5560864  +6.6192447     8343.546     11375.38     11297.07     82.49505      164.598     329.0652      1.444     2.88     928.5927     58.00886     1269.172        31     1.289     1.013  51.15   0
       542    459.8961    197.0036 307.7457422  +6.6043210     5059.315     7915.062     7845.823     82.23357     164.2706     328.7705      1.621     3.43     935.0402     58.00886     616.5934        29     1.344     1.131  69.56   0
       543    234.6968    193.7505 307.8394209  +6.5980981      858.399     1459.979     1448.953     82.36441     164.5326     329.2615      1.785     3.79     948.8849     58.00886     118.5549         8     0.918     0.652  73.44   0
       544    117.2463    188.2529 307.8884056  +6.5964150      4988.99     7806.114     7960.734     82.49505      164.598     329.1306      1.692     3.43     954.3033     58.00886     600.3254        31     1.389     1.124  69.67   0
       545    936.6171    187.5497 307.5479761  +6.6241834     919.1804     1154.565     1539.837     81.97126     164.6634     328.8361      1.369     3.86     927.6323     58.00886     146.5873         9     1.164     0.510  50.96   0
       546    287.5555    184.9590 307.8177561  +6.6035054     33596.43     52737.17     54865.06     82.23357      164.598      328.967      1.688     3.43     947.5536     58.00886     4210.465        59     1.501     1.280  64.05   0
       547    262.9243    185.9597 307.8279563  +6.6022641     6458.634     10237.21     10270.51     82.36441      164.598     329.1306      1.663     3.40     948.1806     58.00886     791.0613        36     1.365     1.245  68.13   0
       548    613.8291    187.0114 307.6821192  +6.6136084     673.8498     1276.808     1779.557     81.97126     164.4017     328.9343      1.719     4.42     932.9508     58.00886     117.9789         6     0.848     0.655   0.38   0
       549    716.7349    184.4039 307.6394481  +6.6181312     1021.173     1726.815     1700.037     81.70811     164.3361     328.8688      1.768     4.64     933.2189     58.00886     161.3048        13     1.302     0.753  64.72   0
       550    411.6256    180.4709 307.7663569  +6.6095268     50051.32     77358.11     80948.39     82.10252     164.4671     329.0325      1.702     3.41     936.3933     58.00886     5958.992        69     1.529     1.301  65.79   0
       551    167.6294    181.8225 307.8676901  +6.6007662     3979.931     6469.616     6702.327     81.97126     164.4017     328.9343      1.732     3.61      951.653     58.00886     493.5501        29     1.317     1.184  68.50   0
       552    428.9753    181.2443 307.7591220  +6.6097900     1486.264     2206.738     2070.875     81.97126     164.6634      328.967      1.576     3.87     935.5851     58.00886     179.8879        14     1.014     0.970 -50.84   0
       553    549.3776    179.9320 307.7091382  +6.6143712     493.0582     910.7761     749.3301     82.10252     164.5326     329.0652      1.702     6.20     932.5771     58.00886     86.63214         6     1.375     0.786 -63.62   0
       554    315.6694    178.1626 307.8063046  +6.6072565     18090.45      28599.4     30114.49     82.36441      164.598      329.196      1.707     3.44     945.1074     58.00886     2282.306        49     1.463     1.282  65.85   2
       555    323.3264    178.1260 307.8031244  +6.6075289     2139.028      3863.79     4982.973     82.75569     164.8595      329.196      2.206     4.45     944.4067     58.00886     243.7057        25     1.560     1.042  81.70   2
       556    750.8943    176.7070 307.6255133  +6.6224523     35429.58     50002.11      52106.5     82.49505     165.1206     329.0652      1.502     3.00     932.5621     58.00886     5136.133        53     1.367     1.150  60.24   0
       557    699.0729    178.4859 307.6469863  +6.6199834     1021.351      1385.81     1560.988     82.62547     164.9248     329.0979      1.464     3.38     933.2622     58.00886     141.7234        11     0.958     0.800  48.49   0
       558    799.0712    177.1264 307.6054805  +6.6238906     1327.218     1767.305     1400.685     82.75569     164.7288     329.1306      1.353     3.41     931.8745     58.00886     230.0372        12     1.082     0.759  62.98   0
       559     38.5099    176.9582 307.9215016  +6.5984256     619.9855     888.8376     721.2094     82.49504      164.598     329.1306      1.779     4.87     958.3119     58.00886     118.3448         6     1.465     0.459  54.30   0
       560    575.5663    175.9685 307.6983901  +6.6168856     627.1026     946.4606      1842.71     81.97126     164.3361     328.8361      1.978     3.86     932.5334     58.00886     113.9248         7     0.946     0.594  32.50   0
       561     67.7806    173.9489 307.9094422  +6.6006544     9126.884     14018.18      14462.6     81.97126     164.6634     328.9015      1.617     3.35     956.5735     58.00886      1227.25        32     1.385     1.105  69.06   0
       562    101.6585    171.8546 307.8954375  +6.6026604     1508.073     2396.829     2458.274     82.62547      164.598     329.0979      1.645     3.59     954.5262     58.00886     217.1581        12     1.080     0.760 -86.32   0
       563   1009.5632    171.1553 307.5182153  +6.6333877     1234.933     1611.385      2108.26     82.23357      164.598     328.9997      1.338     2.58     923.8742     58.00886     226.1417         9     0.968     0.577  54.67   0
       564    976.5135    170.2854 307.5319779  +6.6326439     657.3367     781.8648     303.5354     82.23357     164.7942     329.1634      1.136     3.45     925.3087     58.00886     123.2921         5     0.757     0.453  69.63   0
       565    735.3420    164.2955 307.6323935  +6.6270565     713.9985     30.15948    -113.0773     82.36441      164.598     329.2288      1.437     3.62     932.3364     58.00886     105.0675         7     0.980     0.679 -79.11   0
       566    584.6356    161.2092 307.6951194  +6.6232835     970.4019     1293.043     1564.085     81.97126     164.3361     328.8688      1.508     5.61     932.1722     58.00886     124.7032        11     1.046     0.848  34.38   0
       567   1010.2596    157.4221 307.5183871  +6.6390813     2611.749     3632.731     4285.885     82.10252     164.5326      328.967      1.574     2.93     923.0757     58.00886     393.7053        20     1.373     0.831  40.04   0
       568      1.3176    158.8114 307.9375694  +6.6046640     694.7255     894.9035     649.4969     71.14072     130.1055     247.2239      1.195     4.11      960.748     58.00886     124.7794         6     1.063     0.454  83.87  24
       569    593.1083    154.9004 307.6918115  +6.6261723     1083.397     1543.451     2027.621     82.49505     164.9901     329.0652      1.632     4.41     932.0336     58.00886     149.0215        15     1.223     0.873  45.93   0
       570    345.7303    153.4366 307.7946501  +6.6184755     1025.005     1770.839      1437.12     82.36441     164.6634      329.196      1.813     4.82     942.1888     58.00886     164.4713        14     1.286     0.937 -80.96   0
       571    278.7962    154.7838 307.8224160  +6.6156696      567.993     997.4429     1112.996     82.10252      164.205     328.9343      1.848     4.36     948.6489     58.00886     92.45911         5     0.877     0.617  41.47   0
       572    601.5753    153.0287 307.6883564  +6.6272288     2120.608     3129.865     3894.766     81.97126     164.4017     328.9343      1.623     3.57      931.993     58.00886     277.9418        20     1.234     0.998  60.53   0
       573    286.4666    151.2178 307.8193495  +6.6173998     30140.17     47768.52      49810.5     81.97126     164.5326     328.9997      1.708     3.50     948.6182     58.00886     3593.625        58     1.495     1.311  65.97   0
       574     31.7797    149.8499 307.9252168  +6.6093909     4483.612     7047.722      7119.02     81.97126     164.6634      328.967      1.697     3.50     958.5866     58.00886     604.0907        32     1.568     1.165  85.24   0
       575    195.8717    149.1237 307.8570626  +6.6152172     937.4031      1400.08     1195.643     82.75569     164.8595     329.0979      1.598     6.81     949.8538     58.00886     128.6431        14     1.399     0.928 -81.82   0
       576    718.0889    147.8418 307.6401166  +6.6332726     8476.708     12020.74     12333.47     82.49504     164.5326     329.1306      1.486     3.08     931.8378     58.00886     1255.886        27     1.272     0.995  60.56   0
       577    272.2001    146.3243 307.8254428  +6.6189405      757.835     1025.091     1249.006     81.70811     163.9425     328.8688      1.544     4.60     948.7781     58.00886     120.7725         6     0.992     0.605 -73.61   0
       578    128.9167    145.0363 307.8850205  +6.6146509     4924.301     7815.657     8277.614     82.49505     164.5326     329.0325      1.687     3.54     952.2698     58.00886     651.2179        29     1.331     1.159  63.21   0
       579    590.3019    143.0231 307.6933781  +6.6309822      635.415     1181.897     1355.256     82.62547     164.3361     328.9343      1.778     4.18     931.7371     58.00886     114.4099         6     1.113     0.447 -59.96   0
       580    467.9904    142.1540 307.7442306  +6.6272392     1279.373     1879.401     1584.413     81.97126     164.4671     328.7705      1.536     3.47     932.9104     58.00886     193.0712        14     1.106     0.847  52.12   0
       581    399.6095    141.0378 307.7726817  +6.6254045     3905.775     6839.093     7209.249     81.70811     164.4017     328.8033      1.861     4.03     936.5928     58.00886      475.379        33     1.555     1.149  72.42   0
       582    657.0249    141.6754 307.6656983  +6.6337741     766.6871     1181.392     886.8135     82.10252     164.4017     329.0652      1.583     5.48     932.2932     58.00886     139.1274        10     1.270     0.814 -75.74   0
       583    364.0263    139.9215 307.7875047  +6.6246703     3287.926     5092.285     5310.997     82.36441     164.5326     329.0325      1.629     3.52     940.2802     58.00886     419.5258        24     1.288     1.025  62.21   0
       584    118.4341    139.7331 307.8895556  +6.6164875     1714.137     2369.773     2457.073     82.36441     164.6634     329.1634      1.501     3.55     952.6916     58.00886     235.1898        14     1.134     0.805  65.82   0
       585    576.3047    139.9215 307.6992989  +6.6317937      627.702      875.306     351.2558     82.23357     164.8595     329.1306      1.372     4.35     931.6536     58.00886     99.80206         7     0.779     0.691 -63.36   0
       586    946.9917    139.1990 307.5452896  +6.6444937      586.158     863.3031     777.3499     81.83979     164.2706     328.8688      1.643     3.16       925.37     58.00886     156.0956         5     0.995     0.397  61.56   0
       587    754.0971    137.6501 307.6254972  +6.6386857     656.6373     928.8279     659.6745     82.36441     164.5326     329.2615      1.346     4.29     930.6239     58.00886     104.1467         7     0.887     0.590  28.73   0
       588    680.0599    137.8727 307.6562547  +6.6361156      886.778      1256.25     1445.998     82.62547      164.598     329.1306      1.524     4.55     932.1543     58.00886     118.1155        11     1.016     0.802  36.02   0
       589   1010.6920    133.9400 307.5189959  +6.6487915     1678.442     2204.736     2206.544     82.36441     164.5326      329.196      1.344     2.78     922.3783     58.00886     342.7963        12     1.025     0.759  37.98   0
       590    215.9524    128.7866 307.8494073  +6.6242896     5514.437     8684.393     9332.153     81.83979     164.4671     328.8361      1.666     3.38     949.3314     58.00886     730.7208        32     1.392     1.158  79.70   0
       591     98.6785    128.7821 307.8981350  +6.6203434     2104.155     3442.627     3606.344     82.10252     164.2706     329.0325      1.746     3.83      953.263     58.00886     302.4409        23     1.335     1.082 -89.53   0
       592    825.5618    127.4352 307.5961445  +6.6452936     1208.834     1548.938     1407.578     82.23357     164.4671     328.9015      1.460     4.15      928.631     58.00886     175.5258        11     1.175     0.710  77.39   0
       593    677.6753    127.6617 307.6575895  +6.6402518     6715.615     9515.208     9763.563     82.75569      164.598     329.0979      1.549     3.09     931.7579     58.00886     937.0863        28     1.317     1.009  60.73   0
       594    629.7767    124.8457 307.6775879  +6.6398102     9703.838     14608.37      15674.4     82.10252      164.598      328.967      1.599     3.21     931.4517     58.00886     1340.319        37     1.397     1.123  65.18   2
       595    633.3579    116.4106 307.6763841  +6.6434129     55798.23     82008.62     85505.59     81.83979     164.4017     328.8361      1.599     3.22      931.188     58.00886     7016.572        65     1.453     1.223  61.03   2
       596     28.6622    124.3093 307.9273780  +6.6198307     1109.253     1708.115     1552.325     82.49505     164.7288     329.1634      1.692     6.09     958.4877     58.00886     141.8857        13     1.221     0.887  68.17   0
       597    567.9651    123.7693 307.7033089  +6.6381831     680.8741     873.7862      815.435     82.10252     164.3361     328.8688      1.370     4.68     931.2621     58.00886     85.19812         8     1.019     0.611 -69.06   0
       598    264.1644    124.2452 307.8295285  +6.6277863     630.6989     945.4064     770.4489     82.23357     164.5326     328.9997      1.608     3.46     948.9706     58.00886     113.7194         6     0.760     0.568  56.41   0
       599    357.0112    120.5909 307.7910728  +6.6324159      3771.99      6517.52         6827     82.23357     164.4017     329.0325      1.834     3.63     941.0001     58.00886     495.0774        32     1.443     1.223 -65.75   0
       600   1003.0314    119.6434 307.5226593  +6.6544388     988.0697     1371.405     1296.005     82.10252      164.598      328.967      1.386     3.89     922.2988     58.00886     163.2283         9     1.127     0.570 -85.62   0
       601    538.9090    120.1037 307.7155063  +6.6387224      1597.26     2288.514     1801.209     82.49505     165.1206     329.0652      1.547     3.55     931.1973     58.00886     239.0356        17     1.132     1.003  49.86   0
       602    312.4118    110.1663 307.8099571  +6.6352212     3446.083     5485.482     6216.291     81.97126     164.3361     328.9343      1.771     3.63     946.2597     58.00886     459.1249        27     1.435     1.122  67.54   0
       603    508.3530    107.1690 307.7286397  +6.6430381     565.4589     1022.613     1374.695     82.10252      164.598     328.9997      2.119     4.25     930.9931     58.00886     97.26611         5     1.111     0.464  83.45   0
       604      9.9900     93.2028 307.9361911  +6.6320441     735727.8      1617778      1748986     81.97126     164.2706      328.967      2.180     4.41     959.4564     58.00886      61211.7       446     2.156     1.866  75.78  28
       605    712.3641    104.4692 307.6439562  +6.6509891     1046.467     1354.567     1488.387     82.36441     164.6634      329.196      1.565     4.80      929.691     58.00886     133.1437         9     1.163     0.562  76.67   0
       606    683.7036    103.7229 307.6558910  +6.6503377     1340.287     1813.032     1841.619     82.23357     164.7942     329.1634      1.417     3.13     930.5218     58.00886     220.6957        11     0.981     0.768  66.13   0
       607    697.7875    100.4133 307.6501500  +6.6521758      3462.41     4672.692     4203.271     82.36441     164.2706     329.0325      1.463     3.19     929.9125     58.00886     478.6221        22     1.225     0.941  61.59   0
       608    439.5149     91.3539 307.7577781  +6.6472579     4317.387     6380.337     6364.343     82.49505     164.5326     329.0979      1.657     3.39     933.4379     58.00886     501.4336        26     1.278     1.089  65.91   0
       609    894.0294     87.7587 307.5690271  +6.6639640     2299.692     3100.727     2999.538     82.10252     164.4671      328.967      1.426     3.43     924.9525     58.00886     317.3594        15     1.122     0.829  54.51   0
       610    912.0908     86.9063 307.5615501  +6.6649194      4639.04     6157.101     6311.384     82.49505     165.1206     329.0979      1.365     2.81     924.3212     58.00886     703.1404        22     1.105     0.964  55.22   0
       611    591.8046     87.0300 307.6946417  +6.6541514     738.9609     1069.205     607.7061     81.97126     164.4017     328.9015      1.441     4.28     930.3519     58.00886     114.7493         8     0.979     0.621 -25.82   0
       612    604.1693     85.3075 307.6895617  +6.6552769     1712.383     2358.179     1952.569     82.62547     164.4017     329.0979      1.490     3.06      930.247     58.00886     298.8045        15     1.077     0.870  56.63   0
       613    250.1186     84.8240 307.8366984  +6.6435899     922.7599     1331.226     2161.015     82.23357     164.3361     328.9997      1.808     4.92     949.2292     58.00886     127.3281        10     1.122     0.886  65.84   0
       614    402.8288     83.1759 307.7732986  +6.6494027     2024.067     2879.266      2774.19     81.97126     164.4671     328.9343      1.565     3.92     936.5239     58.00886     241.7991        20     1.337     0.914  46.53   0
       615    150.9486     80.4087 307.8780550  +6.6420757     3262.215     5113.141     5009.501     81.97126     164.4671     328.8033      1.679     3.51     950.1252     58.00886     440.4478        26     1.404     1.104  83.29   0
       616    299.0946     78.1827 307.8165722  +6.6479788     1240.834     2315.833     2583.665     82.36441     164.4017     328.9343      2.057     4.59     948.0298     58.00886     174.1912        17     1.313     1.018  87.91   0
       617     32.7727     77.9320 307.9272425  +6.6391170     12910.95      19723.5     20792.21     82.10252     164.4671     328.9997      1.620     3.26     956.3719     58.00886     1738.919        44     1.423     1.220  67.77   0
       618    572.3130     77.2393 307.7030715  +6.6575405     777.0651     1173.462     1193.847     82.49505     164.5326     329.0979      1.559     4.76       930.24     58.00886      104.924         8     0.935     0.688 -82.20   0
       619    559.3755     77.6696 307.7084331  +6.6569290     751.2914     908.0707     819.3303     82.10252     164.4671     329.0325      1.259     3.18     930.3496     58.00886     136.3094         6     0.859     0.484  42.64   0
       620    767.7784     77.0051 307.6218534  +6.6641831     791.2624     1126.821      1933.19     82.10252     164.3361     328.9015      1.804     3.05     927.2448     58.00886     128.0407         6     0.901     0.756 -23.38   0
       621    953.3309     76.2459 307.5447705  +6.6706983     639.0464     1010.049     861.2499     82.49505     164.5326     329.0979      1.190     3.83     922.2048     58.00886     122.7847         6     1.190     0.353  30.57   0
       622    901.6511     73.8643 307.5663269  +6.6699556     628.0612     957.6304     1126.397     82.49504     164.5326     329.1306      1.733     3.68     924.1743     58.00886     121.6692         5     0.995     0.515  53.01   0
       623    834.4259     72.5471 307.5943075  +6.6682527     6919.705     9550.651     9203.019     82.10252     164.7288     328.9997      1.477     3.00     925.9011     58.00886     949.0551        27     1.278     0.960  55.21   0
       624    779.4692     72.9108 307.6171331  +6.6662647     3699.214     5220.484      5191.47     82.62547     164.8595     329.0979      1.504     3.14     926.9115     58.00886     509.8511        22     1.236     0.966  55.64   0
       625    424.4768     73.2199 307.7646394  +6.6542402     961.4158     1253.018     916.2605     82.10252     164.3361     329.0652      1.426     4.38      934.847     58.00886     141.8922         9     0.894     0.786  58.75   0
       626      8.6413     74.1880 307.9373963  +6.6398492     588.1772     1817.829     4744.888     81.83979     164.4017     328.7705      3.937     4.43     957.7569     58.00886     86.43127         5     1.012     0.552  41.52   1
       627    542.4070     70.9418 307.7157113  +6.6591379     1165.722     2000.937      2301.55     81.83979     164.4671     328.8033      1.860     5.26     930.3958     58.00886     144.2706        13     1.199     0.896 -70.25   0
       628     72.8861     69.8657 307.9108484  +6.6437992      3267.01     5009.272     5057.245     82.49504     164.7942     329.1633      1.632     3.56     953.0632     58.00886     450.6401        23     1.259     1.074  30.13   0
       629     57.8142     70.3881 307.9170933  +6.6430756     927.5391     1251.791     872.7068     82.36441     164.2706     329.0325      1.421     3.82     954.0753     58.00886     134.1031         9     0.914     0.689  72.86   0
       630    661.2370     70.1688 307.6663575  +6.6634394     533.7894      578.208      271.652     82.10252     164.3361     328.8688      1.269     4.03     929.5016     58.00886     90.14038         5     0.757     0.681 -33.93   0
       631    434.2478     69.3457 307.7607100  +6.6561678     1068.282      1694.22     2248.535     82.49505      164.598     329.1634      1.791     3.17     934.1552     58.00886     175.9799         9     0.983     0.615  51.98   0
       632    596.7337     66.6255 307.6932815  +6.6627413      1271.55     1961.262     1693.635     82.10252     164.5326     328.9997      1.659     4.23     929.7779     58.00886     198.2159        13     1.106     0.819  75.73   0
       633     15.5400     65.4427 307.9348264  +6.6436924     2920.871     4661.648     5697.891     82.49505      164.598      329.196      1.852     3.88     956.4653     58.00886     362.1624        26     1.307     1.219 -73.88   0
       634    723.5106     62.7525 307.6407292  +6.6685865     532.6085     954.3655     1268.185     82.49505     164.4671     329.2615      1.622     3.46     927.4014     58.00886     103.1896         5     0.751     0.459  70.60   0
       635     88.3232     60.7775 307.9047420  +6.6480716      847.783     1375.753     1200.535     82.10252     164.4671     328.9997      1.659     4.78     951.7289     58.00886     119.5228        10     1.105     0.808  74.02   0
       636    774.2075     60.3421 307.6197426  +6.6712782     2176.743     2990.187     2787.805     81.83979     164.4671     328.8688      1.525     3.27     926.3171     58.00886     317.1832        18     1.173     0.922  57.68   0
       637    414.9625     60.5892 307.7690196  +6.6591357     1124.801     1533.808     1269.847     81.97126     164.4017     328.7705      1.443     5.32     935.8119     58.00886      131.153        11     1.029     0.777  69.51   0
       638    112.1190     59.2082 307.8949076  +6.6495211     1008.654     1656.777     1714.486     82.10252      164.205     328.9343      1.664     6.54     950.8192     58.00886     143.0513        13     1.495     0.856  58.02   0
       639    100.7603     54.0249 307.8998030  +6.6512785     9632.476     14909.76     15391.16     82.10252     164.4017     328.8688      1.634     3.30     950.9052     58.00886     1298.883        38     1.480     1.124  66.52   0
       640    429.8689     53.8378 307.7630534  +6.6624237     2502.572     3782.283     3383.604     82.36441      164.598      329.196      1.572     3.15     934.7023     58.00886     373.6713        21     1.171     1.034  76.56   0
       641    643.5194     46.1075 307.6745311  +6.6727805     19523.59     28430.38     29921.83     82.23357     164.8595     329.1634      1.566     3.16     928.6947     58.00886     2551.159        46     1.383     1.160  59.89   0
       642    267.5469     48.0962 307.8306989  +6.6593400     1525.779      2371.39     3199.275     82.36441      164.598     329.3596      1.942     3.45      949.501     58.00886     192.7191        18     1.122     1.019 -73.05   0
       643    952.7530     45.5478 307.5460422  +6.6833540     690.8987      1030.31      1288.05     82.62547     164.5326     329.1306      1.393     2.75     920.7048     58.00886      123.071         5     0.710     0.460  20.52   0
       644    543.3605     42.2168 307.7162842  +6.6710299     5394.179     8167.371     8133.301     82.10252     164.4671     328.8688      1.625     3.29     930.1455     58.00886     682.3525        31     1.377     1.072  56.61   0
       645    261.3981     42.3944 307.8334469  +6.6614874     1871.535     2906.925     3872.564     81.83979     164.2706     328.9015      2.013     4.03     949.5482     58.00886      226.353        18     1.210     1.020  83.51   0
       646    269.4919     38.2118 307.8302251  +6.6634865     9494.081     14506.76     15332.67     82.23357     164.2706     328.8688      1.675     3.37     949.5781     58.00886     1165.181        40     1.426     1.208  59.54   0
       647     10.6309     40.4012 307.9377154  +6.6538656     1237.396     1721.749     2033.825     81.83979     164.4017     328.9015      1.515     4.87     954.4739     58.00886     161.1044        13     1.104     0.899 -20.00   0
       648    629.8256     36.6756 307.6805396  +6.6762160     3195.693     5574.976     6437.878     82.10252     164.4017     329.0652      1.996     6.08     928.4893     58.00886     467.7493        27     1.958     0.878  68.46   0
       649    448.8580     37.7741 307.7557050  +6.6696936     23049.43     35325.48     36609.36     82.10252      164.598     328.9343      1.626     3.22     933.2481     58.00886      3051.81        52     1.465     1.235  57.67   0
       650    926.7341     37.9235 307.5571113  +6.6856331     2074.995     2553.654     2331.588     82.62547      164.598     329.0652      1.311     2.94     922.3923     58.00886     351.7518        15     1.104     0.741  62.95   0
       651    329.3800     38.4808 307.8053300  +6.6653888     1060.795     1564.057     1465.856     82.23357     164.2706     329.0325      1.632     3.45     944.4749     58.00886     151.9067         9     0.901     0.764 -14.56   0
       652     34.8003     37.6314 307.9277665  +6.6558240     2359.609     3491.663     3412.958     81.83979     164.4017     328.9015      1.588     3.51     953.2345     58.00886     339.5939        21     1.445     0.953  74.55   0
       653    561.9982     37.5125 307.7086978  +6.6735972     716.1921     1038.355     563.8016     81.70811      164.205     328.8033      1.585     6.13     929.7334     58.00886     106.0428         7     1.248     0.845  33.69   0
       654    257.5851     34.8270 307.8352874  +6.6644835     2999.885     4703.081     5486.995     82.10252     164.4017     328.9997      1.740     3.49     949.6017     58.00886     382.3207        24     1.285     1.071  49.05   0
       655    310.3942     33.0027 307.8134047  +6.6670124     940.6762     1663.045     2013.947     81.83979     164.2706      328.967      2.116     5.27     946.9252     58.00886     137.4574         9     1.309     0.732  43.24   0
       656    947.4728     28.0439 307.5488247  +6.6904049     1177.314     1639.344     1357.807     82.36441     164.6634     329.1306      1.484     3.73     920.3707     58.00886     160.6672        11     1.054     0.704  43.11   0
       657    698.7311     27.3347 307.6522196  +6.6823806     1854.041     2637.433     2661.451     82.49505     164.6634     329.1306      1.552     3.62     926.7051     58.00886      253.009        15     1.168     0.826  60.81   0
       658    103.4903     27.3273 307.8995732  +6.6623930     715.2211     977.4152      951.731     82.49505     164.8595     329.0979      1.479     4.03     950.1554     58.00886     102.1422         6     1.066     0.460  78.22   0
       659    264.9611     22.5114 307.8326390  +6.6698164     768.8365     1214.462     1089.272     82.49504     164.5326     329.1306      1.854     5.40     949.6936     58.00886     102.5383         9     1.339     0.615  63.99   0
       660    209.8304     23.1058 307.8555281  +6.6677163     718.5801     750.8491     472.3348     82.62547     164.3361     329.0652      1.471     4.39     949.7203     58.00886     108.8071         5     0.866     0.633 -49.94   0
       661    629.4573   1019.6448 307.6475829  +6.2703417     593.2657     670.6339      363.447     82.49505      164.598     305.3361      1.386     4.14     965.3798     58.00886     87.78577         5     0.977     0.500  47.84  16
       662      1.3789     20.6028 307.9422314  +6.6617277       789.95     1081.589     1094.678     71.74362     131.0127     248.0935      1.314     3.68     953.0323     58.00886     155.4564         8     1.047     0.482 -86.42  24
       663    964.7902   1016.4332 307.5084457  +6.2828759     7367.086     10343.36     10539.23     81.97126     164.4017     328.9343      1.497     2.88     956.6954     58.00886     1077.618        30     1.274     1.066  63.36  16
       664    932.5884     17.9796 307.5553486  +6.6940633     4593.009     5958.631     6478.725     82.10252     164.2706     328.9997      1.376     2.66     921.3683     58.00886     722.3014        20     1.136     0.888  55.11   0
       665    249.2165   1016.4614 307.8055761  +6.2589025     1468.879     2010.444     1943.712     81.97126     164.5326     328.9015      1.415     3.10     968.9739     58.00886     264.4407        13     1.066     0.759  72.13   0
       666    733.2457     16.5107 307.6382409  +6.6880050     2012.258     2742.183     2593.919     82.49505     164.4671     329.2288      1.454     3.30     924.9476     58.00886     268.4034        13     1.021     0.835  54.49   0
       667    724.5134   1014.4443 307.6082869  +6.2756699     3460.782     4615.599     5168.311     82.49505     164.4671     329.0979      1.454     2.69     963.8399     58.00886     473.4971        21     1.291     0.897  54.07   0
       668    719.2954   1016.8243 307.6103736  +6.2745126      1187.07     1483.212     1981.861     82.62547     164.3361     328.1805      1.394     3.07     963.8684     58.00886     172.0212        10     0.908     0.726  60.18  16
       669    447.5880   1015.4121 307.7232435  +6.2659952     1095.398     1422.985     1221.396     82.36441     164.2706     329.0325      1.394     2.75     968.4415     58.00886     171.3652        10     0.863     0.772 -60.32   0
       670    740.1503   1013.7918 307.6018157  +6.2764623     1265.829     1657.977     1798.562     81.97126     164.4017     328.7705      1.378     3.66     963.8273     58.00886     176.0051        12     1.146     0.711  65.51   0
       671    371.2095   1011.9470 307.7550746  +6.2648633      2081.02     2816.677     2824.444     81.83979     164.4671     328.8033      1.440     3.10     969.1409     58.00886      317.317        15     1.115     0.812  65.64   0
       672    218.8329   1010.4836 307.8183937  +6.2603495     537.3414     559.3641     255.9897     82.49505     164.4017     329.0325      1.448     3.60     968.8608     58.00886     83.49884         5     1.033     0.362 -84.69   0
       673    981.4256   1009.5620 307.5017683  +6.2862682      689.463     969.1274     770.8969     82.10252     164.4017     328.9343      1.611     3.91     955.9125     58.00886     91.72522         5     1.021     0.430 -15.52   0
       674    709.8076   1008.7604 307.6145845  +6.2775248     576.1931     748.2913     1109.224     81.83979     164.3361     328.8033      1.098     3.72     963.5271     58.00886     94.08521         5     0.934     0.425  46.11   0
       675    622.2795   1006.0189 307.6510221  +6.2757275     540.1248     770.8981     661.4157     82.10252     164.2706     329.0325      1.353     3.80     965.3734     58.00886     88.77075         5     0.827     0.501  36.94   0
       676    596.6141   1004.6174 307.6617266  +6.2754467     605.1031     774.7198     943.4803     82.23357     164.2706     329.0325      1.205     3.46     966.2181     58.00886     123.2627         5     0.758     0.457  73.98   0
       677    553.5554   1002.1079 307.6796907  +6.2750405     4882.746     6925.338     7187.478     82.49504     164.5326     329.2288      1.498     2.88      967.291     58.00886     732.8577        26     1.264     0.985  67.97   0
       678    523.7576   1003.4612 307.6920182  +6.2734833     1272.748     1384.905     1018.994     82.49505      164.598     329.2288      1.329     3.30     967.6638     58.00886      203.783        12     1.044     0.761  55.86   0
       679    758.0450   1001.4660 307.5947994  +6.2821500     9199.128     12405.94     13111.25     82.49504     164.5326     329.1306      1.435     2.88      962.418     58.00886     1318.565        31     1.295     0.978  59.72   0
