#   1 NUMBER                 Running object number                                     
#   2 X_IMAGE                Object position along x                                    [pixel]
#   3 Y_IMAGE                Object position along y                                    [pixel]
#   4 ALPHA_J2000            Right ascension of barycenter (J2000)                      [deg]
#   5 DELTA_J2000            Declination of barycenter (J2000)                          [deg]
#   6 FLUX_APER              Flux vector within fixed circular aperture(s)              [count]
#   9 FLUXERR_APER           RMS error vector for aperture flux(es)                     [count]
#  12 FLUX_RADIUS            Fraction-of-light radii                                    [pixel]
#  13 FWHM_IMAGE             FWHM assuming a gaussian core                              [pixel]
#  14 BACKGROUND             Background at centroid position                            [count]
#  15 THRESHOLD              Detection threshold above background                       [count]
#  16 FLUX_MAX               Peak flux above background                                 [count]
#  17 ISOAREA_IMAGE          Isophotal area above Analysis threshold                    [pixel**2]
#  18 A_IMAGE                Profile RMS along major axis                               [pixel]
#  19 B_IMAGE                Profile RMS along minor axis                               [pixel]
#  20 THETA_IMAGE            Position angle (CCW/x)                                     [deg]
#  21 FLAGS                  Extraction flags                                          
         1      1.7546     60.4672 307.9348061  +6.6324505     163600.5     207826.6     229845.1     73.01402     130.1654     241.7194      1.293     2.45     850.8143     55.03638     53026.51       186     2.375     1.465  89.43  28
         2     89.2025     21.8474 307.8997755  +6.6513124     9413.708      14362.8     14963.82     77.64618     155.8531     311.8305      1.581     4.05     845.3689     55.03638     1350.422        35     1.585     0.910 -31.75   0
         3    632.0343     13.5578 307.6745331  +6.6727833      19250.4     28338.15     29432.76     78.01978     156.1637      312.048      1.545     4.02     833.3231     55.03638     3143.192        39     1.513     0.911 -33.48   0
         4    661.8856     14.8002 307.6620893  +6.6732598     495.4323     668.9523     754.5074     77.52124     155.6664     311.8927      1.504     5.98     833.0541     55.03638     66.64734         6     1.279     0.787 -46.65   0
         5    531.7076      9.6805 307.7163451  +6.6710561     5438.039     7955.175     7914.589     78.01978     156.4118     312.2964      1.531     3.95     834.5554     55.03638     835.8297        24     1.470     0.776 -31.19  16
         6    249.9560     10.1695 307.8333841  +6.6614893     2010.911     2801.163     3367.152     77.89544     156.1637     312.1102      1.518     4.02     843.6782     55.03638     324.2421        15     1.361     0.670 -33.58   1
         7    257.8791      5.8552 307.8302371  +6.6635343     9452.666     14087.77     14943.13     78.39159     156.1637     294.8964      1.542     3.95      843.666     55.03638      1511.12        35     1.557     0.901 -34.37  16
         8    688.6214      7.8598 307.6512130  +6.6770114     577.4733     778.0027     1219.197     77.89544     156.1017     310.0537      1.420     4.22     832.6716     55.03638     89.29163         6     0.764     0.665 -18.79   0
         9    619.4399      7.7308 307.6799603  +6.6747716     899.5052      1798.14     2398.472     78.14391     156.1637     309.4905      2.012     5.46      833.369     55.03638     159.0214        12     1.457     0.577 -37.33  18
        10    618.2861      3.3354 307.6805865  +6.6765481     3200.339     4734.867     5272.007      78.3916     149.1151     265.0537      1.528     3.91     833.3145     55.03638     551.6893        18     1.393     0.803 -29.86  26
        11    503.0593      7.2356 307.7283292  +6.6711146     499.4745     667.6874     912.8158     78.26785     156.1637     306.4375      1.604     5.09     834.8107     55.03638     126.9255         6     1.547     0.474 -39.81  16
        12    437.3297      5.3491 307.7557005  +6.6697105     24035.75     35176.95     36205.35     78.14391     156.1017     289.6232      1.547     4.02     837.8269     55.03638     4046.598        42     1.555     0.906 -32.80  24
        13    317.9232      6.2189 307.8052795  +6.6653820     1097.273     1580.163     2272.148     77.77091     155.8531     298.3926      1.649     5.12     842.8553     55.03638     188.9812        12     1.408     0.679 -40.14  16
        14    915.2167      5.0735 307.5571601  +6.6856611     1972.297     3133.736      3914.27     77.77091     155.9774     286.5277      1.718     3.71      831.359     55.03638     320.7845        18     1.384     0.790 -25.43  16
        15    522.6270      5.2950 307.7202644  +6.6725654      681.692     907.1714     1514.414      78.3916     155.9153     288.9531      1.582     4.95     834.6281     55.03638     118.7897         9     1.277     0.543 -38.69  16
        16     23.3162      5.4838 307.9276963  +6.6558708     2231.915     3023.283     2204.523     78.01978     156.4118     291.1919      1.448     4.03     848.9167     55.03638     330.1144        14     1.249     0.673 -31.65  16
        17    550.6540      4.9650 307.7086311  +6.6736318     902.7217     1014.648     548.5609     78.14391     156.1637     285.4431      1.424     4.91     834.3356     55.03638     131.0607         9     1.113     0.614 -37.07  16
        18    245.8900      2.4338 307.8353326  +6.6645478     3094.213     4468.492     4531.875     78.39159     139.2323     252.3909      1.512     3.92      843.561     55.03638     495.2164        21     1.467     0.789 -26.48  24
        19    298.2626      1.1390 307.8136178  +6.6668253     687.1187     879.4973     835.4528     65.45397       121.06     231.6868      1.139     3.29     843.4907     55.03638     190.8506         5     1.082     0.301  -9.48  24
        20    238.6303    984.0945 307.8054626  +6.2589957      1168.35     1903.684     2525.608     78.39159     155.9153     312.2033      2.142     4.68     863.1367     55.03638     156.0386        16     1.307     0.936 -30.56   0
        21    702.1185   1023.7513 307.6117301  +6.2580011     1724.865     2128.805     2397.572     66.91845     122.8877     233.6448      1.257     3.58     865.6709     55.03638     396.2839        10     1.259     0.425  -3.68  24
        22    611.2684   1023.2656 307.6494613  +6.2551926     1279.993     1820.403     1692.931     72.74802     130.0909     241.3984      1.511     5.83     869.0291     55.03638     175.6645        14     1.423     0.673 -10.82  24
        23    231.5554   1022.7100 307.8071069  +6.2428166     1327.047      1852.25     1825.317     77.39611     137.4103     250.1535      1.588     4.11     863.9792     55.03638      181.903        14     1.115     0.867 -29.62  24
        24      3.0137   1023.4355 307.9019506  +6.2349076     6510.313     8291.561     8497.111     70.30885     118.0604     198.4731      1.273     3.83     859.9393     55.03638     1235.295        17     1.267     0.698  -4.57  24
        25    437.1568    983.0929 307.7230818  +6.2660054     927.7027     1571.763     1651.914     78.26785     156.1637     312.3585      1.771     6.46     867.3095     55.03638     118.1978        14     1.320     0.887 -29.81   0
        26    730.1390    981.0435 307.6015203  +6.2765626     954.7525     1435.272      1260.49     78.26785     156.1637     312.3585      1.589     6.25     865.2769     55.03638      118.562        12     1.136     0.965 -39.92   0
        27    360.6284    979.6140 307.7549677  +6.2649006     1838.793     2857.175     2113.841     77.89545     155.9774     312.1412      1.644     3.94     865.5391     55.03638     264.4343        18     1.316     0.846 -36.96   0
        28    747.2864    969.0987 307.5947993  +6.2820621     6952.353     11996.18     12539.47     78.26785     156.5976     312.2964      1.851     4.36     864.9544     55.03638     808.0713        40     1.632     1.194 -29.47   0
        29    542.8907    969.7057 307.6796343  +6.2750407     4014.406     6854.803       7245.1     78.26785     156.6595     312.2343      1.775     4.34     867.2111     55.03638     518.0161        31     1.589     1.058 -35.90   0
        30    513.4517    970.7070 307.6918224  +6.2736510     1029.576     1545.625      1634.99     78.14391     156.0396     312.4516      1.875     5.92     867.0985     55.03638     115.5438        13     1.313     0.752 -24.76   0
        31    293.0800    968.5771 307.7833783  +6.2672130     13927.54     23060.78     25517.26     77.89544     155.8531     312.2033      1.819     4.28     864.4841     55.03638     1807.431        53     1.957     1.064 -32.38   0
        32    808.8651    968.0892 307.5692681  +6.2845161     976.5541     1501.018     1137.137     78.26785     156.2878     312.2654      1.591     4.02     863.7637     55.03638     131.6037        13     1.067     0.891 -48.83   0
        33    417.3815    968.8549 307.7317671  +6.2712276     850.3456     1440.982     1711.827     77.77091     156.1637      312.017      1.646     5.00      866.665     55.03638       129.52        10     1.268     0.557 -27.62   0
        34    264.5887    966.1746 307.7952863  +6.2672577     883.3458     1429.794     1632.438     77.89544     155.9774     312.1412      2.018     4.08     863.5503     55.03638     154.3921        11     1.093     0.985  10.21   0
        35    908.5790    962.3914 307.5280601  +6.2901648     7170.663     13408.69      14273.1     77.89545     155.9774      312.017      1.972     4.67     861.4631     55.03638      794.118        44     1.784     1.260 -22.43   0
        36    539.9786    961.9653 307.6811016  +6.2781401     7759.729     12688.86     13722.71     77.77091     155.9774     311.9859      1.723     4.37     866.9355     55.03638     940.6205        34     1.646     0.995 -33.57   0
        37   1004.0113    958.0338 307.4885845  +6.2951157      3598.58     7487.257     8219.553     77.77091     155.9774     312.0791      2.128     4.99     859.0264     55.03638     448.3085        41     1.724     1.383 -27.15   0
        38    882.2717    958.6030 307.5391080  +6.2908598     10340.65     19111.99     20875.42     77.77091     155.7909     312.0791      1.994     4.47     862.0154     55.03638     1137.575        55     1.862     1.309 -22.61   0
        39    594.8661    959.3666 307.6584017  +6.2810327     1101.721     1947.481     1950.268     78.14391     156.2258     312.2033      1.842     6.21     866.6805     55.03638      137.179        14     1.480     0.907 -41.22   0
        40    526.6508    957.7654 307.6867749  +6.2794322     3925.909     6640.695     7891.634     78.14391     156.1637     312.1412      1.944     4.15     866.7267     55.03638     498.5736        36     1.723     1.183 -12.85   0
        41    635.9442    956.8743 307.6414311  +6.2834229     1364.382     2342.099     2402.038     78.14391     156.0396     312.1723      1.721     5.88     866.1223     55.03638     166.4103        18     1.547     0.869 -39.50   0
        42     61.5958    956.5721 307.8798755  +6.2644662     931.0168     1558.358     1755.273     77.77091     155.9774     312.0791      1.821     5.11     859.9431     55.03638     127.6984        10     1.199     0.624 -11.40   0
        43    479.5880    954.3115 307.7064282  +6.2792971     2115.302     3340.894     3350.179     78.01978     155.8531     312.1102      1.720     4.89     866.2927     55.03638     267.7791        21     1.531     0.852 -25.50   0
        44    914.0130    946.0984 307.5263458  +6.2970718     36079.03     67277.55     72666.68     78.01978     155.9153      312.017      1.983     4.44     861.1587     55.03638     4120.112        74     1.822     1.382 -30.40   0
        45    221.5015    944.6815 307.8138927  +6.2746990     1640.175      2446.62     2714.598     78.26785     156.5976     312.3275      1.656     5.69      861.559     55.03638     197.4283        14     1.346     0.731 -26.87   0
        46    620.0818    942.7111 307.6484888  +6.2887453     767.5722     943.3824     895.4487     78.01978     156.3498     312.2964      1.414     5.46     865.9142     55.03638     111.3075         8     1.236     0.681 -43.71   0
        47    110.3258    942.9226 307.8601042  +6.2717249     563.8035     925.2128     1839.145     78.51514     156.4118     312.2654      1.680     3.45     860.3594     55.03638     107.9077         5     0.812     0.424 -73.21   0
        48    811.9915    939.9551 307.5689065  +6.2962361     2054.488     3520.728     3661.471     77.77091     156.0396     311.9548      1.818     4.54     863.0164     55.03638     252.3186        25     1.488     1.089 -23.06   0
        49    760.1972    937.8766 307.5904791  +6.2953809     5851.161     10227.66        11338     77.77091     155.6664     312.1102      1.858     4.39     864.2595     55.03638     685.5134        43     1.737     1.213 -32.14   0
        50    547.1588    936.9492 307.6789557  +6.2887072     756.0295     1181.555     1256.014     78.26785     156.1637     312.2343      1.623     4.90     866.1481     55.03638     134.6079        10     1.499     0.624 -33.09   0
        51    229.7671    937.0449 307.8107170  +6.2781269     1413.247     2168.793     2126.436     77.89544     156.1637     312.1102      1.556     4.38     861.5474     55.03638     212.4876        14     1.224     0.767 -25.99   0
        52    193.8561    936.7681 307.8256343  +6.2770465     970.0728     1786.896      2104.25     78.14391     156.1637     312.2033      1.898     6.24     861.1594     55.03638     154.5533        14     1.383     0.852 -26.12   0
        53     54.6212    935.3782 307.8834816  +6.2729843     2647.854     4044.787     4389.468     78.01978     155.9774     312.2343      1.723     4.23     859.5836     55.03638     370.6472        23     1.501     0.918 -26.38   0
        54    948.3629    932.8384 307.5125255  +6.3036815     5538.678     10476.89     11353.56     78.01978     156.0396     312.1102      2.000     4.66      860.247     55.03638     655.5218        39     1.722     1.233 -26.37   0
        55    630.6614    927.5668 307.6446016  +6.2953489     701.0627     1106.076     437.9177     78.01978     156.2258     312.1723      1.402     3.34     865.4399     55.03638     118.9929         5     1.052     0.307 -22.75   0
        56    922.3321    924.4940 307.5236103  +6.3062671     1811.882      3382.26     3698.322     78.14391     156.3498     312.2654      1.934     4.85      860.759     55.03638     202.7979        26     1.549     1.107 -28.72   0
        57    642.8824    920.6647 307.6397580  +6.2986036     4417.019     7309.769     7270.245     78.39159     156.2878     312.2654      1.734     4.25     865.3362     55.03638     598.5581        29     1.551     1.013 -34.21   0
        58    254.9178    921.0997 307.8008097  +6.2855469     4236.796     6735.422     6961.998     78.26785     156.6595     312.3275      1.699     4.39     862.1215     55.03638     525.8112        35     1.723     1.013 -30.19   0
        59    991.8470    919.8127 307.4949046  +6.3104958     604.4902     1270.094      1088.48     77.64618     155.9774     311.9859      1.899     8.12     859.0647     55.03638     92.11871        11     1.622     1.137 -25.92   0
        60    465.2681    919.3148 307.7135420  +6.2932718     1143.542     1860.776      1837.22      78.3916     156.4118     312.2654      1.792     4.82      865.034     55.03638       167.14        14     1.400     0.738 -35.74   0
        61     23.8365    918.4451 307.8968292  +6.2789497     1977.258     3419.878     3844.623     78.01978     156.1637     312.1412      1.869     4.68     858.7363     55.03638     284.9835        23     1.627     0.919 -18.48   0
        62    874.9030    917.1210 307.5435471  +6.3077443     820.6238     1356.672      1047.33     78.01978     156.4118     312.3275      1.635     4.16     861.5675     55.03638     123.5922         9     1.099     0.721 -22.10   0
        63    946.4243    913.7094 307.5139662  +6.3115160     777.0192     1342.532     1134.595      78.3916     155.9774     312.0791      1.976     6.78     860.1443     55.03638     94.85822        14     1.699     0.759 -28.95   0
        64    567.5160    913.2165 307.6712961  +6.2991813     1683.085     2594.089     2414.712     77.89545     155.8531     312.1412      1.640     4.23     865.4213     55.03638     269.7764        17     1.477     0.780 -38.02   0
        65    291.3087    914.3788 307.7859271  +6.2895318      959.335      1686.73     2488.906     78.14391     155.9774     312.0791      1.957     5.41     863.0549     55.03638     146.7508        11     1.332     0.621 -32.45   0
        66    782.0574    920.9848 307.5819659  +6.3030788     944.1016     1608.137     1870.739     77.64618     156.1017     311.9548      1.927     5.46     863.3911     55.03638     138.6071        12     1.332     0.633 -19.30   0
        67     56.1720    910.5295 307.8836712  +6.2832955     643.1727     1257.775     2016.892     78.01978     156.1637     312.1723      2.336     6.17     858.9019     55.03638     87.70258         8     1.595     0.670 -42.08   0
        68    606.4933    909.6212 307.6552339  +6.3019577     1045.413     1905.677     1463.488     78.14391     155.9774      312.048      1.922     6.56     865.2683     55.03638     138.3442        15     1.536     0.787 -28.85   0
        69    286.7833    907.4678 307.7880371  +6.2922349     1478.278      2409.57     3029.631     77.77091     156.1017     312.1412      1.808     3.95      862.696     55.03638     210.6823        18     1.254     0.944 -49.02   0
        70    554.2441    905.5615 307.6770616  +6.3019019     601.2599     978.3158     921.9776     78.01978     156.1017     312.1102      1.722     5.28     865.3019     55.03638     99.66748         8     1.366     0.577 -16.18   0
        71    753.5828    903.2725 307.5943777  +6.3094501     870.2934     1619.586     1850.516     77.77091     156.1017     312.1412      1.903     6.17     863.7211     55.03638     135.5792        12     1.342     0.797  -9.34   0
        72    129.6541    901.9638 307.8534531  +6.2892797     557.9224      1010.08     796.1738     78.14391     156.1637     312.2654      1.960     6.27     860.0095     55.03638     119.3569         9     1.733     0.637 -37.86   0
        73    891.0898    899.7909 307.5374031  +6.3154349     6068.674     10939.27     11274.46     78.01978     155.8531      312.017      1.909     4.31     861.0758     55.03638     737.5841        41     1.698     1.210 -30.82   0
        74    100.8436    898.9689 307.8655139  +6.2895568     508.6654     1047.374     1571.948     77.89544     156.1637     312.1102      1.867     3.97     859.1788     55.03638     77.90857         5     1.323     0.340 -26.50   0
        75    426.9338    897.1279 307.7301982  +6.3011602     2120.856      3398.36     3296.739     78.26785     156.2258     312.2964      1.593     4.16     864.4418     55.03638     322.5887        20     1.463     0.798 -27.12   0
        76    328.5537    895.6089 307.7710926  +6.2985197     9312.624     14624.02     15901.36     77.77091     156.0396     311.8927      1.723     4.12     863.0317     55.03638     1287.706        37     1.624     0.970 -29.16   0
        77    596.2234    896.8451 307.6599239  +6.3068926     612.4443      805.485     482.7243     77.77091     156.1637     312.1102      1.404     3.01     865.1206     55.03638     110.9915         6     0.746     0.613   8.91   0
        78    248.6480    894.5850 307.8043002  +6.2962860     6933.169     11181.93      11396.5     77.64618     156.1017     311.9548      1.732     4.01     861.4536     55.03638     951.7146        36     1.613     1.018 -29.09   0
        79    168.1847    892.9741 307.8377585  +6.2942740     472.5821     711.0132     203.0384     78.01978     156.0396     312.1723      1.451     3.88     860.8012     55.03638     66.24725         5     0.844     0.511 -33.49   0
        80    760.7614    888.6689 307.5918837  +6.3157175     728.2642     1235.865     1464.355     78.14391     156.1637     312.3585      2.046     6.14     863.3177     55.03638     107.2772        10     1.418     0.748   7.02   0
        81    577.0095    888.5564 307.6681776  +6.3096780     1232.557     1796.975     2228.831     77.77091     155.9774     311.9859      1.549     4.41     864.9647     55.03638     186.2486        12     1.209     0.710 -31.13   0
        82    907.1501    884.6245 307.5312395  +6.3222278     816.1672     1377.618     1547.235     77.89544     156.1637     312.1412      1.890     5.10     860.7042     55.03638     115.0447         9     1.147     0.642  -4.69   0
        83    140.6463    884.9712 307.8494592  +6.2966616     533.3071      709.655     923.1252     77.77091     156.2258     312.1102      1.560     4.66     860.1002     55.03638     81.37421         5     1.062     0.580 -14.18   0
        84    863.0684    883.1092 307.5495922  +6.3213967     666.2088     1279.824     1059.722     78.26785     156.2878     312.2343      1.716     4.02     861.2288     55.03638     104.4162         6     1.005     0.460 -39.97   0
        85    405.8085    882.8624 307.7394455  +6.3063489      632.768      729.413     508.0695     77.64618     155.9153      312.048      1.444     4.69     863.9642     55.03638     92.05652         7     1.052     0.593 -13.66   0
        86    743.4259    877.9846 307.5994370  +6.3195553     1435.169     2316.385     2275.722     78.01978     156.0396     312.1723      1.669     4.53     863.2502     55.03638     193.9355        14     1.278     0.809 -37.56   0
        87    566.9501    878.7065 307.6726826  +6.3134115     838.2283     1317.986     1812.291     78.14391     156.0396     312.3895      1.828     4.00     864.7358     55.03638     146.8341         9     1.087     0.590 -13.84   0
        88    607.4449    874.6625 307.6560049  +6.3164236     788.5796     1179.494     1347.837     78.26785     156.1017     312.2964      1.757     5.10     864.8955     55.03638     97.05902         9     0.940     0.781 -52.09   0
        89    974.6900    873.5782 307.5035645  +6.3290197     1088.186     2224.516     2859.138     78.26785     155.9774     312.1102      2.121     7.03     858.9316     55.03638      154.098        18     1.743     0.795 -21.03   0
        90    528.1215    873.7715 307.6889682  +6.3141616     1194.169     1671.663     1824.205     78.14391     156.1017     312.2343      1.558     4.20     864.3931     55.03638     172.5518        12     1.187     0.731 -16.67   0
        91    619.3730    873.6740 307.6510856  +6.3172270     554.7776     732.0043     395.9699     78.01978     156.1017     312.2033      1.285     4.11      864.825     55.03638     86.80286         6     1.066     0.453   7.14   0
        92    661.6890    871.3508 307.6335942  +6.3195881     2477.234     3665.914     4040.491     78.26785     155.9774     312.3275      1.684     4.27      864.462     55.03638     333.3878        20     1.395     0.845 -32.58   0
        93    951.7399    869.0461 307.5132440  +6.3301332      539.436     763.1218     784.6178     78.14391     156.1637     312.2964      1.467     3.87     859.6171     55.03638     73.18689         5     0.848     0.506 -35.81   0
        94     58.2542    867.8505 307.8842382  +6.3009861     2821.999     4752.388     4519.642     78.39159     156.1637     312.2654      1.763     4.51     857.4557     55.03638      384.458        24     1.507     0.924 -34.91   0
        95    823.0014    867.4291 307.5667495  +6.3265463     758.2043     1131.493     1082.932     77.77091     155.9774      312.048      1.423     3.00     862.1157     55.03638     169.6992         8     0.907     0.723 -23.45   0
        96    201.9514    866.7302 307.8246193  +6.3062334     2132.041     3289.213     2969.091     78.26785     156.1017     312.2654      1.563     3.85     860.7762     55.03638     323.6571        17     1.403     0.725 -38.50   0
        97     75.6435    867.2365 307.8770397  +6.3018190     1942.423     2744.846     3163.213     78.01978     156.1017     312.0791      1.626     4.66      857.722     55.03638     260.6517        18     1.461     0.759 -28.38   0
        98    939.6922    866.5449 307.5183293  +6.3307680     732.9053     1197.081     1205.369     78.14391     156.0396     312.3895      1.789     6.58      859.993     55.03638     97.92792        12     1.479     0.821 -21.13   0
        99    656.2278    860.6097 307.6362197  +6.3238422     6611.142     10368.59     10944.67     77.89545     155.9774     312.1102      1.668     4.38       864.31     55.03638     946.8784        33     1.618     0.992 -34.66   0
       100    340.6130    862.3927 307.7671970  +6.3126350     991.5604     1658.461     1641.703     77.89545     155.9774     312.1412      1.737     6.04     861.9633     55.03638     126.0627        13     1.284     0.799  -8.56   0
       101    235.9621    863.1334 307.8106198  +6.3088500     777.5767     1322.484     1246.672     78.14391     156.1017     312.3275      1.800     5.53      860.812     55.03638     115.2728        10     1.329     0.648 -23.56   0
       102    794.2357    861.1002 307.5789036  +6.3282081     632.3787     1243.837     1225.839     78.26785     156.0396     312.3895      1.825     4.63     862.6275     55.03638     82.69031         6     0.945     0.643 -70.28   0
       103     16.1963    859.3993 307.9019820  +6.3030738     1186.229     2068.952     1935.516     77.64618     155.7287     311.9859      1.740     6.38     856.6425     55.03638     153.2454        17     1.467     0.922 -21.69   0
       104    894.0007    856.6575 307.5376293  +6.3333410      2427.87      4037.64     4229.307     77.52124     155.7909     311.9238      1.804     4.83      860.491     55.03638      285.468        27     1.646     1.076 -24.27   0
       105     29.3778    857.5745 307.8965709  +6.3042666      1141.67     1670.145     1504.442     77.77091     155.9774     312.1723      1.652     6.18     856.8428     55.03638     149.7424        15     1.314     0.818 -38.81   0
       106     73.7116    855.2476 307.8782437  +6.3067046      1176.83     2037.991     2428.165     78.26785     156.0396     312.3275      2.139     6.63     857.5008     55.03638      157.705        16     1.606     0.767 -37.14   0
       107    339.2580    853.8538 307.7680452  +6.3161156     16224.65     25095.86     26328.22     78.39159     156.1637     312.2343      1.647     4.03     861.7189     55.03638     2225.602        41     1.624     0.975 -32.75   0
       108    210.5514    853.5446 307.8214905  +6.3119637     1151.747     1646.738     1412.619     78.26785     156.1637     312.3275      1.628     5.46     860.4811     55.03638     143.4531        14     1.376     0.767 -24.71   0
       109    417.0067    844.7328 307.7360707  +6.3224641     979.1154     1587.455     1141.051     77.77091     155.9153      312.048      1.606     4.61     862.8746     55.03638     143.1183        14     1.420     0.657 -39.86   0
       110    102.7316    844.6501 307.8665512  +6.3120469     1668.698     2405.429     2685.012     78.14391     156.1017     312.2343      1.582     4.17     857.8797     55.03638      204.939        16     1.255     0.850 -24.74   0
       111    670.6875    840.7140 307.6308795  +6.3325361     857.1935     1676.436     2605.833     78.01978     156.3498     312.3585      2.994     3.81     863.7167     55.03638     159.0349         9     1.170     0.587 -38.33   0
       112    498.2921    841.0600 307.7024450  +6.3266785     644.8558     1008.818     939.8445     78.14391     156.1017     312.3275      1.640     5.06      863.245     55.03638      91.7171         8     1.033     0.702 -18.13   0
       113    884.3563    838.3076 307.5422440  +6.3405990     1911.936     3146.042     2837.276     78.26785     156.1017     312.3585      1.793     4.45      860.326     55.03638     244.4453        20     1.437     0.959 -25.31   0
       114    855.0445    838.0370 307.5544235  +6.3397418     1877.611     3086.551     3535.087     78.01978     156.1637     312.1102      1.815     4.85     860.8309     55.03638     228.3089        22     1.526     0.951 -37.68   0
       115     85.9503    838.2307 307.8737334  +6.3141383     2307.462     3733.709     3989.067     77.89544     156.2258     312.1412      1.756     4.74     857.4301     55.03638     302.4564        24     1.547     0.952 -36.06   0
       116    818.5953    837.2429 307.5695838  +6.3388645     2929.087     4703.119     5056.212     77.64618     155.8531     311.9238      1.706     4.22     861.4085     55.03638     371.4485        22     1.439     0.905 -29.49   0
       117    449.1852    835.8918 307.7230061  +6.3271828        574.8     1043.491     1852.138     78.01978     155.9774     312.0791      2.426     5.14     862.6534     55.03638     92.34106         8     1.333     0.561 -42.52   0
       118    554.3259    828.9540 307.6795845  +6.3335355     332836.3     511350.4     534889.9     78.14391     156.2258     312.2343      1.634     3.97     863.5418     55.03638     45321.53       157     1.743     1.192 -32.19   0
       119    642.3844    831.7656 307.6429292  +6.3352933     1094.915     1525.989     1397.581     77.89545     155.9153     312.0791      1.557     4.94      863.658     55.03638     159.3599        12     1.430     0.651 -26.76   0
       120    341.7719    830.0390 307.7677980  +6.3260320     12338.05     19047.97     20048.48     77.89544     155.9153     312.1102      1.605     4.10     861.0928     55.03638     1792.459        38     1.617     0.944 -29.14   0
       121    660.2087    826.2300 307.6357132  +6.3381694     3416.453     5343.334     5516.475     77.77091     155.9774      312.048      1.665     4.12     863.4144     55.03638     521.7609        25     1.608     0.862 -27.71   0
       122    892.5189    824.8087 307.5393039  +6.3464425     4782.393     8304.094     9368.356     77.89545     155.7909     312.1102      1.923     4.57     859.9373     55.03638     602.1898        39     1.761     1.135 -17.95   0
       123    731.9976    822.5371 307.6060293  +6.3420713     778.0258     1349.537     1695.826     77.64618     155.9774     311.9859      1.937     5.04     862.8389     55.03638     124.0583         9     1.111     0.653  -3.80   0
       124    634.9996    820.2034 307.6463809  +6.3398227     3276.407     5158.708     5489.288     77.64618     155.7287     311.9859      1.649     4.10     863.3708     55.03638     477.0377        22     1.428     0.863 -33.78   0
       125    398.5681    831.6230 307.7441643  +6.3272647     7650.845     11777.64     12130.59     77.77091     155.9774      312.017      1.661     4.19     861.9344     55.03638     1117.995        32     1.571     0.925 -34.90   0
       126   1023.7077    819.4712 307.4850099  +6.3529790     1118.715     1562.214     1700.063     67.49535     123.5171     234.2663      1.357     3.67     856.2465     55.03638     279.8234        10     1.297     0.452 -87.59  24
       127    823.3741    819.0609 307.5682048  +6.3465299     1463.684     2474.028     2609.849     77.89544     156.1637     312.1412      1.720     4.72     860.8558     55.03638     187.6566        19     1.416     0.874 -31.32   0
       128    625.6845    818.9282 307.6502911  +6.3400405     1048.678     1919.702     1880.165     78.39159     156.4738     312.2654      1.783     5.04     863.3805     55.03638     169.4696        12     1.359     0.715 -38.20   3
       129    628.0674    814.5847 307.6494466  +6.3419129     2105.041     3185.707     3612.162     77.77091     156.0396     312.1412      1.592     4.40     863.2615     55.03638     282.3826        20     1.510     0.799 -29.13   2
       130    178.7967    819.3691 307.8358188  +6.3250175     455.3986     757.4236     191.9945     77.77091     155.9774      312.017      1.191     4.48     859.0486     55.03638     92.42218         5     0.838     0.680  54.94   0
       131    950.3839    817.4729 307.5155216  +6.3513832     656.0242     1125.443      1385.03     77.77091     156.0396     312.1412      1.697     3.38     858.3014     55.03638     127.4165         5     0.918     0.488  -7.74   0
       132    911.5937    812.7841 307.5317838  +6.3520378     3048.464      4995.14     4576.119     77.89545     155.9153     312.0791      1.721     4.23     859.2242     55.03638     397.9012        25     1.511     0.967 -23.65   0
       133    321.9100    813.2801 307.7766050  +6.3322915     933.2574     1264.453     492.4709     78.01978     156.3498     312.3275      1.402     4.99     860.6974     55.03638     150.0477        10     1.492     0.472 -35.93   0
       134    369.5736    808.9382 307.7569608  +6.3356680     2795.932     4255.302     4345.588     77.89544     156.1637     312.1412      1.655     4.21      860.617     55.03638     359.0909        23     1.496     0.848 -24.67   0
       135    505.9077    798.6660 307.7006988  +6.3444354     3135.303     4925.372     4693.738     78.14391     156.3498     312.2343      1.619     4.48      862.038     55.03638     406.4817        21     1.547     0.767 -29.35   0
       136    850.5632    797.4963 307.5576333  +6.3563330     1077.458     1753.394     2120.222     78.26785     156.0396     312.3895      1.818     6.15     860.2579     55.03638     140.7425        15     1.448     0.941 -45.17   0
       137    570.8386    796.2693 307.6738193  +6.3475784     794.7714     945.9683     467.1439     78.14391     156.1637     312.3275      1.287     4.47     862.6285     55.03638     143.3115         8     1.186     0.479 -41.99   0
       138    552.7609    794.6990 307.6813776  +6.3476274     6321.769     9521.718     10709.19     78.26785     156.0396     312.4516      1.641     3.91     862.5452     55.03638     860.6865        31     1.520     0.924 -30.45   2
       139    559.8767    794.1425 307.6784417  +6.3480931     1266.165     2096.581      2305.25     78.26785     156.1017     312.1723      1.630     5.04     862.4944     55.03638     179.4495        13     1.339     0.856 -16.45   3
       140    264.0409    795.2013 307.8012364  +6.3378321     640.6586     972.2053     1148.783     77.64618     155.8531     311.9548      1.735     4.73     859.9437     55.03638     108.3167         7     1.062     0.596 -22.72   0
       141    888.2653    792.7278 307.5421373  +6.3595482     1370.704     2277.745     2224.899     78.26785     156.2258     312.2654      1.752     4.65     859.4328     55.03638     220.1636        15     1.279     0.982 -10.83   0
       142    470.6447    793.7631 307.7155038  +6.3452897     1729.329     2363.988     2386.808     78.01978     156.1637     312.1412      1.512     4.81     861.1848     55.03638     240.4066        15     1.336     0.773 -32.61   0
       143    112.1958    793.2352 307.8643457  +6.3335903     1332.846     2167.043      2122.22     77.39611     156.0396      312.017      1.675     5.12     856.9449     55.03638     197.4897        16     1.406     0.885 -11.19   0
       144    523.4218    788.6318 307.6937620  +6.3491594      19964.8     30028.25     30664.56     77.77091     155.9774      312.048      1.623     3.92     861.7834     55.03638     3040.493        43     1.562     0.979 -31.22   0
       145    364.3466    790.0800 307.7597617  +6.3432807     730.7344     1129.481     1259.977     78.26785     156.1637     312.2964      1.766     5.75     859.8261     55.03638     102.2322        10     1.246     0.748 -14.46   0
       146    936.9720    786.7422 307.5221122  +6.3636290     3130.418     5581.675      5899.03     77.89544     156.2258     312.1412      1.883     4.66     857.8257     55.03638     390.9091        30     1.662     1.046 -28.28   0
       147     57.1997    784.8657 307.8874595  +6.3352137     531.6329     663.5246     628.1264     77.52124     155.7909     311.9859      1.374     3.93     856.3856     55.03638      89.3244         5     1.017     0.435 -43.52   0
       148    409.6057    784.2082 307.7411665  +6.3472084      486.685     633.8049     436.5857     77.64618     155.9774     312.0791      1.490     4.27     860.0617     55.03638     89.23541         5     1.133     0.459 -33.25   0
       149     34.0736    779.3204 307.8972469  +6.3367325     1464.601     1999.077      1180.97     78.51514     156.4118     312.2654      1.515     3.74     856.1805     55.03638      215.174        14     1.181     0.827 -18.47   0
       150    315.9995    777.4888 307.7802564  +6.3468728     3293.155     5019.253     4649.832     77.52124     155.6664     311.9238      1.484     3.92     859.3671     55.03638     503.9183        21     1.517     0.748 -30.49   0
       151     15.9592    775.8280 307.9048848  +6.3375706     2191.191     3336.074      3275.04     77.89544     155.9774     312.0791      1.599     4.07     856.0689     55.03638     323.9753        19     1.395     0.807 -33.92   0
       152    781.5560    773.0571 307.5871002  +6.3641417     53605.89     83787.39     87707.28     78.14391     156.1637     312.2343      1.680     3.96     860.4169     55.03638     7189.115        65     1.662     1.106 -32.59   0
       153    720.0556    774.7378 307.6125805  +6.3614123     727.3042     1052.304     1162.693     78.39159     156.1637     312.2343      1.683     4.76     861.7171     55.03638     109.3551         8     1.132     0.566 -28.49   0
       154    425.0589    771.8372 307.7351639  +6.3528295     811.6599     1210.487     1468.333     78.26785     156.2258     312.2654      1.667     5.97     859.8198     55.03638     127.7661        12     1.504     0.667 -37.67   0
       155    238.8887    770.8481 307.8124947  +6.3470506     5171.491     8667.084     11463.14     78.26785     156.0396     312.3275      2.156     4.43     858.6213     55.03638     832.6343        43     1.962     1.172 -51.24   0
       156    906.7726    768.2401 307.5352672  +6.3702709     7777.061     13052.33      13522.8     77.89545     155.9774     312.0791      1.781     4.38     858.1598     55.03638     958.0835        39     1.666     1.074 -28.11   0
       157    709.7971    767.7071 307.6170744  +6.3639757     20890.87     33029.96     35272.12     77.89544     155.8531     311.9238      1.673     4.03     861.3931     55.03638     2793.679        46     1.656     1.033 -29.85   3
       158    703.5104    764.1796 307.6198023  +6.3652240     88032.42     133225.8     138500.5     78.14391     155.9153     312.0791      1.638     4.05     861.1968     55.03638     12848.75        72     1.659     1.071 -30.67   3
       159    348.3863    765.2842 307.7672177  +6.3529883      20884.8     31818.66     33119.04     77.89545     155.9774     312.0791      1.624     4.12      858.671     55.03638     3235.586        48     1.606     1.024 -31.84   0
       160    410.2659    763.0735 307.7415989  +6.3559567      22742.6     33931.53     35355.45     78.39159     156.2258     312.2343      1.575     4.00     859.3685     55.03638     3269.074        43     1.578     0.944 -31.14   0
       161    397.4885    765.6066 307.7468195  +6.3544864     1358.587     1682.569     1527.985     77.77091     155.8531     311.9859      1.473     5.23     859.2913     55.03638     189.0209        12     1.375     0.616 -37.05   0
       162    637.2726    764.6929 307.6472886  +6.3628181     836.6605     1401.434     1937.505     78.14391     156.2878     312.2964      1.547     3.46     861.1184     55.03638     143.3876         7     1.013     0.468 -29.39   0
       163    947.7007    761.6888 307.5184904  +6.3743281      1952.66     3201.116      3531.51     78.26785     156.5976     312.2033      1.709     4.97     856.8655     55.03638     269.5558        22     1.557     0.936 -23.57   0
       164    238.2053    749.7911 307.8134836  +6.3557220     736975.8      1663933      1836504     77.64618     155.9153     312.0791      2.254    13.09     857.8953     55.03638     62711.83       538     2.415     1.975 -32.09   4
       165    903.8067    759.6386 307.5367849  +6.3737245     6237.462      10372.5     10860.52     77.52124     155.8531     311.9548      1.743     4.21     858.0197     55.03638     790.8578        36     1.619     1.047 -29.22   0
       166    644.2912    758.7939 307.6445711  +6.3654863     6595.943     9967.312     10762.52     77.89544     155.8531      312.017      1.600     4.10     860.8237     55.03638     962.6573        32     1.581     0.893 -31.29   0
       167    876.2398    760.1819 307.5482135  +6.3725891     658.8127     841.6338     738.7211     77.89544     155.9774      312.017      1.536     4.70     858.8071     55.03638     104.6064         6     1.084     0.641 -10.30   0
       168    433.0445    757.0714 307.7323417  +6.3591913     1750.174      2682.77      2357.84     78.14391     156.1637     312.2654      1.544     4.06     859.3522     55.03638     274.4053        19     1.361     0.863 -29.20   0
       169    134.9807    758.2000 307.8560603  +6.3488145     538.5443     837.9558     751.7106     77.77091     155.7287     311.9238      1.645     4.72     856.0844     55.03638     76.19775         5     0.930     0.680 -23.65   0
       170    158.5045    756.0677 307.8463649  +6.3504781     755.4302     1215.674     719.0655     78.14391     156.2878     312.2343      1.532     5.27     856.2005     55.03638     105.9466         8     0.985     0.797 -47.88   0
       171    732.4293    752.5591 307.6081817  +6.3709795     490.3155     715.1171     511.0511     77.89545     155.9774     312.0791      1.112     3.77     860.9274     55.03638     81.97217         6     0.994     0.410 -72.16   0
       172    872.9294    750.2823 307.5499175  +6.3765672     818.1971     1093.063     1000.354     78.51514     156.4738     312.2654      1.755     4.95     858.5908     55.03638     122.7495         8     1.082     0.641 -61.61   0
       173    597.4122    750.5695 307.6643106  +6.3673286     733.3134     1076.721     1406.983     77.77091     155.9153     312.1412      1.620     3.98     860.3185     55.03638     139.7848         7     1.131     0.619 -37.17   0
       174    679.4855    748.8352 307.6302896  +6.3707641     2420.729     3655.264     4281.297     78.26785     156.0396     312.2343      1.670     4.38      860.377     55.03638     335.2854        20     1.454     0.780 -31.69   0
       175    148.6072    749.8887 307.8506812  +6.3526998     913.7835      1460.38     1350.333     77.77091     155.8531     311.9859      1.970     5.13     855.8986     55.03638     154.4848        10     1.426     0.535 -16.84   0
       176    123.6716    749.6423 307.8610426  +6.3519712     969.6011      1547.53     1468.233     78.14391     156.1637     312.2654      1.701     5.12      855.736     55.03638     146.0749        12     1.413     0.612 -25.79   0
       177    413.1693    745.7355 307.7409730  +6.3632118     54436.07     82026.45     85716.34     78.01978     156.2258     312.1723      1.592     4.05     858.8583     55.03638     8309.425        65     1.647     1.000 -29.32   0
       178    955.9009    746.8569 307.5155785  +6.3807231     709.7421     1182.313     1575.549     78.01978     156.1637     312.4206      1.828     5.18     856.2537     55.03638       100.27        10     1.078     0.704  -8.38   0
       179    530.9099    744.6807 307.6921204  +6.3675550     7125.261     10816.87     11109.76     78.01978     156.3498     312.3275      1.581     3.83     859.2584     55.03638      1029.21        27     1.500     0.868 -31.36   0
       180    448.1485    743.1833 307.7265344  +6.3654270     4566.349     6981.212     7393.154     77.77091     156.2258     311.9548      1.604     4.31     858.8751     55.03638     753.1651        32     1.995     0.882 -24.00   0
       181    776.1481    741.1620 307.5904080  +6.3771323     11233.21     17646.36     18408.65     78.01978     156.2258     312.2343      1.659     4.13     859.7803     55.03638     1513.334        39     1.556     1.032 -29.35   0
       182      5.9390    737.6889 307.9103250  +6.3529833     1046.511     1833.794     2176.781     78.26785     156.2878     295.6514      1.990     5.10     855.2322     55.03638     167.3447        14     1.560     0.728 -23.27  16
       183    444.4908    736.6456 307.7282716  +6.3680049     2313.141     2975.512     3322.499     78.26785     156.1017     312.3585      1.438     3.94       858.64     55.03638       352.27        17     1.374     0.737 -26.21   0
       184    133.7894    733.5474 307.8573813  +6.3589534     11626.75     17995.53     19322.15     77.64618     156.1017     311.9859      1.637     4.12     855.2579     55.03638     1635.215        42     1.650     1.013 -26.51   0
       185    797.9086    735.3228 307.5815668  +6.3802632     1195.459     1954.231     1697.741     78.01978     156.4118     312.2654      1.711     4.58     859.2542     55.03638     186.4135        14     1.377     0.764 -30.88   0
       186    142.0183    733.8024 307.8539561  +6.3591222     2967.426     4492.284     5116.342     77.89544     155.7287     311.9859      1.571     4.11     855.2863     55.03638     465.8671        21     1.462     0.757 -31.99   0
       187    921.5636    729.6800 307.5304080  +6.3866812     6137.025     10148.73     10457.55     78.14391     156.2258     312.2343      1.785     4.24     856.7174     55.03638       805.78        38     1.659     1.098 -33.19   0
       188    125.9901    730.8088 307.8607114  +6.3598244     2794.445     4452.852     4477.605     77.77091     155.9774     312.1412      1.594     3.92     855.1364     55.03638      408.088        20     1.430     0.776 -35.93   0
       189    970.9431    729.2382 307.5099182  +6.3884947     1436.149     2415.772     3538.056     78.26785     156.2258     312.2343      2.435     5.81     855.4768     55.03638     181.0863        18     1.499     0.858 -23.99   0
       190    677.0613    727.4910 307.6320079  +6.3794968     1566.866     2687.109     2770.708     78.26785     156.2878     312.2964      1.816     5.33     859.6237     55.03638     245.7691        16     1.483     0.717 -29.48   0
       191    564.1167    726.7357 307.6789312  +6.3760657      2409.45     3658.307     4098.378     78.39159     156.3498     312.2654      1.610     4.19     858.7585     55.03638     381.1529        19     1.425     0.760 -33.54   0
       192    411.9438    726.4230 307.7421275  +6.3711451     1046.892     1688.627     1516.065     77.89544     156.1637      312.048      1.762     4.04     857.9833     55.03638     155.9119        11     1.227     0.616 -20.60   0
       193    125.9399    724.5105 307.8609433  +6.3624232     1894.669     3070.847     3664.622     78.14391     156.2878     312.2964      1.711     4.49     854.9497     55.03638     346.1406        19     1.528     0.817 -28.42   0
       194    696.2421    724.6724 307.6241373  +6.3812958      566.048     1003.199     606.3073     78.14391     156.1637     312.2654      1.869     4.55     859.7028     55.03638     77.51282         6     1.051     0.560 -32.77   0
       195    915.8918    721.7213 307.5330279  +6.3897800     2859.903     4785.197     5100.221     78.01978     156.4118     312.2964      1.777     4.44     856.6611     55.03638     366.7641        26     1.565     0.986 -27.78   0
       196    976.3784    720.8379 307.5079404  +6.3921427     1642.315     2779.206     3155.361     77.89544     155.9153      312.017      1.796     4.74     855.2462     55.03638     196.7156        22     1.519     0.957 -24.47   0
       197    945.3624    721.0301 307.5208133  +6.3910390     2797.471     4527.778     5142.949     77.89544     155.9153     312.1102      1.790     4.34      855.966     55.03638     344.7451        23     1.478     0.919 -29.97   0
       198    668.5338    720.6910 307.6357755  +6.3820221     1431.135      1881.42     2039.433     78.26785     156.3498     312.2654      1.411     3.26     859.4856     55.03638     210.1515        13     1.113     0.713 -41.34   0
       199    815.7013    719.0710 307.5747197  +6.3875621     876.7864      1200.81     1220.553     78.14391     156.3498     312.2033      1.538     5.08      858.646     55.03638     115.2241        10     1.254     0.582 -18.27   0
       200    240.6588    716.1912 307.8135901  +6.3696766     1947.353     3424.106     4122.836     77.64618     156.1017     311.9548      1.854     4.53     856.0663     55.03638     294.2385        22     1.540     0.878 -36.07   0
       201    890.6448    717.0576 307.5436668  +6.3908714     814.6699     1333.761     1928.275     78.26785     156.1637     312.2964      1.667     4.83     857.0805     55.03638     106.8511         9     1.139     0.580 -29.07   0
       202    293.2417    714.0859 307.7918274  +6.3722946     456.5954     708.1853     422.5586     78.26785     156.0396     312.2343      1.433     5.54     855.9525     55.03638     100.4888         6     1.416     0.612 -40.48   0
       203    677.6998    712.8070 307.6322323  +6.3855809     716.8339     1312.983     1980.863     78.01978     155.7909      312.017      1.948     3.32     859.3697     55.03638     144.5801         7     1.075     0.655 -34.40   0
       204    960.1804    709.0323 307.5150591  +6.3964824     2201.454     3522.414     3762.545     77.77091     155.9774      312.048      1.704     4.59     855.4196     55.03638     264.4034        22     1.532     0.975 -40.49   0
       205    933.7510    711.2009 307.5259618  +6.3947140     935.9785      1529.14     870.1122     77.64618     155.7909     311.7994      1.756     4.85     856.0043     55.03638     117.0597        13     1.155     0.809 -24.54   0
       206    261.1594    711.9949 307.8052185  +6.3720910      637.214     794.2241     708.4275     77.52124     155.8531     311.9859      1.527     5.68     855.8043     55.03638     109.0756         9     1.463     0.621 -21.60   0
       207    156.4492    711.1469 307.8487237  +6.3689568     918.4691     1344.087     1260.323     78.39159     156.1637     312.2343      1.621     4.77     854.5449     55.03638     146.4648         9     1.253     0.543 -39.16   0
       208    907.7432    709.9990 307.5368016  +6.3943509     940.1119     1662.826     1756.751     77.64618     155.8531     311.9548      1.762     5.61     856.5131     55.03638     135.2855        14     1.401     0.819 -16.79   0
       209    680.0906    708.2968 307.6313900  +6.3875224      938.748      1342.34     2372.056     78.26785     156.5976     312.2343      1.911     4.52     859.2795     55.03638        142.7        10     1.097     0.731 -30.93   0
       210    400.3516    703.6840 307.7477010  +6.3801488     584.4209     779.6933     1078.438     78.26785     156.1637     312.2654      1.795     4.81     856.5983     55.03638     83.39111         8     1.667     0.393 -34.97   0
       211   1001.7987    702.2614 307.4980020  +6.4006524     1483.063     2562.274     2624.345     77.64618     155.9774     311.9548      1.854     6.54     854.4884     55.03638     172.2881        19     1.564     0.849 -33.16   0
       212    471.1182    703.5424 307.7183215  +6.3825569     651.3088      971.934     1196.157     78.39159     156.1637     312.2654      1.475     4.18     857.1046     55.03638     110.9828         6     1.040     0.479  -8.45   0
       213    803.3158    700.8176 307.5804706  +6.3946893     1061.922     1737.331      1602.36     77.89544     155.8531     312.1723      1.729     6.58     858.5681     55.03638     145.6951        16     1.760     0.689 -41.85   0
       214    628.5170    702.2798 307.6530060  +6.3882982     816.8431     1256.309     1138.557     78.26785     156.4118     312.3275      1.646     3.18     858.9718     55.03638     127.9117         9     0.989     0.626  -9.23   0
       215    889.5418    697.9782 307.5447596  +6.3987128     1356.605     2689.121     3081.543     77.89544     156.1637      312.048      2.089     5.66     856.4922     55.03638     198.6891        24     1.419     1.350   0.95   0
       216    863.8036    693.5345 307.5555954  +6.3996969     966.7241     1479.815     1793.205     77.52124     155.9153      312.017      1.787     6.46     856.8005     55.03638     126.0121        13     1.394     0.840 -38.58   0
       217    650.1543    692.2357 307.6443564  +6.3931624     563.7568      1023.59     1461.785     78.01978     156.1017     312.1412      1.646     3.39     858.8628     55.03638     82.75049         5     0.967     0.344 -46.37   0
       218    846.4371    689.7387 307.5629332  +6.4006900     1576.405     2550.189     2690.404     78.26785     156.2258     312.2343      1.767     4.96     857.1574     55.03638     250.0947        17     1.384     0.854 -42.37   0
       219    110.0474    689.4361 307.8687180  +6.3763754      742.319     1593.823     2098.582     77.89544     156.1637     312.1723      3.015     5.75      853.852     55.03638     111.5741        10     1.272     0.733 -32.44   2
       220     45.3569    688.9833 307.8955933  +6.3744068     2498.816       3811.3     4077.222     77.77091     156.0396      312.017      1.680     4.41       853.87     55.03638      352.606        21     1.460     0.812 -32.68   0
       221    458.0549    687.8927 307.7242687  +6.3885849     536.5522     798.3841     701.3145     78.14391     156.1017     312.3895      1.881     4.87     856.3093     55.03638     87.07703         8     1.347     0.500 -54.87   0
       222    658.1651    677.1245 307.6415339  +6.3996671     6293.067     9463.855     9922.665     78.14391     156.2258     312.2033      1.560     4.03     858.6209     55.03638     1007.473        29     1.547     0.869 -30.82   0
       223    604.9472    676.4748 307.6636542  +6.3981719     1435.185      2272.79     2095.409     78.26785     156.2258     312.2343      1.674     5.45     858.1194     55.03638     247.6329        14     1.434     0.656 -33.68   0
       224    526.6388    676.9137 307.6961567  +6.3953940     774.1695     1023.528     1686.943     78.26785     156.1017     312.2343      1.809     4.15     856.3776     55.03638     143.1415        10     1.046     0.830 -32.09   0
       225    515.6089    676.9091 307.7007370  +6.3950300     831.1743     1337.563     1494.419     77.89544     155.8531     311.9859      1.761     5.00     856.2624     55.03638     128.7719        10     1.491     0.474 -25.99   0
       226    121.0145    673.4110 307.8647017  +6.3833572     3781.518     5671.813     5812.595     78.01978     155.9153     312.1723      1.604     4.25     853.3478     55.03638     581.5089        25     1.503     0.873 -28.66   0
       227    995.2238    672.2018 307.5017314  +6.4128471     2296.168     3743.806     3949.564     77.89544     155.8531      312.017      1.779     5.02     854.3271     55.03638     277.0477        24     1.567     0.995 -35.37   0
       228    632.1087    672.7357 307.6525002  +6.4006159     2276.486     3220.281     2923.344     78.26785     156.3498     312.2654      1.467     3.78     858.3348     55.03638     357.3319        18     1.323     0.798 -32.31   0
       229    307.7764    673.1909 307.7871610  +6.3896629     705.2614     1031.598      1049.97     77.89544     155.9774     312.1102      1.600     4.59     853.4187     55.03638     113.0154         8     1.189     0.504 -42.66   0
       230    775.0712    669.1839 307.5932529  +6.4068165     19727.73     30313.74      31596.6     77.77091     156.1017     312.1412      1.609     3.94     857.9812     55.03638       2826.2        45     1.611     1.012 -32.84   0
       231    243.8670    672.8110 307.8137107  +6.3876943     673.9057      849.767     607.6001     77.77091     156.0396     312.0791      1.311     4.38     853.2277     55.03638     127.8055         9     1.185     0.692 -29.61   0
       232    905.1685    668.8531 307.5392396  +6.4112551     3397.582     5530.416     5545.492     78.14391     156.2258     312.1412      1.698     4.28     855.4707     55.03638     431.7604        26     1.563     0.932 -34.82   0
       233    474.0847    669.5817 307.7182244  +6.3966775     1555.572     2280.959     2390.915     77.89544     155.9153     312.1723      1.628     4.91     855.5829     55.03638     219.1876        15     1.411     0.724 -39.00   0
       234    502.7489    669.1452 307.7063363  +6.3978089     985.2422      1491.58     1707.969     78.26785     156.1637     312.2654      1.562     4.37     855.8274     55.03638     156.1948        10     1.098     0.619 -25.85   0
       235    320.1771    668.4637 307.7821700  +6.3920269     600.1646     774.7216     482.7712     77.89545     156.1637     312.1102      1.230     4.48     853.3777     55.03638     102.0811         6     0.974     0.585  62.91   0
       236    248.5358    663.1395 307.8120960  +6.3918429     6363.014     9368.166     9371.235     78.26785     156.1017     312.2654      1.561     4.11     852.9892     55.03638     1026.762        26     1.502     0.842 -30.10   0
       237    655.5625    662.0424 307.6431177  +6.4058083     6921.338     10305.56     10796.24     78.01978     156.1637     312.1102      1.578     4.08     857.8715     55.03638     1116.255        28     1.488     0.878 -33.90   0
       238    638.6121    662.7897 307.6501315  +6.4049381     687.8123     936.1227     750.3823     78.01978     155.9774     312.1723      1.575     4.50     857.8669     55.03638     133.2109         7     1.362     0.481 -31.15   0
       239    351.1056    662.1845 307.7695375  +6.3956475      716.548     1133.819     1266.945     78.01978     155.9774     312.0791      1.681     4.62     853.4346     55.03638     124.1256         8     1.203     0.507 -24.21   0
       240    915.5046    654.2645 307.5354327  +6.4176204     1195.714     1711.723     1949.105     78.14391     156.2878     312.2654      1.568     4.58     855.1511     55.03638     190.3911        14     1.334     0.778 -39.65   0
       241    727.3278    650.3969 307.6137048  +6.4129934     3520.295     5886.009     6343.746     77.77091     155.7287     312.0791      1.804     4.01     857.3147     55.03638      473.726        30     1.546     1.047 -33.22   0
       242    683.1213    650.7356 307.6320507  +6.4113897     901.2957     1233.183     1291.352     78.51514     156.2258     312.2033      1.636     4.10     857.2218     55.03638     155.3692         7     1.057     0.454 -32.69   0
       243    993.6016    646.9199 307.5032455  +6.4232325     8008.541     13291.11     13713.55     77.52124     155.6041      312.017      1.750     4.06     853.8068     55.03638     1053.305        38     1.619     1.079 -32.50   0
       244    932.1489    647.2937 307.5287527  +6.4210486     2432.186     3769.902     4344.329     78.14391     156.0396     312.4206      1.694     4.21     854.8432     55.03638     318.6295        24     1.465     0.949 -33.37   0
       245     12.7019    647.3343 307.9105498  +6.3905141     1861.454     3508.835     4267.178     78.26785     156.2258     312.2654      2.148     5.62     853.1931     55.03638     278.4445        25     1.789     0.904 -29.38   0
       246    546.3659    645.5104 307.6890137  +6.4090146     493.6029     699.2476      219.981      78.3916     156.0396     312.2343      1.484     4.06     855.5804     55.03638     109.7723         5     1.095     0.431 -36.81   0
       247     70.8844    642.2567 307.8865616  +6.3945501     26092.24     39471.82     41079.26     78.26785     156.1637     312.3275      1.609     4.09     853.1287     55.03638     3980.757        49     1.629     0.970 -30.37   0
       248    532.1489    642.9442 307.6950031  +6.4096026     2172.536     3079.673     2768.296     78.26785     156.1637     312.2033      1.534     4.34     855.3182     55.03638     326.4004        18     1.391     0.749 -30.72   0
       249    922.3313    638.5203 307.5331215  +6.4243468     994.7239      1612.31     1554.358      78.3916     156.4118     312.2033      1.794     4.26     854.8782     55.03638     156.0565        12     1.294     0.658 -23.13   0
       250    541.3392    636.7595 307.6913933  +6.4124610     1098.543     1522.063     1270.764     78.26785     156.1637     312.2964      1.569     4.17     855.2261     55.03638     176.0538        11     1.269     0.598 -30.82   0
       251    716.9681    634.0992 307.6185500  +6.4193797     3615.212     5315.159      5687.04     78.26785     156.0396     312.3585      1.574     4.26     856.5621     55.03638     516.1594        19     1.448     0.727 -35.06   0
       252    738.8802    632.3920 307.6095076  +6.4208101     4095.941     5995.863     5991.604     77.89544     155.7909     312.0791      1.526     4.21     856.7123     55.03638     632.0584        22     1.433     0.802 -29.37   0
       253    406.4851    630.9603 307.7475858  +6.4103795     1457.569     1991.789     1974.334     78.26785     156.1017     312.2033      1.572     5.50      853.873     55.03638     215.2244        12     1.141     0.746 -37.94   0
       254    570.4442    630.2970 307.6795230  +6.4160946     3466.876     4978.456     4991.106     78.26785     156.1017     312.3895      1.529     3.77     855.5941     55.03638     621.7968        18     1.384     0.733 -29.29   0
       255    314.5410    629.5886 307.7858113  +6.4078906     1540.002     2415.193     2756.807     77.64618     156.0396     311.9548      1.763     5.34     852.1923     55.03638     275.8352        16     1.582     0.652 -32.59   0
       256    231.1937    629.9678 307.8204080  +6.4049620     1703.284     2343.188     2708.396     77.64618     155.9774      312.048      1.435     3.60     852.2365     55.03638     275.6543        14     1.225     0.705 -35.81   0
       257   1011.9047    628.3118 307.4962631  +6.4315202     4557.077     7557.002     8027.631     78.26785     156.5357     312.2964      1.773     4.14     853.0592     55.03638     593.0511        35     1.743     1.059 -36.31   0
       258    977.2506    627.1737 307.5106921  +6.4308459     7515.375     12212.62     12145.21     77.89544     156.2258     312.1412      1.711     4.09     853.7042     55.03638     950.4877        38     1.600     1.070 -32.22   0
       259    500.9351    640.2965 307.7080532  +6.4096602     1545.475     2416.805     2377.739     78.26785     156.2878     312.2343      1.587     5.63     854.8818     55.03638     215.0039        14     1.477     0.651 -31.67   0
       260    697.2431    625.7761 307.6270187  +6.4221632     874.3438     1392.177     1385.264     77.89544     156.0396     312.0791      1.679     5.35     855.8915     55.03638     144.5575        13     1.449     0.640 -30.38   0
       261     88.7774    624.1716 307.8797386  +6.4026133     916.3749     1597.826     1652.771     77.77091     155.9774     312.0791      1.719     4.94     852.9479     55.03638     180.8044        13     1.480     0.736 -35.14   0
       262    422.6248    621.8993 307.7411867  +6.4146567     3016.742     4322.912      4806.72     78.39159     155.9153     312.0791      1.612     4.10     853.9481     55.03638     444.3256        19     1.422     0.773 -31.00   0
       263    135.6784    621.1139 307.8603663  +6.4054381     24884.29     37253.52     38673.86     78.26785     156.4738     312.3275      1.596     4.08     852.4354     55.03638     3926.595        47     1.634     0.936 -30.93   0
       264    804.0858    621.4954 307.5827926  +6.4274671     1153.921     1809.308     2291.679     78.26785     156.5357     312.2964      1.864     5.25     855.8541     55.03638     147.9216        17     1.454     0.824 -22.92   0
       265    640.4238    621.3561 307.6507613  +6.4221059     527.9807     652.3555     291.7811     77.77091     156.1017     312.0791      1.462     3.35     855.6508     55.03638     90.96686         5     1.014     0.322 -21.66   0
       266    355.1702    615.8104 307.7694011  +6.4149299     824.0617     1168.522         1004     77.77091     155.9774     312.0791      1.429     4.36     851.8716     55.03638     147.8307         9     1.069     0.596 -28.99   0
       267    972.1257    610.2341 307.5133836  +6.4376711     6296.762        11246     12409.76     78.14391     156.1637     312.2033      1.924     4.10     853.4811     55.03638     818.8599        40     1.619     1.255 -18.46   0
       268     16.8618    609.7149 307.9100853  +6.4061851     1202.889     2014.848     2306.419     78.39159     156.2878     312.2343      1.731     4.41     852.8631     55.03638     168.0897        13     1.296     0.688 -31.18   0
       269    565.6918    605.7014 307.6823176  +6.4260924     49774.73      72957.8      75587.6     78.26785     156.6595     312.2033      1.573     4.09      854.675     55.03638     7506.306        63     1.590     0.998 -32.50   0
       270    208.5903    607.7396 307.8305385  +6.4133875     533.0771     885.8122     515.8287     77.64618     156.0396     311.9548      1.418     3.39     851.7751     55.03638     98.40149         5     1.166     0.286 -36.37   0
       271    930.0625    607.1724 307.5309536  +6.4375459     655.3257      1009.81     1039.763     77.89544     156.1637     312.2033      1.478     4.84     854.3029     55.03638     92.91675         7     1.085     0.612  -4.55   0
       272    525.0591    605.9019 307.6991843  +6.4246619     864.9302     1013.182     948.8715     78.01978     156.1017     312.3585      1.523     4.61     854.0784     55.03638     169.1821         9     1.300     0.464 -33.27   0
       273    173.3382    602.6105 307.8453487  +6.4143319     2787.343     4480.979     5307.708     77.64618     155.9774      312.017      1.777     3.81     851.7332     55.03638     459.8286        21     1.351     0.877 -39.49   0
       274    496.9937    602.2617 307.7109605  +6.4252337     630.8438     836.2523     493.1629     77.64618     155.9774     311.9859      1.310     2.40      853.697     55.03638     125.2997         7     0.732     0.637  16.35   0
       275   1023.7933    606.1482 307.4920625  +6.4410641     4001.182     5261.019     5894.965     66.19026     122.2551     232.6471      1.152     2.62     852.2994     55.03638     1348.909        17     1.524     0.517  88.49  24
       276     65.7755    596.8513 307.8902064  +6.4131267     1390.294      2120.21     2281.976     77.89544     156.1637     312.1412      1.510     4.80     852.6205     55.03638     233.4689        15     1.394     0.744 -27.74   0
       277    462.9665    589.5613 307.7255153  +6.4293482     65010.41     96204.38     100034.6     78.01978     155.9774      312.017      1.561     4.05     853.1321     55.03638     10253.87        69     1.632     0.976 -32.42   0
       278      6.2403    591.5836 307.9151044  +6.4133169     1815.471      2990.29     3430.696     77.77091     156.0396     298.3601      1.867     4.77     852.8285     55.03638     287.8237        20     1.574     0.755 -32.41  16
       279    648.7830    586.6512 307.6484477  +6.4367125     945.3191     1510.767     976.7112     77.77091     156.2258     311.9859      1.600     4.30     854.1215     55.03638     150.7369         8     1.004     0.543 -24.59   0
       280    137.3095    584.7202 307.8609092  +6.4205188     1675.462     2338.307      1965.44     78.01978     156.3498     312.2964      1.456     3.74     851.7142     55.03638     268.7164        15     1.282     0.729 -33.78   0
       281    415.7446    582.4921 307.7453613  +6.4306991     738.2796     1189.023     1171.734     78.14391     156.0396     312.3585      1.692     4.94     852.2803     55.03638     154.1636         9     1.889     0.366 -20.41   0
       282    933.1472    582.0458 307.5305084  +6.4480227     655.6387     962.8419     844.5523     78.26785     156.1637     312.2964      1.642     4.51     853.5981     55.03638     97.53882         7     1.098     0.526 -32.86   0
       283    608.8989    581.0275 307.6651984  +6.4377127     892.0884     1197.289     1144.588     78.39159     155.9153     312.2033      1.473     2.72     854.2296     55.03638     229.1055         8     1.013     0.473 -36.34   0
       284    308.3314    579.0286 307.7900822  +6.4285598     2222.214     3384.819     3688.123     78.01978     156.1637     312.1723      1.595     4.36     850.8218     55.03638     319.9542        19     1.316     0.924 -29.92   0
       285      9.7946    580.2773 307.9140081  +6.4181035     697.1973     748.2726     632.5611     77.89544     155.6664     312.0791      1.152     2.27     852.7737     55.03638     155.2634         6     0.740     0.510 -46.84   0
       286    460.4961    577.2791 307.7269517  +6.4343375     967.3469     1293.415     1417.845     78.01978     156.4118     312.2654      1.411     4.50     852.7361     55.03638     142.7487         8     0.988     0.583 -21.98   0
       287    734.9860    572.9396 307.6131062  +6.4452290     5363.307     8320.519     8226.391     77.77091     156.0396     311.9859      1.555     4.22     854.4212     55.03638     783.0234        28     1.546     0.855 -34.11   0
       288    788.5764    568.1371 307.5910107  +6.4489856     14194.55     21193.01     22017.23     77.89544     156.1637     312.1412      1.592     4.05     854.3395     55.03638     2201.997        38     1.574     0.922 -32.66   0
       289   1005.9312    568.3944 307.5007354  +6.4560632     938.9572     1432.141     1218.611     77.77091     155.7909     312.0791      1.645     4.76     851.8928     55.03638      139.745        12     1.233     0.856 -36.27   0
       290    530.6969    568.3803 307.6980963  +6.4403414     1108.088     1767.273     1711.492     78.14391     155.9774      312.017      1.521     4.51     853.0861     55.03638     190.8721        11     1.418     0.579 -26.83   0
       291    612.3352    566.4761 307.6642570  +6.4438348     3016.577     4604.556     4690.978      78.3916     156.1637     312.2033      1.687     4.52      853.483     55.03638     475.8425        23     1.598     0.778 -31.87   0
       292     34.0455    567.7027 307.9043601  +6.4241039     703.1112     1091.018     802.6791     78.26785     156.0396     312.3895      1.539     3.94     852.4822     55.03638     122.0317         6     0.915     0.486 -36.04   0
       293    929.3099    562.2337 307.5327611  +6.4560764     1041.655     1678.797     2019.045      78.3916     156.0396     312.2343      1.808     4.41     853.1572     55.03638     169.3905        14     1.342     0.827 -21.30   0
       294    225.0251    560.0978 307.8253100  +6.4336050     1406.087     2277.942     2763.433     78.39159     155.9153     312.1102      1.784     4.63     850.4945     55.03638     201.8093        13     1.353     0.671 -31.89   0
       295    189.3381    560.7201 307.8401086  +6.4321603     686.3578     1091.004     1813.513      78.3916     156.2258     312.2033      1.367     3.48     850.7601     55.03638     143.3005         5     0.770     0.453 -77.41   0
       296    371.3058    559.8403 307.7645730  +6.4385755     900.5863     1505.771     1832.894     78.39159     156.1017     312.3275      1.595     3.44      850.459     55.03638     190.7973         9     1.222     0.461 -23.82   0
       297    864.7231    551.2952 307.5599481  +6.4584582     2876.054     4291.249     4165.796     78.01978     156.2878     312.3275      1.535     4.05     853.9514     55.03638     420.2448        21     1.495     0.804 -31.06   0
       298    159.9452    551.4651 307.8526246  +6.4350030     651.5781     613.4233     217.1789     78.39159     156.1017     312.2343      1.270     4.21     850.7628     55.03638      108.226         6     1.047     0.484 -57.67   0
       299    823.1831    548.8007 307.5772827  +6.4581145     2401.663     3590.403     3666.091     77.89544     155.7287     311.9238      1.600     4.28     853.9031     55.03638     341.3507        21     1.436     0.876 -34.46   0
       300    794.2125    544.8222 307.5894468  +6.4587988     2526.625     4049.108     4177.427     78.01978     155.9774     312.1412      1.574     4.15     853.7513     55.03638     363.5114        21     1.669     0.711 -27.66   3
       301    803.8657    540.0248 307.5855976  +6.4610990     159199.6     238816.7     249047.2     77.89544     156.1637     312.1102      1.568     3.95     853.6578     55.03638     25141.87       115     1.687     1.127 -33.22   2
       302    251.3408    544.0742 307.8149188  +6.4410965     8099.326     11804.94     10854.71     78.39159     156.1637     312.2343      1.411     3.98     850.0851     55.03638     1240.036        30     1.542     0.845 -30.58   0
       303    737.4293    544.7526 307.6130311  +6.4569483     629.1655     1140.672     1666.554     77.89545     156.2258     312.1412      1.817     3.49     853.3015     55.03638     109.8334         5     0.831     0.424 -69.03   0
       304    185.4933    538.6968 307.8424433  +6.4411254      61296.2     90512.17     94228.41     78.26785     156.7214     312.1412      1.602     3.98     850.3401     55.03638     9195.896        68     1.626     1.023 -31.01   0
       305    733.7151    539.4649 307.6147498  +6.4590086     565.2247     864.0628     1440.785      78.3916     156.3498     312.2964      1.567     4.06     853.0746     55.03638      109.041         6     1.134     0.415  33.55   0
       306    109.4031    534.9781 307.8741656  +6.4401267     6381.396     9601.273     9810.306     77.89544     155.8531      312.017      1.600     4.02     851.0083     55.03638      973.424        26     1.526     0.824 -29.13   0
       307    975.0199    531.8842 307.5147869  +6.4701177     1256.214     1640.271     1471.989     77.89544     155.8531     312.2033      1.424     4.20     851.5437     55.03638     174.0394        13     1.249     0.766 -36.49   0
       308    996.1782    530.1961 307.5060557  +6.4715134     641.9243     862.0427     642.1296     77.89544     155.8531      312.017      1.436     4.48     851.2114     55.03638     102.3051         7     0.915     0.622 -55.23   0
       309    223.8939    530.2210 307.8267807  +6.4459030      645.897     806.5982      730.024     78.14391     155.9774     312.0791      1.291     4.18     849.8569     55.03638     133.4446         7     1.135     0.439 -29.11   0
       310    840.4466    527.2040 307.5708323  +6.4676027     4482.631     6675.974     6931.822     77.64618     155.9153     311.9238      1.581     4.15     853.0941     55.03638     732.9048        24     1.480     0.858 -27.80   0
       311    358.8494    525.6978 307.7708882  +6.4522587     17814.23     26195.87     27243.41     78.26785     156.1017     312.3895      1.551     3.96     849.3971     55.03638     2661.681        38     1.544     0.890 -31.23   0
       312    449.0904    526.0300 307.7334013  +6.4551191     757.2935     838.9767     319.1013     78.39159     155.9153     312.2033      1.310     4.45     850.7364     55.03638     160.4015         8     1.301     0.433 -29.06   0
       313    161.4044    524.3569 307.8529273  +6.4462440     1866.118      3215.49     3877.705     77.64618     155.8531     311.9548      2.012     8.34     850.3118     55.03638     286.5695        29     2.514     0.847 -30.03   0
       314    525.1443    520.5680 307.7019992  +6.4598986     6553.586      9679.85     9647.521     78.14391     156.1637     312.1723      1.564     4.28     851.2726     55.03638     1139.155        30     1.615     0.816 -33.66   0
       315    235.8528    522.3700 307.8220775  +6.4495426     859.6522     1413.706     1363.685     78.01978     156.2258     312.1723      1.686     4.86      849.706     55.03638     167.5386        10     1.366     0.610 -38.21   0
       316    794.2809    520.6462 307.5902237  +6.4687834     6091.207     8995.776     9495.041     78.26785     156.1637     312.2343      1.614     3.98     853.0425     55.03638     928.9006        31     1.593     0.860 -32.11   0
       317     98.2775    521.8100 307.8792273  +6.4451929      883.692     1081.567     1146.911     77.89544     155.8531     312.0791      1.374     4.70      850.954     55.03638      165.813        11     1.363     0.570 -30.64   0
       318    383.4061    517.2870 307.7609715  +6.4565474     1518.709     2186.671      1887.12     77.77091     155.8531     311.9548      1.570     3.89     849.3982     55.03638     285.3313        14     1.279     0.676 -29.89   0
       319    172.2169    513.8898 307.8487881  +6.4509257     6808.382     10075.94     10114.94     78.01978     155.9153     312.1412      1.531     4.04     850.0574     55.03638     1044.286        28     1.520     0.831 -28.65   0
       320    811.2242    512.7524 307.5834499  +6.4726033     1375.026     2158.049     1865.031     77.89544     156.1637     312.1102      1.528     4.94     852.7933     55.03638     248.7512        13     1.609     0.551 -30.92   0
       321    570.2413    513.3893 307.6835103  +6.4643585      2477.02       3755.3      3589.11     77.64618     155.9774     311.9859      1.648     4.59     851.1321     55.03638     361.0178        18     1.443     0.801 -31.80   0
       322    267.4430    510.2845 307.8093636  +6.4555835     90864.95     132858.6     138094.3     78.26785     156.0396     312.2033      1.575     4.00     849.4714     55.03638      15017.1        79     1.637     1.020 -31.31   0
       323     43.8091    512.6839 307.9021524  +6.4471454     4943.318     7596.943      7750.48     77.89544     155.8531     312.0791      1.597     4.06     851.6175     55.03638     733.2285        27     1.466     0.946 -28.44   0
       324    557.1831    507.3160 307.6891362  +6.4664331     1097.535     1349.017     1270.113     77.89544     155.8531     312.1723      1.340     3.83     850.7304     55.03638     171.6721         9     1.127     0.505 -40.63   0
       325    251.1447    505.3108 307.8162986  +6.4570949     1615.759     2565.271     2963.744     78.26785     156.0396     312.3585      1.643     4.93     849.3975     55.03638      264.067        16     1.528     0.663 -34.51   0
       326    966.7952    503.6518 307.5191417  +6.4815033     1378.483     2254.071     2271.664     77.64618     155.9774     311.8616      1.691     4.38     850.7377     55.03638     188.9797        15     1.358     0.801 -38.49   0
       327    494.2204    500.9628 307.7154968  +6.4669673     41027.71     66490.62      70255.1     77.89544     155.9153     311.9859      1.729     4.42     850.2936     55.03638      6304.67        67     1.749     1.120 -23.83   0
       328    790.5890    502.4236 307.5923641  +6.4761853     16351.44     23941.26     24346.47     77.89545     155.9774     312.1412      1.602     4.02     852.4467     55.03638     2646.736        36     1.534     0.900 -32.24   0
       329    644.2047    499.5616 307.6532545  +6.4725198     859.5899     1252.171     1176.663     77.39611     155.9153     311.9859      1.617     5.81     851.0376     55.03638     193.4298        13     1.656     0.575 -31.96   0
       330    206.5947    497.4330 307.8350633  +6.4588649     1935.356     2923.588     2795.645     77.64618     155.9774      312.048      1.690     4.50     849.4586     55.03638     305.8949        20     1.688     0.747 -33.64   0
       331     42.4785    497.7827 307.9032051  +6.4532534     1400.289     1913.621     1997.554     77.89545     155.9153     312.1723      1.477     4.78     851.4102     55.03638     216.1512        14     1.314     0.733 -35.67   0
       332    654.2197    495.7831 307.6492213  +6.4744118     2966.256     4462.759     5244.378     78.01978     155.9774     312.1412      1.575     4.14      850.848     55.03638     460.5796        20     1.439     0.783 -32.22   0
       333    664.2180    496.0027 307.6450616  +6.4746524      1405.64     2099.827     2570.175     77.89544     155.7287      312.017      1.664     4.96     850.8068     55.03638     206.4266        12     1.298     0.605 -23.07   0
       334    716.5972    494.6884 307.6233517  +6.4769300     1258.464     2039.432     1947.292     77.64618     155.7909     311.9548      1.518     4.37     851.3135     55.03638     200.0811        14     1.374     0.639 -33.60   0
       335    392.0979    491.6763 307.7582186  +6.4674105     1928.512     2847.612     2730.215     77.89544     156.4118     312.2654      1.480     3.48     848.7806     55.03638     331.5209        17     1.314     0.742 -33.58   0
       336     73.8993    493.3377 307.8903061  +6.4561361     624.2672     1122.835     1287.615     78.01978     156.1637     312.3275      1.681     3.70     850.9038     55.03638     123.9524         5     0.834     0.473 -49.43   0
       337    503.2328    489.4290 307.7121393  +6.4720286      2182.79      3333.46     3595.164     77.77091     155.9153     311.9859      1.660     4.25     849.7061     55.03638     331.8607        18     1.444     0.772 -32.30   0
       338    323.4026    490.0231 307.7868027  +6.4658101     4087.443     6024.168     5987.896     77.89544     155.8531      312.048      1.578     4.46     848.8519     55.03638     605.1364        23     1.432     0.833 -30.54   0
       339    138.5139    488.7299 307.8636277  +6.4601914     26581.02     39060.97     40122.73      78.3916     156.4118     312.2654      1.582     3.92      850.037     55.03638     3923.335        43     1.572     0.923 -30.54   0
       340    866.4045    488.4677 307.5613413  +6.4844554     1718.398     2620.626     3362.062     77.77091     155.8531      312.048      1.743     4.39     851.1477     55.03638     242.2401        17     1.392     0.761 -29.66   0
       341    103.7614    487.0038 307.8781176  +6.4597463     2632.374     4091.527     4176.631     77.39611     155.9153     311.9859      1.586     4.40     850.4349     55.03638     419.3047        21     1.467     0.809 -28.82   0
       342    340.8291    485.3152 307.7797231  +6.4683332     1030.683     1583.628     1553.865     78.26785     155.8531     312.0791      1.611     5.94      848.636     55.03638      162.715        13     1.531     0.749 -28.30   0
       343    964.0644    482.7571 307.5209708  +6.4900406     4838.164     7374.767     7334.641     78.26785     156.1017     312.2654      1.620     4.07     850.0542     55.03638     665.6154        27     1.494     0.906 -30.57   0
       344      2.9823    473.0857 307.9204359  +6.4621331     24739.88      35777.8     36627.56     77.89544     145.2961     260.0328      1.495     3.99     851.4438     55.03638     3983.201        41     1.458     0.981 -37.68  24
       345    537.2196    475.5820 307.6984870  +6.4788736     1614.893     2241.839     2276.984     78.01978     155.9774     312.1723      1.467     4.04     848.9853     55.03638     245.3743        14     1.351     0.649 -31.30   0
       346    643.5313    469.3062 307.6545437  +6.4849898     12532.44     18225.69     19070.28     78.14391     156.2878     312.2654      1.563     4.12     849.5554     55.03638     2185.296        38     1.575     0.875 -30.73   0
       347    435.5222    469.6776 307.7409201  +6.4779360     44433.19     64196.31     65956.62     78.51514     156.4118     312.3275      1.575     4.05     848.1974     55.03638     6863.855        55     1.597     0.935 -31.33   0
       348    411.6424    472.5460 307.7507416  +6.4759585     533.5913     726.2685     561.4301     78.26785     156.1637     312.2343      1.449     3.50     848.1535     55.03638     92.15173         5     1.085     0.326 -21.33   0
       349    283.7446    469.9029 307.8039460  +6.4727987     932.2385     1315.336     1483.993     78.14391     156.1637     312.4206      1.464     3.04     848.4178     55.03638     147.6392         8     0.933     0.586 -29.68   0
       350    200.6807    467.4284 307.8385248  +6.4710565     19645.01     30493.55     31863.76     78.14391     155.9774     312.2033      1.689     3.93     848.9753     55.03638      2594.96        46     1.562     1.091 -23.41   0
       351    166.2314    468.4999 307.8527954  +6.4694671      1712.11     2473.985     1784.954     78.26785     155.9774     312.3895      1.642     4.60     849.4534     55.03638      242.099        17     1.508     0.701 -24.85   0
       352    977.3183    467.6251 307.5159693  +6.4967264      1163.21     1848.343     1324.066     78.01978     155.9153     312.2033      1.624     5.14     849.4871     55.03638     162.5222        14     1.480     0.652 -30.15   0
       353    817.6001    467.0266 307.5823250  +6.4916944     1052.294     1442.115     1362.404     77.77091     155.8531      312.048      1.420     6.18     850.8699     55.03638     157.1567        14     1.540     0.696 -31.44   0
       354    906.0781    466.7729 307.5455860  +6.4947246     911.7475     1177.572     765.8543     78.14391     156.1017     312.2033      1.484     5.10     849.7927     55.03638     164.4015         9     1.207     0.609 -42.37   0
       355    565.2858    465.9967 307.6871509  +6.4837623      2929.97      4193.33     3954.891     77.77091     155.7909     311.9548      1.529     4.19     848.6974     55.03638     464.0089        19     1.439     0.718 -33.87   0
       356    939.1747    463.0403 307.5319641  +6.4973595      4535.19     6968.075     7214.361     77.89544     155.9774      312.017      1.600     3.82     849.4022     55.03638     628.6995        29     1.580     0.884 -29.21   0
       357    612.3892    461.6107 307.6677345  +6.4871351     6731.886     9847.684     9625.417     77.89545     155.9774     312.2343      1.521     4.09     849.2125     55.03638     1112.209        25     1.482     0.791 -32.11   0
       358     99.9800    462.5399 307.8805086  +6.4697210     1138.467     1724.723     1402.755     77.89544     156.0396     312.1102      1.632     4.74      850.144     55.03638     155.7667        11     1.248     0.638 -29.01   0
       359    511.2329    460.8969 307.7097702  +6.4840748     678.8775     1001.924     1049.193     78.39159     156.0396     312.3275      1.843     5.17     847.9975     55.03638     116.3451         8     1.469     0.515 -10.34   0
       360    961.8686    455.2531 307.5227976  +6.5013246     3198.924     4640.729     4400.519     78.14391     156.1017     312.1412      1.554     4.19     849.0481     55.03638     461.3331        21     1.495     0.781 -26.58   0
       361    650.4435    454.3888 307.6521707  +6.4913782     493.4362     526.3663     620.9946     77.77091     155.9774     311.9548      1.187     3.39      848.574     55.03638     82.34027         5     1.068     0.311 -21.56   0
       362    524.5948    452.9109 307.7044876  +6.4878155     7730.548     11156.65     12004.88     77.77091     155.8531     311.9548      1.508     4.07     847.4707     55.03638     1199.545        28     1.492     0.824 -29.24   0
       363    400.9072    454.3262 307.7558094  +6.4831247     653.2022     1060.307     1246.426     78.14391     156.2878     312.2033      1.241     3.11     847.3818     55.03638      140.059         5     0.755     0.428 -17.95   0
       364    370.4995    453.1147 307.7684785  +6.4826145     2818.121     4142.175     4038.998     78.26785     156.6595     312.3275      1.552     4.20     847.3412     55.03638     470.6133        19     1.447     0.734 -29.37   0
       365    740.2979    453.1672 307.6148926  +6.4948587     549.2698     784.6733      456.043     78.26785     156.0396     312.3585      1.217     3.36     849.2291     55.03638      118.833         5     0.926     0.353 -45.00   0
       366    881.1242    448.4483 307.5565601  +6.5014661     3100.493     4817.519     5691.106     78.14391     156.2258     312.2343      1.690     4.14      849.275     55.03638     491.2446        24     1.471     0.865 -31.78   0
       367    533.9745    449.6573 307.7007007  +6.4894701      709.428     1312.244     1497.446     77.89544     156.1637     312.1102      1.905     4.56     847.2731     55.03638     126.3057         7     1.277     0.462 -36.01   0
       368    888.5219    442.8450 307.5536741  +6.5040242     2069.471      3011.71     2848.074     78.14391     156.1637     312.2343      1.565     3.86     849.0274     55.03638     320.5693        16     1.388     0.668 -31.74   0
       369    107.2902    442.7267 307.8781375  +6.4781450     822.3305     1198.603     968.0605     78.26785     156.4118     312.2654      1.635     4.78     849.7856     55.03638     116.5091         9     1.160     0.558 -46.22   0
       370    927.6486    442.2073 307.5374444  +6.5055807     1094.417      1855.21      1986.21     77.77091     155.9774     311.8616      1.751     4.81      848.786     55.03638      207.145        11     1.339     0.641 -15.70   0
       371    266.2782    441.2577 307.8121592  +6.4840449     555.2169      889.673     442.4623     78.26785     156.1017     312.2033      1.490     4.90     847.3642     55.03638     100.6412         8     1.198     0.568 -16.25   0
       372    712.3499    439.0137 307.6269721  +6.4997773     3000.299     4353.838      5122.29     77.64618     156.1017     311.9548      1.560     4.35     848.0004     55.03638     453.4003        23     1.502     0.788 -27.02   0
       373     74.1050    438.3349 307.8920664  +6.4788524      2035.02     2856.146     2966.247     78.26785     156.2878     312.2654      1.495     3.93     849.9995     55.03638     338.1072        16     1.333     0.707 -30.24   0
       374    423.3424    437.6141 307.7470507  +6.4907701      1190.63     1682.091     2109.711     77.64618     156.0396     311.9238      1.511     4.78     846.7086     55.03638     185.6429        13     1.425     0.608 -29.26   0
       375    383.2429    437.3941 307.7637120  +6.4895288     3839.911     5569.735     5694.778     77.64618     155.8531     311.9548      1.500     4.14     846.6913     55.03638     638.2122        21     1.469     0.724 -31.73   0
       376    611.0308    433.8392 307.6692256  +6.4985568      10222.9     14991.08     15574.01     77.89544     155.9153     312.0791      1.524     4.16     847.1986     55.03638     1676.807        30     1.497     0.820 -31.63   0
       377    773.7125    430.3111 307.6017762  +6.5054020        16685     24525.38     25856.07     78.01978     156.6595     312.3275      1.576     3.86     848.3301     55.03638     2769.717        45     1.618     0.945 -37.22   2
       378    778.0087    425.4708 307.6001532  +6.5075428     1454.575     2369.038     2653.986     77.77091     155.7287     312.1102      1.491     4.08     848.0914     55.03638     232.1958        11     1.223     0.596 -27.69   3
       379    293.3271    430.9428 307.8012710  +6.4892034     2685.559      4143.81     4315.994     78.26785     156.1637     312.2033      1.530     4.57     846.5367     55.03638     412.8762        19     1.564     0.686 -28.42   0
       380    417.3962    429.9757 307.7497757  +6.4937264     572.9578     812.2601     587.4051     77.89544     155.8531     312.0791      1.272     4.33      846.407     55.03638     103.8455         6     0.866     0.617 -50.33   0
       381    802.6617    427.4599 307.5898475  +6.5075372     1368.661     1803.441     1214.422     78.26785     156.1637     312.2654      1.485     5.38     848.6728     55.03638     214.7162        12     1.292     0.632 -34.90   0
       382    376.4791    427.3977 307.7668555  +6.4934315      1575.72     2518.994     2366.101     77.64618     155.6664      312.017      1.659     4.68     846.2852     55.03638     266.5604        16     1.562     0.700 -33.77   0
       383    392.4836    427.0247 307.7602210  +6.4941173     496.1406     564.7905     694.2066     78.14391     155.9153     312.2033      1.324     3.71     846.2852     55.03638      84.1759         6     1.195     0.331 -38.74   0
       384    958.9528    424.9587 307.5250163  +6.5137369     1606.508     2209.215     2173.922     78.14391     156.1637     312.1102      1.487     4.15     847.9907     55.03638     222.4225        13     1.373     0.617 -28.33   0
       385    707.5224    424.2172 307.6294706  +6.5057268     447.1247     879.6929     1247.424     77.77091     155.9153     312.1412      2.142     4.31     847.0064     55.03638      86.3161         5     1.181     0.449 -32.20   0
       386    111.1323    422.4357 307.8772225  +6.4866508      4473.83     6863.514     7162.566     78.14391     156.2878     312.3275      1.586     4.11      849.459     55.03638     688.4693        25     1.518     0.807 -30.84   0
       387    365.0487    423.4400 307.7717352  +6.4946857     737.8954     987.4424     631.6522     78.14391     156.1637     312.1412      1.327     3.70     846.1227     55.03638     150.1481         6     0.838     0.469 -13.53   0
       388    749.1887    421.0045 307.6122721  +6.5084330     2319.255     3493.613     4100.561     77.89544     155.9153     312.1412      1.623     4.59     847.2337     55.03638     376.2791        16     1.410     0.695 -27.65   0
       389   1012.9355    419.7359 307.5027683  +6.5176761     3794.491     7077.823     7530.027     78.26785     156.1637     312.2654      1.954     4.76     847.2944     55.03638     433.8402        34     1.619     1.201 -15.35   0
       390    268.9857    419.5827 307.8117607  +6.4930842     1594.111      2343.23     2706.536     78.01978     155.8531     312.1723      1.606     4.61     846.4651     55.03638     241.1497        15     1.359     0.694 -33.95   0
       391    347.2264    417.1525 307.7793475  +6.4966894     3232.566     4630.646     4459.153     77.89544     156.2258     312.1723      1.466     4.07      845.879     55.03638     495.8163        20     1.419     0.781 -33.93   0
       392    702.9777    414.8262 307.6316714  +6.5094538     1564.208     2521.042     2560.833     77.77091     155.9774     312.1723      1.539     4.62     846.4715     55.03638     279.3633        14     1.580     0.559 -35.03   0
       393    977.5977    413.3296 307.5176589  +6.5191544     608.3463     792.8294     1209.423     77.77091     155.7909      312.048      1.272     4.65     847.3637     55.03638     90.52234         7     1.152     0.533 -47.15   0
       394    406.9674    413.0153 307.7546743  +6.5003828      604.425     688.2186     542.1159     77.89544     155.9153     312.1412      1.202     4.04     845.6589     55.03638     105.0817         7     0.906     0.515 -47.98   0
       395    235.2452    412.6576 307.8260055  +6.4948208     915.3943     1506.044     1041.934     78.26785     156.1637     312.2964      1.599     5.28     847.0269     55.03638     172.9801        10     1.465     0.643 -44.26   0
       396    445.4975    408.7263 307.7388152  +6.5034334     553.2671     813.6932     505.7251     77.89545     156.2878     312.2343      1.380     3.90     845.1295     55.03638      99.4173         6     1.245     0.351 -29.65   0
       397    544.2516    407.8886 307.6978276  +6.5070570     1065.415      1493.03      1425.39     78.26785     155.9774     312.3275      1.572     5.66     844.6761     55.03638       166.31        12     1.355     0.665 -19.29   0
       398    466.9128    405.8214 307.7300179  +6.5053439     1464.198     1934.452     2381.355     78.26785     155.9153     312.1102      1.434     3.79     844.7444     55.03638     221.6153        15     1.312     0.697 -34.18   0
       399    829.2585    404.8185 307.5795549  +6.5177657     1575.186     2291.713     2371.635     77.89544     156.0396      312.017      1.515     4.77      847.603     55.03638     235.7198        15     1.367     0.693 -37.18   0
       400    814.8044    403.8747 307.5855898  +6.5176773     1933.788     2876.384     2572.761     77.89544     155.6664     312.1412      1.516     4.24     847.5778     55.03638     329.5101        17     1.448     0.677 -31.31   0
       401    712.1586    402.1169 307.6282820  +6.5150055      15305.3     22748.59     23587.42     78.26785     156.1637     312.1723      1.547     4.10     846.1442     55.03638     2420.182        39     1.515     0.937 -32.58   0
       402    614.8186    404.0746 307.6686460  +6.5109719     787.9163     1000.149     986.8397     77.77091     156.0396     312.1412      1.353     4.73     845.2585     55.03638     112.5537         9     1.293     0.491 -31.76   0
       403    633.2917    398.1547 307.6611710  +6.5140286     2697.977     4070.871      5403.51     78.26785     156.1017     312.3585      1.713     4.25     845.1568     55.03638       456.09        18     1.437     0.733 -30.51   2
       404    706.7651    396.1799 307.6307201  +6.5172782     584.5821     850.4726     1340.398     77.77091     155.9774      312.048      1.344     3.81      845.925     55.03638     115.2867         6     0.796     0.522 -46.27   0
       405    608.6295    395.0392 307.6715182  +6.5144974     5680.096     8472.981     9415.177     77.77091     155.8531     312.0791      1.556     4.27     844.6587     55.03638     917.9113        26     1.527     0.834 -29.01   3
       406    604.6516    392.5759 307.6732526  +6.5153826      15016.6     21861.94     23166.84     77.77091     156.1637     312.1412      1.550     4.01     844.5046     55.03638     2420.946        36     1.541     0.872 -31.71   3
       407    937.4614    391.8349 307.5350448  +6.5267038     3716.243     5482.385     5406.073     78.26785     156.1637     312.2033      1.588     3.89     846.8577     55.03638     526.4233        24     1.511     0.829 -34.54   0
       408    376.5673    388.0821 307.7681344  +6.5096673     30497.99     44074.55     45803.04     78.14391     156.1017     312.2033      1.544     4.19     844.3027     55.03638     5025.473        48     1.591     0.908 -29.56   0
       409    414.1956    389.1582 307.7524702  +6.5104732     584.7039     629.9349     303.3398     77.64618     155.8531     311.9548      1.217     3.38     844.3339     55.03638     100.3172         5     0.982     0.337 -46.40   0
       410    893.1396    387.4765 307.5535992  +6.5270386     1525.993     2685.754     3864.689     78.51514     156.2258     312.2033      1.813     3.93     846.8217     55.03638     222.1836        14     1.287     0.660 -34.33   0
       411    122.7027    387.5345 307.8735881  +6.5014462     2447.172     3480.624     3380.164     78.26785     156.2258     312.2654      1.539     3.79     848.7402     55.03638     366.5226        18     1.358     0.767 -24.97   0
       412    588.1034    383.6588 307.6804235  +6.5185157     582.8976     858.8579     1005.807     78.14391     156.1637     312.3585      1.367     5.72     843.8557     55.03638     120.9017         8     1.348     0.684 -47.10   0
       413    906.2794    382.2655 307.5483150  +6.5296245     5101.668     7472.177     7635.074     78.51514     156.2878     312.2033      1.576     3.88     846.5704     55.03638     786.0657        27     1.504     0.858 -35.84   0
       414     55.9466    383.1846 307.9014586  +6.5010173     1485.609     2289.365     2155.565     77.64618     156.1637     311.9548      1.660     4.25     849.3004     55.03638     224.8597        16     1.348     0.761 -24.84   0
       415    234.0753    378.6918 307.8276295  +6.5088057     14360.53     21181.49     21436.72     78.26785     156.2878     312.2343      1.528     3.99     846.1538     55.03638      2202.67        37     1.518     0.900 -31.42   0
       416    962.1559    379.7837 307.5251886  +6.5324955     625.1185     793.7939     606.1312     77.89544     156.0396      312.017      1.560     4.80     846.2084     55.03638      97.8056         6     1.370     0.477 -41.74   0
       417     69.3106    372.9609 307.8962515  +6.5056839     837.4171     1211.877     1102.066     78.26785     156.1017     312.2654      1.498     4.98     849.0635     55.03638     117.1801        10     1.294     0.543 -28.05   0
       418    729.5013    371.9369 307.6220851  +6.5280410     856.5435     1030.644     1720.923     78.01978     156.2258     312.2654      1.411     3.30     845.5136     55.03638     172.7694         9     0.981     0.667 -54.99   0
       419    957.7197    370.3676 307.5273445  +6.5362369      981.122     1401.764      795.649     78.14391     156.1017     312.2033      1.573     5.44     845.8287     55.03638     141.0089        12     1.271     0.755 -35.86   0
       420    697.2566    371.3852 307.6354964  +6.5272010     683.1995     836.7605     499.2159     77.64618     156.1017     311.9238      1.235     3.96     845.0413     55.03638     114.9824         6     0.887     0.505 -43.56   0
       421    347.0741    368.2224 307.7810484  +6.5168869       1478.7     2176.032     1977.378     77.89544     155.9774     312.1723      1.443     4.01     843.3754     55.03638     254.3524        14     1.361     0.646 -29.67   0
       422    180.2453    368.9522 307.8503128  +6.5110351     824.6748     929.1661     778.2961     78.26785     156.0396     312.2343      1.246     4.76     847.2753     55.03638     118.3813         9     1.027     0.624 -34.49   0
       423    134.3224    367.3961 307.8694377  +6.5101481      5113.49     7792.734     8491.692     77.89545     155.6664      312.048      1.659     3.95     848.1581     55.03638     812.5906        27     1.514     0.851 -26.80   0
       424    239.2026    366.1982 307.8259187  +6.5141348     1330.113     1730.765     1743.169     77.64618     155.7287     311.9859      1.381     4.37     845.7026     55.03638      211.681        12     1.290     0.606 -31.62   0
       425    432.3239    365.5717 307.7457297  +6.5208140     646.8784     768.5525     689.8597     78.14391     156.1637     312.2033      1.297     4.65     842.9923     55.03638     109.0769         7     1.047     0.585 -28.03   0
       426    156.3683    363.2035 307.8604222  +6.5126135     2328.586     3920.378     3953.382     77.64618     155.9774      312.017      1.799     4.49     847.7059     55.03638     311.6841        21     1.453     0.874 -40.26   0
       427    820.5891    363.4521 307.5845338  +6.5345591     758.3704     1218.808     1628.905     77.64618     156.0396     311.9859      1.310     3.68     846.0587     55.03638     130.1799         6     0.943     0.414 -19.03   0
       428    552.0462    362.1430 307.6961183  +6.5262036     1115.881      1561.31     1779.039     78.26785     156.1637     312.3275      1.515     4.51     842.5294     55.03638     201.7422        10     1.132     0.612 -25.28   0
       429    968.4552    357.2711 307.5233210  +6.5419991     975.5552     1706.657      1841.14     78.14391     156.1017     312.2033      2.071     6.82     845.2812     55.03638      157.181        17     1.964     0.880 -64.12   0
       430    268.0968    358.4837 307.8141765  +6.5182814     857.8361     1106.503      788.876     78.26785     156.5357     312.2964      1.419     4.53     844.8705     55.03638     156.8263         9     1.400     0.596 -45.21   0
       431    379.7318    357.9415 307.7678286  +6.5222171     2324.812     3250.251     3427.618     78.39159     156.1017     312.2343      1.495     3.91      842.668     55.03638     382.0995        18     1.342     0.776 -36.43   0
       432     30.1143    352.3715 307.9132215  +6.5128779     3217.177     5274.758     5721.162     78.39159     155.8531     312.0791      1.779     4.44     849.1286     55.03638     462.0167        31     2.008     0.882 -41.59   0
       433    433.7231    351.3894 307.7456229  +6.5267161      7659.94     11152.15     11844.39     77.89545     155.7909     312.0791      1.542     3.85     842.2242     55.03638     1325.456        28     1.449     0.866 -30.98   0
       434    774.3107    348.6370 307.6042498  +6.5391449     13498.47     19699.26     20854.12     78.26785     156.1017     312.2654      1.546     4.09     845.2811     55.03638     2192.525        33     1.521     0.850 -32.95   0
       435    766.4387    350.2058 307.6074673  +6.5382366     2051.875     2989.391     3547.361     77.39611     155.9153     311.9859      1.545     4.11     845.2582     55.03638     368.4435        14     1.323     0.655 -29.78   0
       436    193.8195    350.7847 307.8452841  +6.5189881     392.3987     496.6898     259.2655     78.01978     155.9153     312.1412      1.473     3.46     846.4771     55.03638     65.14697         5     1.001     0.345 -44.03   0
       437    337.8745    346.9568 307.7855812  +6.5253613     1051.218     1396.795      1013.34     78.14391     156.2258     312.2654      1.415     5.17       842.77     55.03638     166.3285        11     1.267     0.595 -25.20   0
       438   1018.2004    343.7407 307.5031082  +6.5492285     3223.213     5221.078     5173.771     77.52124     155.8531     303.0022      1.699     4.17     844.4215     55.03638     452.8331        26     1.611     0.889 -31.41  16
       439    949.1778    340.2098 307.5318959  +6.5484069      629.929     825.2652     763.7112     77.89544     155.9153     312.0791      1.481     5.26     844.4617     55.03638     84.64807         9     1.183     0.661 -37.35   0
       440    183.1923    339.4633 307.8500775  +6.5233086     893.1111     1212.085     1023.794     77.64618     155.9153      312.048      1.323     3.50     846.6974     55.03638     156.1132         8     0.919     0.603 -57.31   0
       441    388.5160    337.7430 307.7648559  +6.5308487       569.01     916.0126     647.1397     78.26785     156.1637     312.3275      1.975     4.94     841.9922     55.03638     89.79987         6     1.194     0.579 -61.60   0
       442    481.8555    335.0385 307.7261778  +6.5350655     3304.052     4761.396     4953.854     78.26785     156.2258     312.2343      1.538     3.97     841.4806     55.03638     575.5532        22     1.512     0.769 -32.89   0
       443    453.9654    335.5937 307.7377435  +6.5339103     2162.636     3316.829     2847.482     77.52124     155.9153      312.017      1.491     4.01     841.6084     55.03638     355.5488        17     1.489     0.670 -29.93   0
       444    839.6929    331.5126 307.5776626  +6.5483788     33201.64     50981.61     52927.14     78.26785     156.5976     312.3275      1.688     4.01     844.6636     55.03638      4581.42        57     1.616     1.104 -40.91   0
       445    910.6555    334.3834 307.5480910  +6.5495397     776.3832     1038.173     1054.606     77.77091     156.1017     311.9859      1.428     4.98     844.3822     55.03638     135.5286        10     1.244     0.641 -21.74   0
       446    985.1874    330.9427 307.5172466  +6.5534227     523.4179      569.184     424.5354     77.64618     156.0396     311.9238      1.385     4.57     843.7551     55.03638     80.06903         5     0.937     0.634 -60.18   0
       447    331.6832    327.6718 307.7887983  +6.5331179     849.9954     1163.975     709.0276     78.51514     156.4738     312.2654      1.644     6.21     842.5878     55.03638     165.9385        11     1.764     0.614 -37.56   0
       448     57.4022    328.4204 307.9026924  +6.5236766     656.9539     848.2004     522.1099     77.89545     155.8531     311.9859      1.357     4.51     848.8608     55.03638     122.6901         7     1.242     0.611 -31.71   0
       449    611.4620    324.0522 307.6727115  +6.5439014     2990.409     4470.153     4818.112     78.26785     156.1017     312.2033      1.588     4.85     841.1116     55.03638     497.2964        22     1.459     0.801 -31.73   0
       450     19.9626    324.7009 307.9183669  +6.5239638     1239.326      1602.84     1154.026     78.26785     156.0396     312.4516      1.435     3.43     849.2349     55.03638     207.8588        12     1.051     0.758 -25.57   0
       451    143.1508    322.3224 307.8672829  +6.5290521     657.0922     894.7111      1083.47     78.26785     156.2258     312.2033      1.268     2.98     847.4698     55.03638     111.7275         7     0.837     0.577 -32.48   0
       452    696.1101    317.5380 307.6377688  +6.5493962     82559.16     120647.7     125507.6     78.26785     156.2878     312.2964      1.535     4.01     842.8416     55.03638     13647.12        80     1.615     1.018 -29.61   0
       453    854.4311    318.7758 307.5719650  +6.5541252     1155.689      1902.93     2140.954     77.77091     156.0396      312.048      1.814     4.98     843.9915     55.03638      165.776        14     1.509     0.752 -40.00   0
       454     75.3575    317.5627 307.8955994  +6.5287581     1370.885     1846.237     1975.834     78.01978     156.1017     312.1102      1.523     4.16     848.6578     55.03638     193.5477        13     1.296     0.662 -32.71   0
       455    937.7350    314.1943 307.5375147  +6.5587706     790.7646      1090.51     1161.287     77.77091     155.9153      312.017      1.448     4.19     843.1572     55.03638     123.7668         9     1.054     0.650 -42.27   0
       456    558.6006    314.1982 307.6949974  +6.5462170     2962.853     4275.779     4324.255     77.64618     155.7287     311.9238      1.542     4.20     840.5084     55.03638     480.7607        21     1.498     0.770 -37.54   0
       457    385.5046    314.4873 307.7668849  +6.5403506     480.1532     825.3859     742.4919     78.26785     156.5357     312.2964      1.651     4.09     841.4136     55.03638     83.28729         5     1.164     0.410 -34.60   0
       458     95.8261    313.3650 307.8872390  +6.5311736     6405.386     9518.344     9815.695     77.64618     155.9153     311.9859      1.549     3.99     848.4191     55.03638     971.2675        26     1.488     0.825 -29.20   0
       459    541.8342    310.4706 307.7020861  +6.5471999     7385.784     10885.26     10740.62     78.14391     156.1637     312.2964      1.518     3.87     840.3052     55.03638     1199.809        29     1.507     0.852 -31.73   0
       460    270.7502    308.2687 307.8147565  +6.5391026     2978.103     4267.304     4093.353     78.14391     156.1017     312.2343      1.513     3.77      843.739     55.03638     510.2966        21     1.408     0.796 -29.88   0
       461    404.7242    305.7093 307.7591956  +6.5446136     27670.03     40303.69     41959.24     78.26785     156.4118     312.2654      1.553     4.05     840.8638     55.03638      4133.88        50     1.566     0.946 -32.94   0
       462    583.0270    304.9955 307.6851588  +6.5508269      663.223      1044.02     808.4847     77.77091     155.9774     312.0791      1.435     3.03     840.2328     55.03638     110.5015         7     0.875     0.518 -44.38   0
       463    512.6071    304.3484 307.7144306  +6.5487578      1437.13     2139.523     1962.476     77.77091     155.9774     311.8616      1.578     4.56     840.1697     55.03638     242.2476        13     1.293     0.667 -33.48   0
       464    671.4257    303.7930 307.6484806  +6.5542537     519.0374     786.6766     488.3245     77.77091     156.0396      312.048      1.732     4.30     841.6621     55.03638     88.27295         5     1.145     0.461 -31.93   0
       465    384.6388    303.7549 307.7676036  +6.5447531     1200.636     1895.136     2223.472     78.01978     156.1637     312.1412      1.685     4.84     841.1831     55.03638     196.4658        15     1.567     0.617 -27.86   0
       466    484.2106    300.9298 307.7263398  +6.5492268     1163.498     1575.932     1843.354     77.77091     155.9774     312.1102      1.513     4.65     840.1677     55.03638      213.799        12     1.398     0.574 -37.26   0
       467    799.3675    298.3814 307.5955168  +6.5607245     777.9326     1143.518     1219.171     77.77091     155.9774     312.1102      1.596     5.22     843.1597     55.03638     114.0703        10     1.433     0.538 -29.87   0
       468    381.2496    298.6263 307.7691830  +6.5467580     855.6005     1238.169     1294.746     77.89545     156.2258     312.1412      1.588     5.97     841.1439     55.03638     130.8704        12     1.411     0.710 -33.20   0
       469    635.5210    297.9020 307.6635911  +6.5554962     668.7993     573.8886     308.5021     78.01978     156.4738     312.2654      1.305     3.62     840.6354     55.03638     121.3785         6     1.115     0.339 -40.43   0
       470    493.8153    296.1624 307.7225097  +6.5515140     8965.409     13187.53     13309.58     78.01978     155.9774     311.9859      1.530     3.86     839.9321     55.03638     1560.215        31     1.537     0.840 -33.37   0
       471    762.8468    294.7514 307.6108078  +6.5610146     3128.135     4552.102     4977.353     78.26785     156.0396     312.2343      1.541     4.10     842.8305     55.03638     520.9059        20     1.449     0.738 -30.07   0
       472    710.5583    294.5376 307.6325346  +6.5593715      800.971     1280.148     1074.104     78.26785     156.1017     312.2964      1.551     5.20     842.1152     55.03638     161.5804        10     1.355     0.564 -48.77   0
       473    918.7881    294.0141 307.5460566  +6.5664769     954.7701     1227.636       975.43     78.14391     155.8531     312.1723      1.339     4.19      842.304     55.03638     148.4966        12     1.120     0.782  -4.66   0
       474    320.3019    293.1610 307.7946811  +6.5469884     1144.807     1669.773      1338.37     78.26785     156.0396     312.4516      1.585     5.01     842.1158     55.03638     167.2836        10     1.409     0.504 -30.07   0
       475   1017.5783    286.5270 307.5052690  +6.5728316     481.1862     687.3859     604.5353     77.89545     155.9774     307.7001      1.377     4.87     840.6882     55.03638      88.8847         6     1.013     0.662 -68.68  16
       476    255.9774    286.7756 307.8216125  +6.5474852      610.141     698.7792     77.28893     77.77091     156.0396     312.2033      1.389     4.47      844.087     55.03638     103.0296         5     0.922     0.657 -29.78   0
       477    155.7989    286.7938 307.8632213  +6.5441424     1159.303     1870.586      2098.78     77.64618     155.8531      312.048      1.771     3.69     846.9087     55.03638     220.2038        12     1.204     0.647 -21.23   0
       478    602.5483    285.3657 307.6777057  +6.5595792     617.5786     580.7253     739.6864     78.14391     156.1637     312.1412      1.295     5.55     839.5498     55.03638     87.34705         8     1.178     0.736 -27.53   0
       479    383.6508    280.3221 307.7687981  +6.5543954     8030.771     11564.08      12188.3     78.26785     156.2258     312.2343      1.521     3.91      840.607     55.03638     1355.941        28     1.485     0.810 -32.32   0
       480    239.4496    280.9177 307.8286737  +6.5493538         2240     3315.361     3759.757     78.26785     156.1637     312.2654      1.570     4.34     844.9352     55.03638     320.8534        18     1.505     0.721 -34.34   0
       481    672.6381    281.0887 307.6487346  +6.5636683     504.8033     994.4253     756.5447     78.26785     156.0396     312.2654      1.750     4.49     840.5728     55.03638     87.52802         5     1.145     0.501 -36.37   0
       482    737.5334    279.9243 307.6218169  +6.5662986     882.8889     1411.762     1793.946     78.39159     156.2258     312.2033      1.590     3.43      842.033     55.03638     163.3133         8     1.113     0.471 -30.09   0
       483    751.5480    276.0481 307.6161247  +6.5683631     56696.52     81252.14     84031.38     78.39159     156.0396     312.2343      1.545     4.42     841.9066     55.03638     9079.778        63     1.589     0.967 -32.98   0
       484    423.2147    275.6100 307.7525222  +6.5576555     2533.905     3590.566     3832.084     78.01978     155.9153     312.1723      1.520     3.94     839.6219     55.03638     418.0175        17     1.373     0.725 -31.97   0
       485    986.5938    273.1016 307.5185864  +6.5773518     1679.182     2540.543     2836.716     78.01978     155.7909      312.017      1.639     4.94     840.6073     55.03638      248.842        20     1.528     1.022 -18.25   0
       486    927.3884    272.2443 307.5432087  +6.5757498     2251.687     3563.125     3429.765     77.77091     156.0396     311.9548      1.670     4.27     841.2217     55.03638     347.0096        19     1.445     0.808 -33.40   0
       487    569.2169    272.9651 307.6919650  +6.5635939     1220.045     1659.227     1020.279     77.89544     155.9774     312.0791      1.415     5.35     839.0044     55.03638      194.468        12     1.308     0.656 -21.75   0
       488    460.1883    271.8824 307.7372891  +6.5604225     1139.261     1632.562      2041.53     77.89544     155.9153     312.0791      1.362     3.98      839.117     55.03638     213.0522        10     1.225     0.518 -27.90   0
       489    409.6712    271.2843 307.7582925  +6.5589915      2107.46     2978.452     2578.833      78.3916     156.4118     312.2654      1.504     4.01     839.7188     55.03638     364.9591        16     1.387     0.679 -27.70   0
       490    289.5771    270.8757 307.8081892  +6.5551678     606.0076     880.6192     778.0072     77.89544     156.0396     312.1412      1.728     4.53     842.2173     55.03638     87.02887         7     1.278     0.457 -21.36   0
       491    459.5511    266.2907 307.7377407  +6.5627101     821.0452     1238.861     1329.123     78.26785     155.9774     312.3895      1.520     4.71     838.8686     55.03638     131.2745         8     1.174     0.537 -22.32   0
       492    830.9561    265.1537 307.5835024  +6.5754892     1199.284     1924.773     1820.519     78.26785     156.1637     312.1723      1.707     4.51     841.3926     55.03638     170.4469        14     1.304     0.813  -9.97   0
       493    186.2888    262.7013 307.8513651  +6.5551052     2399.376     3536.891     3909.879     78.26785     156.5976     312.2343      1.496     3.79     846.2856     55.03638     396.3013        17     1.405     0.675 -33.62   0
       494    440.3589    262.9023 307.7458260  +6.5634718     1236.638     1567.577     1381.437     78.26785     156.0396     312.4516      1.353     5.25      839.015     55.03638     190.0303        12     1.388     0.679 -14.59   0
       495    749.9828    260.5995 307.6172900  +6.5746899     6150.996     9120.962     9257.167     77.89544     155.7287     311.9238      1.520     4.09     841.2009     55.03638     1034.675        27     1.472     0.835 -32.87   0
       496    341.0188    260.0506 307.7871846  +6.5613481     768.0427     1065.031     894.2636     77.77091     156.2258     311.9859      1.386     5.24     841.1172     55.03638     108.1179        11     1.369     0.590 -45.26   0
       497     82.4837    260.1852 307.8945655  +6.5526854      1023.19     1672.572     1363.707     77.89545     155.8531     312.1102      1.608     4.83     848.2261     55.03638     154.3837         9     1.312     0.503 -34.21   0
       498    766.3084    258.5800 307.6105758  +6.5760642     2696.321      4034.83     4437.907     78.14391     155.9153     312.1102      1.657     4.15     841.1504     55.03638     464.7683        18     1.362     0.761 -33.76   0
       499    222.4424    260.4595 307.8364235  +6.5572345     666.5422      1032.09      1099.06     78.26785     156.1637     312.3275      1.515     4.00     845.7078     55.03638     135.7253         6     1.051     0.436 -35.34   0
       500    308.6972    254.9514 307.8007808  +6.5623786     589.4744     828.2447     679.8953     78.26785     156.1017     312.3895      1.482     4.96     841.6525     55.03638     88.86633         8     1.037     0.672 -15.32   0
       501    355.9537    253.4477 307.7812021  +6.5645708      1899.95     3218.874     2767.002     78.26785     156.0396     312.2343      1.827     6.13     840.6379     55.03638      250.393        22     1.776     0.803 -16.36   0
       502     69.9067    254.0142 307.8999965  +6.5548140     1333.678     1715.534     1791.665     78.01978     155.9153     312.0791      1.438     5.06     848.4293     55.03638     200.6248        13     1.257     0.655 -22.56   0
       503   1004.6270    249.4189 307.5118830  +6.5877259      5974.75     8976.403     9532.974     77.89545     155.9774     312.1412      1.610     3.91     839.6216     55.03638     858.6641        28     1.449     0.953 -33.15   0
       504    482.6588    249.4895 307.7287041  +6.5704144     2189.932     3266.317      3053.67     78.14391     156.1637     312.3585      1.569     4.21     837.7941     55.03638     347.7852        19     1.461     0.750 -28.22   0
       505    245.1468    245.2188 307.8275037  +6.5642827     5953.883     8884.248     9301.139     77.77091     156.1637      312.048      1.572     4.28     844.4991     55.03638     938.5487        27     1.539     0.824 -31.21   0
       506    810.5133    243.4728 307.5927167  +6.5837648     530.2227     709.3551     1171.351      78.3916     156.4118     312.2343      1.723     3.74     840.3829     55.03638     99.43579         6     0.939     0.428 -17.86   0
       507    764.6898    238.3835 307.6119215  +6.5843497     743.1599     1253.453     1239.524     78.01978     155.9153     312.1102      1.833     5.36     840.1462     55.03638     119.1183        10     1.415     0.573 -30.62   0
       508    222.0733    237.8875 307.8373334  +6.5665417     714.3784     843.9482     934.7488     78.39159     156.4118     312.2343      1.530     4.44     845.7034     55.03638      123.155         8     1.299     0.433 -29.07   0
       509    379.4492    235.8741 307.7720308  +6.5726076     1765.658     2837.506      2966.69     78.26785     156.2258     312.2654      1.659     4.37     839.6072     55.03638      260.563        16     1.395     0.727 -30.40   0
       510    966.3668    234.4406 307.5282749  +6.5926468     1200.983     1998.407     2886.102     78.01978     156.1017     312.0791      2.051     4.80     839.3153     55.03638     186.9448        16     1.370     0.886 -35.40   0
       511    301.9987    231.7299 307.8043409  +6.5717436     1112.786     1608.368     1291.338     77.77091     155.7287     312.0791      1.412     3.84     841.4748     55.03638     210.4812        12     1.266     0.645 -33.37   0
       512    558.7580    227.3435 307.6978335  +6.5820837     2280.057     3390.528     3269.697     78.14391     156.1017     312.2343      1.524     3.85     837.4837     55.03638     381.7205        14     1.306     0.647 -27.51   0
       513    902.5679    226.2262 307.5550511  +6.5939303     1723.723     2916.745     3130.705     77.77091     155.9153     312.0791      1.831     4.03     839.1714     55.03638     277.5626        18     1.395     0.862 -34.20   0
       514    722.3293    224.7137 307.6299740  +6.5885912     5408.508     7836.712     8083.184      78.3916     156.4118     312.2654      1.541     4.11     839.0977     55.03638     826.2095        29     1.596     0.879 -35.47   0
       515    663.1472    224.7638 307.6545567  +6.5866100     2186.062      3314.09     3005.604     78.14391     156.1637     312.2654      1.599     3.99     837.6539     55.03638     370.9938        19     1.472     0.772 -40.45   0
       516    149.1110    231.7407 307.8678457  +6.5666498      2008.77     2955.055     3587.607     78.14391     156.2258     312.3275      1.594     4.17     846.7359     55.03638     312.8134        15     1.414     0.637 -33.53   0
       517    378.3228    218.8137 307.7730697  +6.5796141     683.4424     916.3173     722.7783     77.89544     155.8531      312.048      1.535     2.71     839.2395     55.03638      125.944         5     0.712     0.646  14.07   0
       518    918.6629    216.3881 307.5486925  +6.5985244     1075.783      1534.84     1620.366     77.77091     155.9774      312.017      1.480     4.36      838.849     55.03638      164.314        10     1.188     0.616 -43.31   0
       519    221.8243    210.4089 307.8383579  +6.5778787     2472.209     3786.412     3912.815     77.89544     155.9774     312.1102      1.616     3.95     845.6112     55.03638     408.8743        19     1.412     0.744 -29.80   0
       520    864.7494    208.8896 307.5713387  +6.5998381     1621.041     2277.327     2319.968     78.26785     155.9774     312.3585      1.429     3.76       838.56     55.03638     312.2167        17     1.504     0.698 -37.15   0
       521    755.2051    208.2617 307.6168658  +6.5964728     1727.182     2642.169     2250.397     77.64618     155.9153      312.017      1.511     3.84     838.8285     55.03638     276.4018        16     1.401     0.685 -40.01   0
       522    575.7387    204.0056 307.6915594  +6.5922829     470.4473      667.131     927.1281     77.64618     155.9774      312.017      1.417     3.55     836.7883     55.03638     86.23767         5     0.805     0.496 -30.27   0
       523    243.7842    203.4894 307.8294682  +6.5814666     687.2816     944.0057     498.6317     78.01978     155.9153     312.0791      1.571     3.77     844.6667     55.03638     125.6786         7     1.030     0.462 -46.64   0
       524    455.7958    200.0634 307.7415154  +6.5899298     23968.72      35374.2     36707.91     77.52124     155.9153      312.017      1.542     4.01      836.738     55.03638     4168.533        42     1.540     0.908 -32.58   0
       525    317.4099    201.5611 307.7989498  +6.5847123     787.3478     1016.423     942.7451     77.64618     155.9774     311.9548      1.479     4.91     841.3608     55.03638     116.7531         8     0.969     0.704 -41.97   0
       526    781.8109    199.0370 307.6061209  +6.6011623     13720.67     20327.51     21412.82     77.77091     155.9774     311.9238      1.579     3.86     838.5888     55.03638     2330.898        45     1.671     0.945 -25.93   0
       527    720.9225    194.6868 307.6315599  +6.6009425     668.8444      920.566      900.283     78.26785     156.4738     312.3275      1.426     3.24     838.0271     55.03638     115.2823         7     0.747     0.659  14.36   0
       528    461.5353    194.6163 307.7393134  +6.5923694     1471.867     2073.183     2350.114     77.77091     156.0396     312.1102      1.311     3.29     836.4945     55.03638     242.4254        13     1.167     0.699 -33.84   1
       529    144.0715    193.4771 307.8712225  +6.5822800      2554.65     3845.048     4278.364     78.51514     156.4118     312.2343      1.555     4.01     846.5073     55.03638     391.0369        19     1.364     0.814 -27.59   0
       530    118.8406    192.4218 307.8817383  +6.5818750     1124.794     1687.113     1844.406     77.89544     155.9774      312.048      1.703     3.16     846.9896     55.03638     181.1198        10     1.009     0.661 -39.03   0
       531    918.2977    189.4648 307.5497405  +6.6096289      1419.17     1972.461     2145.591     78.26785     156.2258     312.2654      1.521     4.34     838.0949     55.03638     207.4117        13     1.297     0.740 -43.26   0
       532    775.3360    191.0143 307.6090782  +6.6042605     769.1143     1034.521     840.0292     77.77091     156.0396     312.1102      1.540     5.27     838.2563     55.03638     114.1346        10     1.161     0.676 -17.42   0
       533    170.4433    191.6137 307.8603307  +6.5839279      696.223     1176.631     1372.877     77.64618     155.9774     311.9859      1.545     4.57     846.0682     55.03638     131.0765         8     1.230     0.483   3.11   0
       534    300.1938    186.8644 307.8065933  +6.5902077     1006.317     1725.779      1291.82     77.64618     155.9153      312.017      1.618     4.61     842.6108     55.03638     184.5105        13     1.381     0.689 -31.71   0
       535    579.8023    185.7423 307.6904814  +6.5999584     4759.272      7060.58     6900.046     77.64618     155.8531     311.9859      1.539     4.37     836.2476     55.03638     743.9443        25     1.502     0.806 -28.26   0
       536    542.4390    185.8605 307.7059984  +6.5986701      2177.46     3134.186     3087.879     78.26785     156.2258     312.2964      1.524     4.65     836.2313     55.03638     326.2058        19     1.439     0.769 -32.51   0
       537    384.2687    184.8461 307.7717367  +6.5938364     1697.046     2276.835     2490.061     78.26785     156.1017     312.2343      1.457     4.00     838.3886     55.03638      239.762        14     1.244     0.721 -25.73   0
       538    940.8589    182.6399 307.5405952  +6.6131925      2589.78     3739.404     3571.181     78.26785     156.1637     312.2964      1.584     4.14     838.0646     55.03638     350.4004        19     1.412     0.806 -29.40   0
       539    886.8297    182.1794 307.5630557  +6.6115968     11428.48      16995.5     17907.45     77.77091     155.9774     312.1412      1.579     3.85     837.6694     55.03638     1847.577        35     1.524     0.905 -32.46   0
       540    314.8725    182.6908 307.8006357  +6.5924191     1111.746     1629.106     1963.633     78.26785     156.4118     312.2343      1.563     3.68     841.7996     55.03638     160.2737        10     1.038     0.704 -32.85   0
       541    206.1367    182.7808 307.8458005  +6.5887635     671.3593     1060.543     622.4832     77.89544     156.1637     312.0791      1.622     5.06     845.6125     55.03638     110.9238         8     1.199     0.603 -26.45   0
       542    973.5102    179.9346 307.5271210  +6.6153882     9567.196     14355.17     15183.86     78.14391     156.3498     312.2343      1.593     3.83     838.1726     55.03638     1404.905        33     1.540     0.945 -30.39   0
       543    684.9301    180.0912 307.6469986  +6.6057767      3110.38     4427.636     4944.449     78.26785     156.2878     312.2343      1.478     4.05     837.4538     55.03638     550.6905        19     1.409     0.745 -34.12   0
       544    561.9432    181.7634 307.6980331  +6.6010089     896.2494     1196.731     1047.737     78.26785     156.1637     312.2654      1.373     5.08     836.1274     55.03638     151.1094         9     1.160     0.770 -50.09   0
       545    259.0713    180.3562 307.8238933  +6.5915266      1166.82     1895.135     1455.126     78.14391     156.1637     312.2654      1.614     5.28     844.4144     55.03638     179.5181        14     1.518     0.624 -36.02   0
       546     13.0150    179.2224 307.9261387  +6.5837960     25822.63     39096.34     40529.96     78.01978     155.9774     312.1412      1.582     4.03     850.6621     55.03638     3934.414        50     1.604     1.005 -29.57   0
       547    493.5744    175.0267 307.7266593  +6.6015214     2077.014     2909.007     3302.427     77.77091     155.9774     312.0791      1.511     3.86       835.74     55.03638     374.6466        18     1.433     0.739 -26.62   0
       548    877.7551    170.6649 307.5672090  +6.6160510     2081.037     3322.512     3490.753     78.26785     156.1017     312.2343      1.742     4.41     837.2031     55.03638     341.7192        19     1.597     0.702 -39.95   0
       549    505.4503    171.0563 307.7218587  +6.6035550     2661.665     3817.814     4053.764     78.26785     156.1637     312.2343      1.556     4.47      835.687     55.03638     448.5947        20     1.559     0.709 -36.30   0
       550    825.2919    171.4403 307.5889778  +6.6139957     2170.706     3122.918     3329.032      78.3916     156.1017     312.2964      1.596     4.06     837.5092     55.03638     350.3833        16     1.343     0.713 -30.16   0
       551    737.0402    168.1940 307.6257479  +6.6124150     41202.93     60269.86     61860.91     77.52124     155.8531     311.9238      1.517     4.02     836.9969     55.03638     6738.855        52     1.576     0.911 -33.31   0
       552    340.0878    167.8277 307.7906591  +6.5993943     5886.675     11788.71     12672.89     78.39159     155.9153     312.1102      2.096     7.76     840.1937     55.03638     761.7738        40     1.975     1.086 -56.80   0
       553    970.7801    166.8792 307.5286895  +6.6206886     2681.952     4087.326     3947.483     77.89544     155.8531     312.2033      1.615     3.96      837.928     55.03638      389.579        22     1.444     0.831 -32.23   0
       554    904.9587    165.2734 307.5560873  +6.6191765      7422.04        10973     11416.33     78.14391     156.2258     312.2654      1.575     3.98      837.282     55.03638     1142.996        32     1.555     0.891 -32.29   0
       555   1008.9962    165.4040 307.5128623  +6.6225598     1671.852     2444.949      2135.77     77.64618     155.7287      312.048      1.590     3.67      838.207     55.03638     244.3718        17     1.256     0.863 -34.83   0
       556    448.4728    164.6024 307.7457435  +6.6043279      5405.24     7839.703     7873.035     77.77091     155.7287     312.0791      1.509     3.93     836.1362     55.03638     930.5392        25     1.487     0.835 -29.41   0
       557    222.8825    161.3705 307.8395622  +6.5981608     761.4169     992.6326     536.1652     78.14391     155.9774     312.2033      1.264     3.03     845.3105     55.03638     160.2076         8     1.105     0.506 -43.13   0
       558     75.5518    162.8365 307.9007126  +6.5926470     1695.445      1810.59     1593.323     78.01978     156.1017     312.1412      0.775     1.76     848.2834     55.03638     599.0779         6     0.765     0.362   6.52   0
       559    105.8291    156.0720 307.8883629  +6.5964492     4955.468     7335.479       7710.4     78.14391     156.1637     312.2033      1.531     4.08     847.0339     55.03638     816.7253        25     1.497     0.830 -29.69   0
       560    925.2823    154.7744 307.5479938  +6.6241833     848.9853     1349.596     1977.704     78.14391     155.9153     312.2343      1.792     4.75     837.1394     55.03638     168.8844         9     1.383     0.555 -30.14   0
       561    276.1176    152.6420 307.8177410  +6.6035364     35639.57     52603.73     54663.29     78.26785     156.1637     312.1723      1.556     3.93     844.5031     55.03638     5554.073        53     1.563     0.962 -30.55   0
       562    251.4375    153.6990 307.8279577  +6.6022787     7000.179     10264.17     10858.77     78.26785     156.0396     312.4516      1.553     4.15     844.8751     55.03638      1060.82        26     1.490     0.823 -33.56   0
       563    602.4111    153.8851 307.6821534  +6.6138617     514.5145     784.8754      1180.17     77.89544     155.9153     312.0791      1.649     3.41     835.3928     55.03638     87.18347         5     0.748     0.449 -70.42   0
       564    705.4623    151.5370 307.6394218  +6.6182467     993.0806     1335.873     1314.195     78.26785     156.1637     312.2654      1.492     4.15     836.6557     55.03638     160.4596        11     1.270     0.612 -27.74   0
       565    400.1668    148.0567 307.7663638  +6.6095545     52799.25     77943.23     80438.49     78.14391     156.1637     312.2343      1.531     4.03     837.2193     55.03638     8503.217        60     1.575     0.977 -31.13   0
       566    156.0480    149.4770 307.8677237  +6.6008456     4219.074     6161.293     5891.708     78.14391     156.2258     312.2033      1.502     3.90     845.7794     55.03638      701.887        22     1.479     0.769 -30.42   0
       567    417.4541    148.4961 307.7591677  +6.6099475     1548.607     2259.337     1888.662     78.14391     156.1637     312.4826      1.597     4.47      836.379     55.03638     265.8629        15     1.469     0.643 -24.14   0
       568    537.2123    147.5135 307.7094512  +6.6143297     617.6033     1155.159     1048.241     77.89545     155.9774     312.1102      1.885     4.97     835.3245     55.03638     85.71295         7     1.454     0.481 -49.62   0
       569    304.1724    145.8261 307.8063153  +6.6072839     19034.75     28515.39     29688.38     77.77091     155.9774     312.0791      1.561     4.06     843.2088     55.03638     3005.467        44     1.634     0.930 -30.02   2
       570    311.5608    145.9700 307.8032413  +6.6074702     2345.033     3819.322     4736.146     77.77091     155.9153     312.1102      1.849     4.47      842.621     55.03638     328.7781        19     1.460     0.758 -30.36   3
       571    570.8985    147.1350 307.6954699  +6.6156036       540.22     806.9797     661.6622     78.26785     156.2258     312.2654      1.350     3.67      835.299     55.03638     127.4971         5     1.263     0.307 -30.71   0
       572    739.4936    144.0857 307.6255328  +6.6224504     35059.58     50108.62     51922.83     78.26785     156.5976     312.3275      1.532     4.23     836.1335     55.03638     5747.825        50     1.559     0.942 -32.47   0
       573    687.7669    145.9482 307.6469595  +6.6199680     1071.424     1646.551     1674.565     78.14391     156.1637     312.1412      1.495     4.83     836.5493     55.03638     164.3961        10     1.166     0.577 -32.84   0
       574    787.9470    144.5107 307.6053896  +6.6238790     1260.504     1748.902     1525.144     78.26785     155.9774     312.3585      1.413     3.73     836.6222     55.03638     229.3008        11     1.256     0.538 -29.25   0
       575     27.1478    144.4267 307.9214371  +6.5986336     573.6765     627.0189     419.2656     77.89544     156.2878     312.1723      1.355     5.03     850.1872     55.03638     86.20111         8     1.231     0.581 -34.12   0
       576     56.2417    141.7363 307.9094422  +6.6007148     9269.128      13780.2     14240.19     78.26785     156.1017     312.2964      1.580     4.07     848.7638     55.03638     1364.771        31     1.539     0.879 -28.94   0
       577    259.7436    141.2281 307.8249253  +6.6077041     1565.269     1583.023     1455.755     77.89545     156.2258     312.1412      0.607     0.72      844.714     55.03638     1030.026         5     0.557     0.370 -56.22   0
       578     90.1209    139.6937 307.8954377  +6.6026878     1666.264     2530.858     2475.928     78.01978     156.3498     312.2964      1.498     3.94     847.0566     55.03638     273.7053        17     1.391     0.732 -36.28   0
       579    998.4976    137.9511 307.5181371  +6.6335483     942.8149     1383.786     1228.933     78.26785     156.1017     312.3895      1.544     5.19     837.1642     55.03638     142.3975        11     1.065     0.766 -31.42   0
       580    965.6930    137.3383 307.5317859  +6.6327179     529.0334     556.1136     294.3209     78.26785     156.1637     312.2964      1.193     4.02     836.7886     55.03638      103.487         5     1.162     0.397 -37.28   0
       581    724.3903    131.5304 307.6322261  +6.6271342     614.0551     783.1743     921.8478     77.77091     155.9774     312.0791      1.343     4.05     835.7791     55.03638     109.1105         5     0.968     0.484  -8.22   0
       582    573.3800    128.8485 307.6950500  +6.6232361     764.8824     1007.083      1122.57     77.77091     156.2258      312.048      1.342     4.70     835.0434     55.03638     159.1351        10     1.324     0.603 -22.91   0
       583    998.8792    124.4560 307.5184275  +6.6391330     2091.281     3154.638     3326.239     78.39159     156.1637     312.2343      1.600     3.80     836.6263     55.03638     295.1678        17     1.280     0.827 -40.43   0
       584    582.1968    122.4868 307.6915997  +6.6261553     1142.174     1716.623      1758.37     77.77091     155.7909     311.9859      1.558     4.03     834.9362     55.03638     179.4659         9     1.236     0.493 -36.83   0
       585    590.1887    120.4473 307.6883478  +6.6272624     2152.366     3149.256     3076.148     77.77091     156.0396     311.9238      1.521     4.26     834.8998     55.03638     373.8031        16     1.372     0.680 -28.66   0
       586    334.2233    120.4996 307.7946801  +6.6187402     1072.144      1669.54     1932.482      78.3916     155.9153      312.017      1.849     3.91     841.6033     55.03638     189.2199        12     1.359     0.558 -30.43   0
       587    274.9421    118.9130 307.8193595  +6.6174233     31852.92     47549.28     50513.01     78.26785     156.1637     312.3585      1.572     4.03     844.4831     55.03638     5224.993        63     1.784     0.975 -28.12   0
       588     20.1892    117.5020 307.9252320  +6.6095178      4712.25     7071.421     7208.527     78.01978     155.7909     312.0791      1.584     4.11     850.3273     55.03638      710.209        28     1.588     0.833 -32.58   0
       589    706.6368    115.3034 307.6401428  +6.6332461     8537.514     12437.52     12844.44     78.26785     156.0396     312.3895      1.564     3.84     835.2101     55.03638     1454.978        31     1.509     0.865 -32.41   0
       590    184.2910    116.6081 307.8570941  +6.6153571     929.8057     1512.083     1753.508     77.89545     155.8531      312.017      1.801     4.08     845.1959     55.03638     183.8125        11     1.294     0.744 -26.19   0
       591    998.8000    116.3536 307.5187299  +6.6424759     389.0634      418.669      715.659     77.52124     155.7909     311.7684      1.114     3.29     836.3129     55.03638     86.34436         5     0.746     0.442 -17.60   0
       592    261.0322    113.8202 307.8253085  +6.6190631     859.5895     1457.427     1851.564     77.77091     155.9774     312.0791      2.139     3.66     844.6449     55.03638     176.1503        12     1.298     0.614 -26.91   0
       593    117.4086    112.6678 307.8850096  +6.6147556     5087.082     7509.135     7785.747     77.77091     155.9153     312.1412      1.563     4.11     845.6288     55.03638     787.2766        29     1.481     0.900 -36.78   0
       594    578.9496    110.6508 307.6933441  +6.6309345     844.0963     1377.415     1712.675     78.26785     156.0396     312.1723      1.700     5.96     834.7815     55.03638     121.9926        11     1.495     0.669 -29.31   0
       595    388.0486    108.5698 307.7727194  +6.6254552     3992.897      6777.35     6768.589     77.89544     156.2258     312.1412      1.847     4.03     837.9971     55.03638     525.9899        35     1.619     1.166 -46.84   0
       596    645.3652    109.2843 307.6657983  +6.6337010     967.8172      1314.66     1193.115     78.26785     156.1017     312.2033      1.389     4.11     834.8885     55.03638     169.4396        11     1.223     0.642 -31.22   0
       597    456.5772    109.6302 307.7442155  +6.6272942     1437.624     2074.769     1986.672     77.64618     155.9153     312.0791      1.535     4.30     835.3132     55.03638     233.4225        12     1.332     0.596 -35.79   0
       598    352.5587    107.4461 307.7875004  +6.6247394     3499.284     5208.433     5223.831     78.14391     156.1637     312.0791      1.603     4.40     840.8859     55.03638     546.3526        23     1.512     0.758 -39.17   0
       599    564.7567    107.1349 307.6993578  +6.6319153     741.2419     1243.571      1677.91     78.26785     156.1017     312.2343      1.915     6.08     834.7419     55.03638     120.2711        11     1.286     0.808 -35.74   0
       600    106.8158    107.4343 307.8895855  +6.6165633     1794.587     2664.993     2841.556     77.89545     155.9153     312.0791      1.538     3.85     845.5459     55.03638      318.635        18     1.482     0.747 -33.70   0
       601    743.1478    105.1178 307.6253144  +6.6386608     642.5071     876.1337     319.0239     78.26785     156.1637     312.2654      1.363     4.37     834.8229     55.03638     132.8928         6     1.324     0.410 -26.29   0
       602    668.5492    104.9092 307.6563128  +6.6362758     948.1893     1374.971     1565.698     78.26785     155.9774     312.4206      1.717     4.37     834.8333     55.03638     136.5001        10     1.100     0.735 -32.88   0
       603    999.3557    101.4719 307.5189941  +6.6486388     1383.069     2065.878     1861.807     78.14391     156.1637     312.2654      1.619     4.73     835.7254     55.03638      217.693        17     1.439     0.841 -35.05   0
       604    725.4214    101.3599 307.6328041  +6.6396254     551.9953     541.3171     653.5931     77.89545     155.9774      312.048      1.283     3.32     834.6704     55.03638     113.3928         5     1.011     0.316 -22.10   0
       605     87.0698     96.5232 307.8981543  +6.6204099     2055.786      3313.03     3681.514     78.51514     156.3498     312.2343      1.808     5.22     845.9271     55.03638     306.5336        17     1.533     0.772 -41.79   0
       606    204.4057     96.4309 307.8494149  +6.6243576     5922.894     8657.629     9160.141     77.64618     156.0396      312.017      1.548     3.85     844.9783     55.03638     978.7417        27     1.513     0.840 -32.44   0
       607    843.8817     95.8246 307.5837746  +6.6458319     542.9638     909.1968     1081.016     78.01978     155.9153     312.2033      1.580     4.11     834.6078     55.03638     84.42621         6     1.183     0.407 -29.23   0
       608    666.1824     95.0568 307.6576250  +6.6402653      6612.56     9930.264     10171.94     77.77091     156.1017     311.9859      1.553     4.17     834.4595     55.03638     1032.036        27     1.491     0.857 -29.34   0
       609    814.1908     94.8248 307.5961430  +6.6452624     1090.427     1416.728         1279     77.89544     155.9774     312.1102      1.367     4.51     834.5742     55.03638     161.2663         9     1.146     0.548 -29.25   0
       610    618.3217     92.3577 307.6775985  +6.6397932      9766.78     14247.37     14648.48     78.14391     156.1637     312.2654      1.545     4.15     834.4655     55.03638     1687.005        31     1.534     0.814 -33.61   3
       611    621.8859     83.8776 307.6764010  +6.6434127     56311.04     82190.91     85275.05     78.26785     156.4738     312.3275      1.528     4.00     834.3536     55.03638     9452.486        64     1.592     0.967 -33.22   2
       612    253.2543     92.6540 307.8292490  +6.6275433     934.4999     1251.981     1340.978     78.51514     156.1637     312.2343      1.393     4.13     844.6493     55.03638     156.7795        10     1.251     0.540 -40.42   0
       613     17.1273     91.7339 307.9273696  +6.6200545     968.1331      1391.42     1962.705     78.39159     156.2258     312.2343      1.597     6.10        850.3     55.03638     148.3568        12     1.484     0.706 -39.45   2
       614    556.2902     91.8007 307.7033875  +6.6379657     670.8129     1019.324     879.1939     77.52124     155.6664     311.9548      1.457     4.54     834.5961     55.03638     135.0975         7     1.446     0.406 -31.62   0
       615    345.6544     88.1678 307.7910141  +6.6324694     4056.367     6235.776      6897.76     78.14391     156.1637     312.2033      1.616     4.35     841.5904     55.03638     642.6456        26     1.688     0.831 -40.03   0
       616    992.0402     87.3152 307.5225044  +6.6542424      755.735     1355.957     1135.779     78.26785     156.1017     312.2033      1.973     5.60     834.7429     55.03638     121.5607        11     1.415     0.624 -71.77   0
       617    527.3189     87.3724 307.7155713  +6.6388328     1735.753     2365.514     1918.727     78.14391     155.9774     312.2033      1.335     3.66     834.7219     55.03638     320.6667        14     1.325     0.605 -29.98   0
       618    301.0062     77.7293 307.8099118  +6.6352943      3834.35     5742.599     6371.507     77.77091     155.7909     312.1412      1.547     3.96     843.6639     55.03638     597.8129        24     1.481     0.815 -27.79   0
       619    496.9485     74.7912 307.7286090  +6.6430192     508.7243     794.1676     626.1107     77.77091     156.0396     311.9548      1.362     2.52     834.9022     55.03638     115.7079         5     0.762     0.486 -54.23   0
       620    700.7693     72.0865 307.6440225  +6.6508955     1018.851     1587.536     1591.221     78.39159     155.9153     312.1412      1.612     4.93     833.9631     55.03638      198.698        14     1.522     0.669 -31.86   0
       621     66.8398   1014.9986 307.8757396  +6.2405178      6621.56     11799.26     13017.83     77.39611     155.9153     311.9238      1.879     4.76     860.7393     55.03638     829.4468        43     1.797     1.119 -35.99  16
       622    672.3815     70.9589 307.6558539  +6.6504205     1413.242     1955.183     1968.391     77.77091     155.9774     311.9859      1.431     4.19     834.0057     55.03638     254.6193        11     1.228     0.559 -26.39   0
       623    686.3531     67.7707 307.6501558  +6.6521998     3349.754     4693.308     4804.226     77.89545     156.2878     312.1412      1.446     4.04     833.9132     55.03638     530.1792        21     1.434     0.756 -29.80   0
       624     67.1357     61.8395 307.9075998  +6.6340651     512.4253     629.2726     680.2748     78.26785     156.1017     312.3275      1.138     4.94     846.9246     55.03638     79.50781         6     1.031     0.670   2.91   0
       625    427.9783     58.9181 307.7577930  +6.6472823     4457.473      6480.32     6674.829     78.01978     155.8531     312.1723      1.503     4.25     836.6185     55.03638     741.5073        23     1.493     0.763 -28.77   0
       626    900.6223     54.1127 307.5615906  +6.6649308     3865.128     5900.537     5661.822     78.26785     155.9774     312.1412      1.607     3.90     833.1365     55.03638     591.8126        27     1.521     0.949 -28.85   0
       627    882.5809     55.0140 307.5690562  +6.6639621     2152.443      3272.41      3721.51     78.01978     155.9153     312.1412      1.640     4.21     833.1985     55.03638     324.9373        18     1.440     0.744 -34.45   0
       628    580.6614     54.2689 307.6945167  +6.6542706     814.4775     1202.823     900.3852      78.3916     156.1637     312.2654      1.449     3.60     834.2471     55.03638     170.7384         9     1.190     0.617 -42.78   0
       629    592.5098     52.8163 307.6896427  +6.6552633     1820.596     2556.995     2594.223     78.01978     155.9153     312.1412      1.400     3.87      834.141     55.03638     319.0126        16     1.373     0.700 -31.07   0
       630    238.6446     52.2432 307.8366728  +6.6437416     1093.227     1582.312     1667.853     78.26785     156.1637     312.1412      1.588     4.68     844.2197     55.03638     179.3707        10     1.268     0.566 -32.55   0
       631    391.3162     50.8292 307.7732947  +6.6494037     2014.042     2953.499     2993.126     78.26785     155.9153     312.1102      1.586     4.98     838.9749     55.03638     294.8887        16     1.382     0.694 -33.37   0
       632     82.2112     52.1248 307.9016633  +6.6385787     520.5607     699.4828     553.5037     77.89544     155.8531      312.048      1.210     3.31     845.9571     55.03638     107.5916         5     0.957     0.332 -47.34   0
       633    139.3642     47.8176 307.8780652  +6.6422621     3246.889     4690.911     4416.366     77.77091     155.9774      312.017      1.545     4.04     844.4904     55.03638     483.8711        23     1.417     0.854 -34.78   0
       634     21.1298     45.6890 307.9272538  +6.6391985     12603.83     19270.07     20782.82     78.26785     156.4118     312.2343      1.628     3.96     849.5085     55.03638      1855.26        42     1.652     0.945 -29.50   0
       635    287.3703     46.2797 307.8166304  +6.6478254     1462.718     2343.545     2928.577     78.14391     156.1637     312.2033      1.654     4.30     844.0322     55.03638     212.0767        15     1.321     0.734 -33.14   0
       636    756.3566     44.4122 307.6218515  +6.6641629     914.9135     1269.384     1687.605     77.77091     156.0396     311.9548      1.420     4.20     833.0713     55.03638     173.8507        11     1.201     0.721 -26.09   0
       637    560.9957     45.1023 307.7029931  +6.6574029     590.7926     600.9479     170.5917     78.01978     155.8531     311.9238      1.178     3.76     834.3663     55.03638     131.7439         6     0.942     0.431 -52.23   0
       638    548.0715     45.1071 307.7083624  +6.6569721     745.6671     1198.738     1205.166     78.14391     156.2258     312.2654      1.646     4.31     834.4888     55.03638     129.9589         8     1.352     0.391 -31.02   0
       639    978.5923     43.3803 307.5295535  +6.6719387       561.79     709.5225     733.1364     77.89545     155.9153      312.048      1.385     3.45     831.7533     55.03638     71.30444         5     1.049     0.328  68.44   0
       640    151.6053     43.7102 307.8731177  +6.6443658     654.3553     936.6062     989.3499     77.77091     155.8531      312.017      1.510     2.95     844.2596     55.03638     126.4991         6     0.839     0.488 -45.35   0
       641    822.9297     39.8322 307.5943452  +6.6682575     6238.774     9547.233     9721.194     78.14391     156.1637     312.2654      1.578     3.80     832.7193     55.03638     1036.412        29     1.540     0.906 -32.94   0
       642    413.1191     40.9731 307.7645667  +6.6541977      1204.74     2155.969      1715.84     78.14391     155.9774     312.2654      1.845     5.58     837.9116     55.03638     171.8679        15     1.598     0.657 -30.87   0
       643    890.0024     40.8734 307.5664438  +6.6700461     657.4975     792.9942     893.1027     77.77091     155.7287     312.1102      1.421     4.63     832.7011     55.03638     100.4399         8     1.374     0.442 -29.59   0
       644    767.9830     40.1817 307.6171622  +6.6662946     3357.641     4789.387     5124.208     78.01978     155.8531     312.1723      1.494     3.71     832.8946     55.03638      546.975        19     1.416     0.737 -33.60   0
       645    754.6761     39.5833 307.6227108  +6.6661011      636.577     902.8669     1527.906     77.77091     155.9153     312.1102      1.546     3.99     832.9637     55.03638     100.4992         7     0.978     0.470 -10.07   0
       646    530.4763     38.3630 307.7158978  +6.6591727     1273.504     1750.461     1944.814     78.14391     156.2258     312.2654      1.509     4.14     834.6204     55.03638     220.8997        12     1.261     0.691 -31.65   0
       647     61.5007     37.4973 307.9107581  +6.6439273      3462.49     4960.307     4943.799     78.26785     156.5976     312.0791      1.582     4.06     847.0226     55.03638     494.2252        22     1.438     0.841 -29.81   0
       648     45.7361     38.6325 307.9172690  +6.6429328     958.7347     1444.999     1063.981     78.01978     156.2258     312.2033      1.497     3.98     847.9706     55.03638     170.1161        10     1.177     0.539 -39.53   0
       649    422.9020     37.0838 307.7606326  +6.6561286     981.5089     1407.263     1718.984     78.26785     156.5357     312.2964      1.430     5.80     837.5662     55.03638     166.6738        13     1.466     0.912 -28.46   0
       650    585.3289     33.8840 307.6932586  +6.6628420     1516.591     1887.073      1768.51     78.51514     156.4118     312.2654      1.482     4.45     834.0487     55.03638     225.8476        15     1.427     0.686 -33.69   0
       651      3.8586     33.1436 307.9348502  +6.6438018     2753.831     4585.048     5111.609     78.39159      153.282     272.1982      1.721     3.92     850.3368     55.03638     424.5562        24     1.462     0.975 -35.73  24
       652    762.4937     27.8323 307.6198547  +6.6712118     2013.066     2959.108     3339.302      78.3916     156.0396     312.2964      1.597     4.32     832.5789     55.03638     326.4508        17     1.460     0.742 -36.17   0
       653    403.0988     28.0593 307.7691619  +6.6591966     1092.115     1506.711     1257.374     78.01978     156.1017     312.3585      1.508     5.66     838.9334     55.03638     169.7792        13     1.300     0.742 -27.00   0
       654     76.7457     28.6405 307.9047223  +6.6480924     865.8376     1074.136     801.3772     78.14391     156.1637     312.2343      1.364     4.43     846.0974     55.03638     132.0536         7     0.913     0.611 -23.55   0
       655    100.2910     26.9782 307.8949968  +6.6495637     982.2871     1547.009     1571.328     78.26785     155.9774     312.1102      1.444     5.37     844.8896     55.03638     138.9743        11     1.375     0.592 -33.72   0
       656    796.3502   1014.1469 307.5729305  +6.2650849     11517.34     21297.11     22936.09     78.39159     156.1017     312.2654      1.984     4.60     865.1807     55.03638     1326.667        53     1.820     1.302 -31.99  16
       657    418.3788     21.3810 307.7630373  +6.6624617     2870.858     4154.726     3934.808     78.01978     156.1017     312.1723      1.566     3.99     838.4153     55.03638     462.7645        21     1.438     0.782 -34.74   0
       658    240.2325     20.7973 307.8370674  +6.6567777     622.2301     892.0479     1000.807     77.52124     155.9774     311.9859      1.273     2.66     843.7908     55.03638     136.2294         6     0.721     0.616   5.01   0
       659    579.8110   1005.1505 307.6631245  +6.2616297     140659.8     240784.5     258302.9     77.64618     156.0396     311.9238      1.826     4.20      868.392     55.03638     16967.32       108     1.830     1.287 -31.36   3
       660    256.1789     15.6336 307.8306156  +6.6594404     1584.076     2302.557     2783.354     77.77091     155.9774      312.048      1.551     3.64     843.7676     55.03638     225.4962        15     1.261     0.712 -29.64   0
       661    581.5824    997.9106 307.6626307  +6.2646778     66550.71     112578.7     120064.7     78.01978     155.9153     312.1412      1.816     4.15     868.1412     55.03638     7867.132        74     1.782     1.218 -28.40   3
       662    213.7098   1008.1478 307.8150023  +6.2482355     3492.618     5970.803     6569.947     78.26785     155.9774     312.3585      1.844     4.51     863.0745     55.03638     415.2488        32     1.587     1.151 -21.30   0
       663    396.4696   1008.3719 307.7391277  +6.2542171     722.1357     1187.401     771.1863     78.01978     156.1637     312.1412      1.591     4.83     867.4539     55.03638     93.11688         6     1.359     0.487 -41.48   0
       664    755.1714   1006.8406 307.5902689  +6.2667394     627.4275     1195.459     908.2708     77.89544     155.9153     312.0791      2.078     5.68     865.3154     55.03638     106.2814         9     1.876     0.484 -23.19   0
       665    961.2869   1004.4139 307.5047810  +6.2745546     570.8944     988.2787     1032.561     77.89545     155.9774     312.1412      1.882     5.68     860.5185     55.03638     107.7401         5     1.242     0.732  50.59   0
       666    790.7755   1001.9440 307.5756511  +6.2699391     5787.575     10597.78      11364.4     77.89544     156.1637      312.048      1.946     4.44     864.9265     55.03638     710.0726        40     1.723     1.206 -25.21   0
       667    888.7039    998.4896 307.5351110  +6.2746031     1314.231      2377.97     2175.349     78.26785     156.5357     312.2343      1.848     5.75     862.3845     55.03638     180.5303        22     1.629     0.980 -28.82   0
       668    211.2636    997.6009 307.8163709  +6.2525088      1907.97     3135.295     3634.565     77.52124     155.9153     311.9859      1.775     5.68     862.7532     55.03638     245.5798        22     1.671     0.867 -32.73   0
       669    714.5441    994.4683 307.6075473  +6.2705033     6631.734     11208.89     11835.26      78.3916     156.0396     312.1723      1.857     4.33     865.4479     55.03638     804.9338        38     1.666     1.126 -31.67   0
       670    429.4423    994.7257 307.7258958  +6.2609462     3637.776     6022.208     6736.729     78.14391     156.2258     312.2654      1.826     4.11     867.7986     55.03638     497.2729        24     1.544     0.916 -38.74   0
       671    570.6504    993.6040 307.6673126  +6.2660936     3714.815     6404.096     7601.344     77.64618     155.9153     311.8616      1.891     4.23     867.9951     55.03638     430.9122        30     1.522     1.220 -31.82   0
       672    706.8094    993.8201 307.6107799  +6.2705149      1167.45     1887.864     2098.478     77.89544     155.8531      312.048      1.758     4.58     865.4858     55.03638      152.329        17     1.309     0.934 -37.81   0
       673    747.2745    989.5491 307.5941232  +6.2736177     957.8651     2018.989     2302.476     78.26785     156.2258     312.2654      2.181     7.45     865.1872     55.03638     117.6015        18     1.535     1.011 -19.44   0
       674    954.1600    983.7899 307.5084252  +6.2828349     5239.511     10381.61     11179.48     77.64618     155.9774     311.9859      2.035     4.82     860.5571     55.03638     591.8774        46     1.821     1.330 -25.46   0
       675    713.8058    981.9328 307.6082714  +6.2756548     2444.646     4500.958     5814.898     77.77091     155.8531      312.048      2.346     7.49     865.3763     55.03638        332.1        36     2.391     1.098 -31.31   2
