#   1 NUMBER                 Running object number                                     
#   2 X_IMAGE                Object position along x                                    [pixel]
#   3 Y_IMAGE                Object position along y                                    [pixel]
#   4 ALPHA_J2000            Right ascension of barycenter (J2000)                      [deg]
#   5 DELTA_J2000            Declination of barycenter (J2000)                          [deg]
#   6 FLUX_APER              Flux vector within fixed circular aperture(s)              [count]
#   9 FLUXERR_APER           RMS error vector for aperture flux(es)                     [count]
#  12 FLUX_RADIUS            Fraction-of-light radii                                    [pixel]
#  13 FWHM_IMAGE             FWHM assuming a gaussian core                              [pixel]
#  14 BACKGROUND             Background at centroid position                            [count]
#  15 THRESHOLD              Detection threshold above background                       [count]
#  16 FLUX_MAX               Peak flux above background                                 [count]
#  17 ISOAREA_IMAGE          Isophotal area above Analysis threshold                    [pixel**2]
#  18 A_IMAGE                Profile RMS along major axis                               [pixel]
#  19 B_IMAGE                Profile RMS along minor axis                               [pixel]
#  20 THETA_IMAGE            Position angle (CCW/x)                                     [deg]
#  21 FLAGS                  Extraction flags                                          
         1     12.3959     87.4525 307.9359676  +6.6321739     729915.2      1761581      1978051     78.30048     157.2291     314.4896      2.378     6.39     860.8936     55.50015     61827.99       500     2.477     1.879 -52.16  28
         2    103.2952     48.2859 307.8995287  +6.6514102     8092.217     14628.16     15374.47     78.92739     157.8548      314.928      1.918     4.67     854.3229     55.50015     973.6708        45     1.755     1.197 -43.28   0
         3    189.4235     14.4813 307.8648882  +6.6682689     9203.268     16079.64     17298.33     78.67722     157.1664     314.7715      1.889     4.68     853.1111     55.50015     1135.889        43     1.709     1.156 -44.52   0
         4      2.6198     14.9516 307.9424755  +6.6617858      831.931     1426.208     1526.169     78.42625     142.9105     257.0226      1.810     6.51      855.436     55.50015      103.313        13     1.428     0.833 -54.46  24
         5    935.0826     12.1591 307.5551763  +6.6942106     3556.871     5910.758     6206.946     78.92739     157.4797     314.8028      1.840     4.48     834.7845     55.50015     478.2292        30     1.689     0.988 -52.77   0
         6    533.9099     12.6244 307.7218352  +6.6806016      2567.33      4192.92     4766.899     79.05218     157.2918     314.7089      1.752     4.44     839.8298     55.50015     329.9313        22     1.428     0.965 -46.66   0
         7    471.9550     11.0420 307.7476278  +6.6791780     1643.172      2923.51     3075.123     78.80241     157.4797     314.7089      1.891     5.26     841.3193     55.50015     210.2139        21     1.491     1.002 -49.06   0
         8    735.8634     10.8825 307.6379893  +6.6880821     1832.623     3034.002     2797.489     79.05218     157.4797     314.8654      1.704     4.58     837.5389     55.50015     275.2396        19     1.503     0.799 -45.38   0
         9    999.8399      8.4768 307.5283941  +6.6978919     1855.178     3093.506     3147.247     78.80241     157.4797     314.8968      1.826     4.87     827.9086     55.50015     238.0665        21     1.603     0.879 -49.01  16
        10    719.2684      4.9653 307.6450823  +6.6899709     6610.912     11261.04     11530.66     78.80241     157.5423     287.8484      1.809     4.59     837.6168     55.50015     944.5591        38     1.685     1.056 -47.70  24
        11    639.3544      4.2679 307.6783075  +6.6875847     3310.587     5704.845     6334.664     78.92739     156.7897     279.6503      1.879     4.70     838.4493     55.50015     407.4832        29     1.549     1.030 -41.37  16
        12    341.5823      3.4835 307.8020455  +6.6779245     852.8619     1660.593     1882.386     78.55184     151.3517     269.2347      2.007     6.41      849.251     55.50015     135.9594        12     1.575     0.732 -47.92  24
        13    676.4742      4.0249 307.6628936  +6.6889275     1743.611     1648.964     1807.498     78.55184     155.4639     276.5668      0.669     2.50     838.1481     55.50015     747.6895         5     0.507     0.370  14.26  16
        14    438.9965      1.6571 307.7616360  +6.6819485     3530.138     4932.293     5162.188     72.27817     129.9036     241.8075      1.382     3.74     842.7734     55.50015      661.854        21     1.445     0.780  -7.35  24
        15    395.7043      2.5111 307.7795931  +6.6801431      650.608     799.0964     583.8398     78.92739     141.6635     255.4454      1.398     3.34     845.3503     55.50015      119.126         5     0.765     0.422 -24.78  16
        16     39.6635      1.5706 307.9275383  +6.6685599      3989.62     5101.388     5139.768     71.45524     128.6072     240.7044      1.215     3.17     853.8615     55.50015     805.2465        17     1.243     0.694  -7.48  24
        17    821.5435    995.4645 307.5694530  +6.2843028     1072.526     1737.934     1747.812     79.05218     157.4171     314.8654      1.723     5.64     869.0778     55.50015     147.6591        11     1.012     0.887 -30.46   0
        18    990.7300   1023.2596 307.4982879  +6.2784677     465.8511     789.6886     1152.977     73.49529     131.1871     243.5135      1.698     3.85     865.6453     55.50015     72.52795         5     1.348     0.316 -30.79  24
        19    760.6724   1022.3813 307.5938229  +6.2711526     724.4731     1102.772     1649.878     78.55184     142.7034     257.2143      1.810     5.39     870.2175     55.50015      89.7652         9     1.346     0.610 -54.98  24
        20    727.8262   1021.2472 307.6074964  +6.2705233      6234.28     11100.99     12132.69     78.55184     153.6783     272.8351      1.886     4.42     870.1218     55.50015     732.2534        40     1.722     1.128 -43.46  24
        21    595.2719   1023.2673 307.6624558  +6.2652558     40455.21     52105.82     54972.08     73.36105     131.1871     243.4326      1.274     3.27     874.1222     55.50015     7638.038        48     1.490     0.925  -4.55  24
        22    442.5747   1021.3966 307.7259063  +6.2609145     3544.055     6031.285     6637.635     78.42626     152.3901     270.8771      1.849     4.82     874.7322     55.50015     442.5767        29     1.652     0.979 -47.93  24
        23    430.7408    995.7908 307.7316781  +6.2710932     777.7963     1266.745     1497.281     78.30048     157.3544     314.5836      1.659     4.63     874.5328     55.50015     145.9809         8     1.307     0.465 -48.83   0
        24      3.6071    995.8610 307.9089834  +6.2567169     730.6958     1133.937     1735.909     78.30048      152.584     270.8771      1.671     4.68     871.4938     55.50015     99.50574         8     1.075     0.578 -36.04  16
        25    277.4992    992.6246 307.7953981  +6.2672603     846.9999     1585.167     1676.988     79.05218     157.2291     314.6776      1.907     5.72     874.4615     55.50015     115.3922        11     1.365     0.675 -54.05   0
        26    921.7898    989.4603 307.5280365  +6.2901284     7206.497     13529.93     14993.54     78.30048     157.3544     314.5836      2.004     4.52     867.1802     55.50015     767.1606        50     1.812     1.289 -43.18   0
        27    553.2094    988.6930 307.6810758  +6.2781274     7327.855     12719.62      13560.7     78.55184     157.1037     314.6776      1.847     4.66     873.2308     55.50015     1052.045        36     1.680     1.052 -47.04   0
        28   1017.3977    984.9832 307.4884940  +6.2951655     3893.291     7612.893     8085.297     78.55184     157.0409     311.2762      2.049     4.82     863.7639     55.50015     422.8516        39     1.721     1.296 -34.61  16
        29    895.5372    985.5875 307.5390647  +6.2908521     10336.42     18947.16     20315.77     78.42626     157.2918     314.6462      1.983     4.41     867.3812     55.50015     1148.328        57     1.851     1.324 -36.56   0
        30    608.2433    985.7402 307.6583282  +6.2811890     1244.952     2217.982      2267.96     78.80241     157.4797     314.9906      1.814     6.26     873.0477     55.50015     167.4982        14     1.436     0.766 -44.68   0
        31    539.4545    984.4268 307.6869289  +6.2794288     3729.993     6241.284     7472.935     78.55184     157.5423     314.7089      1.932     4.69     873.2125     55.50015     490.4523        28     1.575     0.994 -43.40   0
        32    649.1223    983.9559 307.6414174  +6.2832936     1275.261     2276.492     2539.013     78.80241     157.4797     314.8654      2.009     5.93     871.4585     55.50015     158.4037        19     1.529     0.921 -45.68   0
        33     74.7624    982.9279 307.8798825  +6.2644524      796.347      1461.66     1585.974     78.80241     157.4797      314.928      2.171     6.97     872.2273     55.50015     135.1472        11     1.532     0.890 -44.51   0
        34    492.9630    980.9390 307.7063461  +6.2793122     1830.531      3204.35      3242.75     78.92739     157.5423     314.8654      1.795     5.01     873.2906     55.50015     252.4401        21     1.588     0.858 -43.89   0
        35    927.2043    973.1681 307.5263327  +6.2970380     35886.98     66835.38     73232.74     78.30048     157.3544     314.6462      1.999     4.53     866.5319     55.50015     4251.869        87     1.892     1.411 -45.86   0
        36    234.1963    971.4195 307.8140868  +6.2745640     1596.063     2608.353     2763.753     78.55184     157.0409     314.6776      1.720     4.65     873.5261     55.50015     222.7433        19     1.484     0.925 -39.53   0
        37      1.4182    971.9913 307.9106964  +6.2665012     1630.255     2165.248     2645.354     69.78027     126.2089     238.1519      1.303     3.28     871.3848     55.50015     377.9513        11     1.177     0.545 -85.00  24
        38    633.2091    969.6571 307.6485026  +6.2886668     832.6061     1148.137     781.1075     78.30048     157.4171     314.5836      1.612     5.24      871.683     55.50015     114.3665        10     1.139     0.681 -38.94   0
        39    123.0891    969.5843 307.8602709  +6.2715884     557.4434     1236.794     1555.046     78.67722     157.2291     314.7089      2.050     3.45     872.4775     55.50015     98.68158         5     0.763     0.450 -19.12   0
        40    825.1417    966.7541 307.5689189  +6.2962807      1967.23     3256.334     3295.846     78.92739     157.4797     314.9594      1.781     4.47     868.2134     55.50015     243.6801        20     1.381     1.012 -50.40   0
        41    773.4378    964.7455 307.5904511  +6.2953834     5772.706     10231.45      11365.9     78.92739     157.5423     314.8968      1.957     4.59      868.998     55.50015     734.2072        41     1.729     1.210 -50.68   0
        42    560.1886    963.6245 307.6790187  +6.2887145     774.5978     1159.007     1165.481     78.55184     157.2918     314.8028      1.654     5.96     872.8515     55.50015     117.6385        11     1.258     0.921 -47.14   0
        43    242.7837    963.5444 307.8107867  +6.2781048     1328.274     2150.985     2304.133     78.30048     157.4171     314.6149      1.729     5.46     873.5438     55.50015     178.9456        13     1.353     0.622 -44.76   0
        44    207.5244    963.1913 307.8254355  +6.2770663     761.8188     1271.569     843.9885     78.55184     156.9781     314.6462      1.823     5.38      873.206     55.50015     91.58331         9     1.256     0.649 -36.64   0
        45    961.5520    959.9335 307.5125148  +6.3036497     5673.421     10622.77     11218.27     78.80241     157.4171     314.8654      1.981     4.47     864.9849     55.50015     675.7498        40     1.678     1.224 -45.40   0
        46     67.5432    961.8515 307.8835891  +6.2729139     2204.596     3900.894     4477.543     78.92739     157.4797     314.8654      1.944     4.92     871.8052     55.50015     252.7609        28     1.733     1.000 -39.40   0
        47    643.8604    954.2246 307.6445975  +6.2953969     639.9767     1369.124     1267.386     78.55184     157.4797     314.7402      2.043     6.82     870.9102     55.50015     89.02173        10     1.433     0.912 -36.85   0
        48    935.3345    951.7672 307.5236720  +6.3061481     1657.391     3057.522     3383.169     78.80241     157.5423     314.8341      1.994     5.80      865.526     55.50015     193.0496        23     1.640     0.994 -55.12   0
        49    268.2392    947.5375 307.8007576  +6.2855704     3837.057     6573.309     7169.489     78.92739     157.4797      314.928      1.870     5.12     873.5509     55.50015     458.5075        33     1.655     1.054 -42.31   0
        50    794.7065    948.2426 307.5821732  +6.3029098     1216.948     2244.614     2627.968     79.05218     157.4171     314.9906      2.052     5.07     868.0896     55.50015     144.1067        19     1.558     0.842 -39.47   0
        51    656.0355    947.4282 307.6397706  +6.2986111     3954.899     6868.084     6859.375     78.55184     157.2291     314.6776      1.846     4.57     870.3941     55.50015     517.8894        32     1.583     1.083 -41.41   0
        52    478.5381    945.7651 307.7135142  +6.2933559     998.8569         1541     1264.387     78.80241     157.4797     314.8341      1.796     6.35     872.9286     55.50015     149.8757        13     1.481     0.764 -49.94   0
        53     36.9627    944.9685 307.8968521  +6.2788576     1921.083     3222.254     3580.253     78.55184     157.2291     314.6776      1.809     4.88     871.4249     55.50015     218.1859        19     1.454     0.833 -46.88   0
        54    887.5781    944.3163 307.5437477  +6.3076321     860.8032     1093.763     1270.036     78.67722     157.1664     314.7402      1.518     5.80     866.5422     55.50015     105.1157        12     1.075     0.881 -22.05   0
        55    980.3721    941.7903 307.5053070  +6.3117707     561.0441     943.6627     780.8113     78.55184     157.2918     314.7402      1.659     3.87     863.9415     55.50015     78.54486         6     1.203     0.357 -29.12   0
        56    959.1846    941.2582 307.5141212  +6.3112840     613.6069     1044.691     1035.476     78.30048     157.4171     314.6149      1.764     5.53     864.4783     55.50015     86.74567         7     1.442     0.597 -37.38   0
        57    580.6664    939.8885 307.6713128  +6.2992032     1470.989      2509.96     2666.716     78.92739     157.6673     314.8341      1.794     5.12     872.0729     55.50015     216.2125        18     1.565     0.778 -48.76   0
        58    304.6859    940.9766 307.7858479  +6.2895035     809.7104     1406.051     1900.627     78.92739     157.2918     314.7402      1.879     5.47     873.6232     55.50015     129.2571         9     1.186     0.711 -26.38   0
        59   1012.8383    938.4230 307.4919404  +6.3142437      719.735     1318.493     1309.689     78.55184     157.2291     314.6776      2.161     7.18     862.9686     55.50015     96.70697        11     1.707     0.846 -66.46  16
        60    619.8102    936.1728 307.6551867  +6.3020478     1115.274     1783.046     1217.825     78.55184     157.2918     314.7402      1.629     5.31     871.0883     55.50015     169.8876        12     1.263     0.724 -43.12   0
        61     69.7860    937.0570 307.8834931  +6.2832293      576.206     1088.947     1393.606     78.30048     157.3544     314.5522      1.951     4.42     871.3973     55.50015     90.00189         6     1.294     0.429 -35.89   0
        62    299.7608    933.8952 307.7881304  +6.2922628     1294.857     2305.583     2789.979     78.92739     157.3544     314.9906      2.023     5.23     873.4719     55.50015     180.1397        14     1.444     0.655 -47.52   0
        63    567.4686    932.1112 307.6770526  +6.3019735     540.1151     778.7538     479.6215     79.05218     157.7298     314.8341      1.559     4.73     872.2166     55.50015     101.6393         5     1.047     0.605 -19.00   0
        64    767.1927    930.2722 307.5941969  +6.3094127     668.2063     906.0963     974.8167     78.55184     157.0409     314.7715      1.488     5.05      868.356     55.50015     109.8843         8     1.245     0.580 -44.56   0
        65    904.2585    926.8141 307.5374072  +6.3154174      5801.93     10450.88     11344.42     78.30048     157.4171     314.5836      1.879     4.66     865.6309     55.50015     727.6935        38     1.742     1.104 -46.62   0
        66    440.1773    923.7855 307.7301770  +6.3011480     1710.675     3052.531     2787.318     78.67722     157.2918     314.7715      1.802     4.48      873.017     55.50015     278.7243        23     1.532     0.996 -32.01   0
        67    341.7962    922.2299 307.7710718  +6.2984912     8499.033     14412.16     15326.08     78.42625     157.3544     314.7089      1.807     4.68     873.3292     55.50015     1063.731        41     1.751     1.033 -43.62   0
        68    261.9139    921.1044 307.8042720  +6.2962748     6507.478     11083.85     11730.07     78.92739     157.8548      314.928      1.818     4.70     873.1706     55.50015     836.4694        39     1.721     1.060 -48.23   0
        69    590.1099    915.4230 307.6682121  +6.3096237     1065.667      1671.99     1278.306     78.92739     157.2918     314.7402      1.592     5.87     871.2043     55.50015     140.9374        13     1.453     0.667 -43.61   0
        70    920.2872    911.6098 307.5312603  +6.3222319     1153.316     1816.531     1805.992     78.55184     157.1664     314.7089      1.669     5.14      864.845     55.50015      144.037        18     1.420     0.867 -22.29   0
        71    418.5819    909.5635 307.7396197  +6.3062978       615.08     1065.494     1061.624     78.42626     157.2918     314.6462      1.860     5.26     872.9614     55.50015     97.44916         7     0.926     0.843 -36.84   0
        72    756.2350    904.5278 307.5996074  +6.3196793      1523.92     2746.182     2818.625     78.80241     157.4797     314.8654      1.956     5.45      868.045     55.50015     235.4081        21     1.470     1.119 -47.69   0
        73    580.1739    905.3038 307.6726763  +6.3134705     551.3505     822.6538     614.6147     79.05218     157.2291     314.7402      1.667     4.55     871.1854     55.50015     78.95117         5     1.328     0.443 -59.66   0
        74    631.8315    901.5684 307.6513550  +6.3167420     536.4684     931.0646     824.2947     78.42625     157.2291     314.6149      1.787     3.38     869.9785     55.50015     96.70575         5     0.822     0.673 -61.59   0
        75      6.8383    901.5807 307.9108194  +6.2957625      696.014      1322.59     1312.939     78.55184     157.2918     305.9423      1.879     4.45     870.8531     55.50015     107.9615         7     1.207     0.467 -39.72  16
        76    987.5983    900.7353 307.5036772  +6.3289681     979.3942     1808.184     2086.532     78.30048     157.2291     314.6462      1.876     6.12     862.3149     55.50015     111.8023        13     1.562     0.674 -20.68   0
        77    541.5917    900.2887 307.6888623  +6.3142500     1148.178     1772.163      1241.47     78.55184     157.1664     314.6149      1.682     3.73     872.0002     55.50015     196.9193        13     1.242     0.714 -52.09   0
        78    674.7459    898.2061 307.6336509  +6.3195661     2062.104     3739.535     3715.208     78.42625     157.2291     314.5836      1.862     4.84      869.292     55.50015     275.7286        25     1.608     0.978 -44.43   0
        79     71.5420    894.2650 307.8842054  +6.3009611      2575.98     4400.795     4256.943     79.05218     157.4171     314.8968      1.835     4.94     870.7318     55.50015     362.4694        29     1.746     1.028 -67.99   0
        80     88.9306    893.7803 307.8770032  +6.3017462     1661.145     2714.768     2927.229     78.55184     157.3544     314.8028      1.830     6.43     870.7318     55.50015     231.3774        16     1.517     0.766 -49.06   0
        81    835.8187    894.5306 307.5669005  +6.3264666     660.3962     1079.887     1544.861     78.55184     157.3544     314.8028      2.096     5.09     866.5281     55.50015     128.3593         8     1.634     0.448 -47.66   0
        82    215.0220    893.4335 307.8246693  +6.3061280     1977.859     3363.836     3385.362     78.42625     157.2918     314.6462      1.750     5.25     872.6318     55.50015     238.1872        21     1.526     0.902 -48.16   0
        83    353.5171    889.2822 307.7673126  +6.3124919     791.1277     1227.024      1489.41     78.67722     157.7298     314.9594      1.760     5.37     872.6292     55.50015      124.772         9     1.437     0.567 -32.32   0
        84    249.4819    889.9118 307.8104818  +6.3087399      694.376       1169.1     817.6439     78.67722     157.6673     314.9594      1.827     5.39     872.9696     55.50015     124.5297         8     1.277     0.641 -51.84   0
        85    669.5930    887.2959 307.6361556  +6.3238998     6186.301     10281.14     10943.54     78.67722     157.1037     314.6776      1.819     4.50     869.2623     55.50015     793.8718        38     1.683     1.079 -44.42   0
        86    807.2430    887.5392 307.5789983  +6.3283999     662.2197     1071.995      1069.15     78.92739     157.4797     314.9906      1.570     5.79     866.9119     55.50015     81.28546         7     1.286     0.733 -26.79   0
        87     29.4690    885.6783 307.9019607  +6.3030917     1036.039     1652.017     1816.036     79.05218     157.7298     314.8341      1.778     6.26     870.6105     55.50015     132.2276        17     1.650     0.777 -46.64   0
        88    907.4520    883.5695 307.5375259  +6.3333847     2635.103     4156.239     3888.708     78.80241     157.6048     314.8028      1.677     4.39     864.7109     55.50015     343.2973        21     1.495     0.908 -34.49   0
        89     42.9696    883.7191 307.8964221  +6.3043552     828.8935     1509.057      1597.72     78.80241     157.3544     314.8341      2.037     7.05     870.5801     55.50015     132.3413        13     1.690     0.825 -59.47   0
        90    352.5392    880.4509 307.7680152  +6.3161065     14997.13     24801.71     27150.01     78.92739     157.4171     314.8654      1.851     4.56     872.4404     55.50015     1918.793        56     1.805     1.138 -42.95   0
        91     87.3674    881.1375 307.8780779  +6.3069150     1076.707     1881.055     2299.873     78.67722     157.5423     314.8028      1.808     5.96     870.5346     55.50015     157.3397        14     1.583     0.632 -50.84   0
        92    223.6434    880.0298 307.8215409  +6.3119533     1005.909     1742.881      1354.01     78.55184     157.4797     314.7402      1.751     6.00     872.6672     55.50015     159.5481        13     1.420     0.712 -47.42   0
        93    402.9701    879.6332 307.7471058  +6.3181357     464.0836     620.3481     71.74588     78.42625     157.2291     314.5836      1.527     3.90     872.4169     55.50015     83.60425         5     1.355     0.322 -50.48   0
        94    682.3752    872.1548 307.6313557  +6.3305807     647.9513     852.4058     838.9887     78.42625     157.4797     314.7402      1.353     3.41     868.8448     55.50015     93.97351         5     0.749     0.449  72.49   0
        95    430.2873    871.3543 307.7360426  +6.3224708     991.2264      1740.68     2036.217     78.92739     157.3544     314.8654      1.985     5.70     872.1041     55.50015     153.8608        11     1.494     0.613 -35.09   0
        96    115.7983    871.0504 307.8666147  +6.3120372     1462.879     2782.365     2632.243     78.30048     157.1037     314.4582      1.897     5.51     870.7275     55.50015     215.9048        21     1.604     0.915 -43.78   0
        97    511.7990    867.4830 307.7023313  +6.3268012     501.1596     718.7112     640.7142     78.17449     157.0409     314.5836      1.348     3.19     871.3478     55.50015     89.21594         4     1.102     0.269 -73.85   2
        98    897.7073    865.3939 307.5421790  +6.3405664     1717.668     3231.499     3473.417     78.55184     157.1664     314.6776      1.950     5.18     864.5527     55.50015     245.3414        22     1.551     0.973 -48.87   0
        99    868.2600    864.7487 307.5544268  +6.3398501     1885.626     3259.381     2719.512     78.92739     157.4171     314.8654      1.833     4.82     865.2331     55.50015     261.3152        22     1.513     0.976 -55.84   0
       100    831.8233    864.1805 307.5695739  +6.3388682     2521.057     4353.744     4655.288     78.67722     157.3544     314.8028      1.872     4.82     866.0828     55.50015     303.8625        21     1.523     0.870 -42.87   0
       101     99.2171    864.5259 307.8737180  +6.3141741     2175.397     3989.386     4291.709     78.42626     157.2291     314.7402      2.091     4.50     870.3277     55.50015      344.251        27     1.589     1.019 -49.26   0
       102    567.6268    855.7177 307.6795475  +6.3335300     300967.6     503160.1     539437.8     78.80241     157.2918     314.8028      1.826     4.76     870.0247     55.50015     40084.55       191     1.929     1.366 -46.28   0
       103    411.8757    858.2278 307.7441271  +6.3272748     6887.878     11616.88     12524.46     78.80241     157.4797     314.8341      1.810     4.58      871.892     55.50015     841.7325        37     1.704     1.014 -46.56   0
       104    355.0617    856.6055 307.7677689  +6.3260393     11089.14     18952.73      20659.9     78.30048     157.2918     314.6462      1.840     4.55     872.0098     55.50015     1479.583        49     1.771     1.111 -42.63   0
       105    655.5830    858.4932 307.6429367  +6.3353271     1170.642     1728.833     1796.688     78.67722     157.2918     314.7402      1.548     5.21     868.8345     55.50015      161.056        14     1.297     0.763 -46.15   0
       106    673.4825    852.9487 307.6356908  +6.3382157     3226.815     5154.736     5499.681     78.92739     157.4797      314.928      1.740     4.52     868.5988     55.50015     420.2184        28     1.674     0.926 -48.33   0
       107    905.7253    851.8888 307.5393011  +6.3464118      4343.76     7977.307     9284.854     78.92739     157.7923     314.9594      2.072     5.20     864.0062     55.50015     586.4925        43     1.985     1.239 -23.58   0
       108    744.9229    850.0493 307.6061267  +6.3418017     654.1777     1118.885     987.8492     78.80241     157.5423     314.8654      1.696     4.57     866.8089     55.50015     105.3703         7     1.420     0.418 -32.05   0
       109    648.1838    847.0902 307.6463907  +6.3397891     2984.065     5033.464      5175.77     78.67722     157.2291     314.7089      1.795     4.71     868.4684     55.50015     410.8279        28     1.632     1.057 -38.89   0
       110    836.7451    846.3867 307.5681253  +6.3463817      1397.17     2342.223     2650.237     78.30048     157.4171     314.6149      1.737     5.03     865.3984     55.50015     197.8413        16     1.441     0.773 -50.95   0
       111    640.5317    842.8951 307.6497083  +6.3412657     1751.357     3871.501     4614.636     78.80241     157.5423     314.8968      2.509     9.70     868.3538     55.50015     252.8396        34     2.834     0.926 -56.95   0
       112    964.0696    844.8781 307.5153108  +6.3512536     605.7061     1249.974     1135.904     79.17677     157.7298     314.8341      1.964     5.96     861.6914     55.50015     88.90216         9     1.621     0.617 -36.61   0
       113    924.8218    839.6588 307.5317808  +6.3521001      2776.61     5018.066     5497.358     78.55184     157.4171     314.7089      1.908     4.36     863.1757     55.50015     348.2206        32     1.586     1.141 -48.36   0
       114    335.0816    840.5110 307.7766047  +6.3320160      890.845     1408.289     1250.602     78.67722     157.6673     314.9594      1.741     6.19     872.0643     55.50015     130.6498        11     1.463     0.736 -61.40   0
       115    382.8687    835.6443 307.7569283  +6.3356291     2327.565     4021.422     4817.052     78.92739     157.4171     314.8968      2.046     5.05     871.4397     55.50015     297.5995        23     1.619     0.849 -35.26   0
       116    519.3272    825.2729 307.7006214  +6.3444864     2828.366     4354.201     4378.499     79.17677     157.6048     314.8968      1.660     4.88     869.2043     55.50015      356.705        21     1.481     0.818 -43.10   0
       117    864.2433    824.3680 307.5574441  +6.3563939     871.5422     1317.248      1786.18     78.42626     157.4797     314.7089      1.649     4.27     864.3835     55.50015     145.8754         9     1.124     0.546 -60.90   0
       118    566.1158    821.4170 307.6813246  +6.3476458     5579.106     9560.226     10994.35     78.55184     157.1664     314.8028      1.904     4.73     868.4221     55.50015     800.4421        33     1.684     0.983 -44.49   0
       119    584.5060    823.0092 307.6736358  +6.3476039     648.9031     862.9158     1355.365     78.55184     157.1037     314.6776      1.801     4.57     868.2064     55.50015     130.2314         6     1.354     0.439 -35.36   0
       120    572.9105    820.9843 307.6785180  +6.3480520     1069.598     1869.192     2770.039     78.67722     157.2918     314.7089      2.356     6.47     868.3123     55.50015     152.9324        14     1.523     0.773 -43.34   1
       121    483.9151    820.2425 307.7154928  +6.3453777      1363.82     2312.123     2023.442     78.92739     157.3544     314.8654      1.836     4.67     869.2819     55.50015     179.0324        16     1.419     0.807 -53.10   0
       122    901.3602    819.4953 307.5421958  +6.3596452      1278.64     1975.389     2279.487     78.92739     157.3544     314.9906      1.940     5.44     863.2231     55.50015     189.8282        13     1.238     0.829 -40.18   0
       123    702.0518    818.6309 307.6249781  +6.3533447     704.5947     1162.081     926.1747     78.80241     157.6048     314.8028      1.774     5.84     867.0123     55.50015     106.2608        10     1.241     0.773 -61.26   0
       124    125.8319    819.1056 307.8641981  +6.3338274     1070.451     2148.973     2035.977     79.05218     157.2918     314.9594      1.965     6.42     870.1128     55.50015     157.4413        15     1.468     0.787 -47.36   0
       125    536.7536    815.3396 307.6937193  +6.3491727     17622.55     29411.94     31099.85     78.80241     157.4797      314.928      1.801     4.68     868.5065     55.50015     2253.047        52     1.751     1.117 -43.64   0
       126    377.7760    816.6931 307.7596791  +6.3432852     698.1044     1102.631     1091.337     79.05218     157.2291     314.7089      1.818     6.07     871.0704     55.50015     90.61206        10     1.444     0.716 -38.52   0
       127    950.4962    813.6012 307.5219909  +6.3637188     3292.549     5824.212     6110.671     78.42626     157.1664     314.4896      1.889     4.52      861.526     55.50015     409.6801        31     1.640     1.071 -41.83   0
       128    183.0553    814.8408 307.8405845  +6.3375124     660.7474     1082.458     1093.873     78.80241     157.4797     314.8968      1.675     4.65     870.7997     55.50015     105.4879         7     0.865     0.708 -52.06   0
       129     70.5075    811.5220 307.8874221  +6.3350986     625.2462     1072.212     798.9527     78.67722     157.6673     314.8968      1.780     5.95     869.9877     55.50015     88.48901         9     1.487     0.670 -24.26   0
       130     47.2720    805.7582 307.8972628  +6.3366971     1411.863     2266.566     1961.452     78.80241     157.4797     314.8968      1.743     6.76     870.1564     55.50015     183.7755        17     1.470     0.872 -49.13   0
       131    329.3840    804.0369 307.7801958  +6.3468886     3021.561     5035.572      5052.31     78.55184     157.2918     314.6149      1.769     4.75     871.4904     55.50015     410.6036        26     1.581     0.933 -47.11   0
       132    794.8923    799.9650 307.5870550  +6.3641568      48538.7     82482.02     88301.68     79.05218     157.3544      314.928      1.838     4.77     864.3604     55.50015     6614.503        89     1.858     1.250 -45.37   0
       133     29.3709    801.8471 307.9048264  +6.3377099     2088.541     3629.647     4010.373     78.55184     157.6048     314.7715      1.847     5.06     870.3098     55.50015     271.3439        25     1.722     0.899 -51.91   0
       134    733.8403    801.4598 307.6123542  +6.3614993     641.5715       993.62      1190.08     78.92739     157.4797      314.928      1.693     4.56      866.463     55.50015     90.49896         8     1.336     0.442 -49.17   0
       135    251.5733    776.3932 307.8134307  +6.3556932     758034.4      1894753      2169392     78.42626     157.3544     314.6776      2.459     6.49     870.9435     55.50015     63873.41       719     2.936     2.261 -65.40   4
       136    716.8603    791.0529 307.6197528  +6.3652299     78755.28     132209.2     141831.5     78.92739     157.4171     314.8654      1.816     4.73     866.1793     55.50015     10796.45        99     1.865     1.231 -44.42   3
       137    438.3751    798.3952 307.7351336  +6.3528744     866.0767     1551.539     1815.232     78.42626     157.2291     314.7089      1.926     5.65     869.3082     55.50015     134.6039        12     1.381     0.869 -50.67   0
       138    920.1912    795.2289 307.5351876  +6.3702959     7305.095     13032.57     13553.62     78.55184     157.2918     314.6776      1.877     4.67     862.0493     55.50015     939.0175        42     1.708     1.147 -46.16   0
       139    361.7110    791.8313 307.7671841  +6.3530143     18268.09     30868.93     32585.44     79.05218     157.2918     314.8028      1.823     4.55     870.6863     55.50015     2280.314        56     1.793     1.128 -43.66   0
       140    423.6254    789.7289 307.7415485  +6.3559591     19854.49     33669.07     36422.06     78.55184     157.3544     314.8028      1.819     4.75     869.3576     55.50015     2628.938        62     1.788     1.211 -40.39   0
       141    410.8913    792.0256 307.7467584  +6.3545836     1147.899     2026.296       2382.3     79.05218     157.2291     314.7089      1.870     5.45     869.7004     55.50015     155.5305        13     1.434     0.696 -47.85   0
       142    723.1607    794.5471 307.6170198  +6.3639973     19094.82     33129.96     36109.97     78.80241     157.4797     314.8654      1.869     4.84     866.2887     55.50015     2708.864        58     1.830     1.155 -45.22   3
       143    917.0298    786.6825 307.5367858  +6.3737203     5753.441     10386.24     10958.69     78.80241     157.2918     314.8341      1.897     4.76     862.0164     55.50015     750.6724        41     1.729     1.163 -43.91   0
       144    657.6094    785.5983 307.6445368  +6.3655012     5813.221     9840.193     10833.01     78.30048     157.1664     314.6462      1.835     4.57      866.394     55.50015     759.1848        35     1.687     0.997 -44.90   0
       145    446.2724    783.6125 307.7323509  +6.3592445     1422.376     2483.938     2677.205     78.42626     157.1037     314.6776      1.835     6.87      868.693     55.50015      180.933        16     1.545     0.857 -49.22   0
       146    960.9673    788.8110 307.5184710  +6.3743068     1658.046     2911.285     3316.802     78.42625     157.2291     314.7089      1.952     4.76     860.6397     55.50015     221.0446        23     1.597     0.953 -40.55   0
       147    171.7888    782.9103 307.8463366  +6.3503209     664.5596      1226.94     1297.621     78.67722     157.1664     314.6776      1.507     4.64     870.0953     55.50015     108.8928         6     1.295     0.620 -45.20   0
       148    611.0320    777.5822 307.6641446  +6.3672535     910.3876     1201.066     993.7377     78.55184     157.2918     314.7402      1.478     4.60     866.5323     55.50015     122.3183        10     1.127     0.669 -48.98   0
       149    692.7318    775.9844 307.6302756  +6.3706466     2187.143     3538.093     3555.555     78.42625     157.4171     314.7715      1.688     5.27      865.864     55.50015       294.35        19     1.587     0.757 -44.43   0
       150    426.5345    772.3688 307.7409234  +6.3632264     48097.79     80815.84     86362.74     78.67722     157.5423     314.8028      1.833     4.60     868.6902     55.50015     6235.649        84     1.852     1.212 -44.28   0
       151    162.3399    776.0237 307.8504913  +6.3528474     863.9501     1529.999     1646.025     78.55184     157.4171     314.7402      1.895     5.13     869.8666     55.50015     141.3132         8     1.129     0.659 -48.32   0
       152    137.1335    776.0505 307.8609556  +6.3519890     993.3566     1876.472     1794.169     78.80241     157.3544     314.8654      2.078     6.20     869.7728     55.50015     142.2423        15     1.453     0.877 -54.10   0
       153    544.3212    771.4407 307.6920493  +6.3675567     6345.981     10584.38     11243.75     78.80241     157.4797     314.8654      1.821     4.97     867.0246     55.50015     834.4379        37     1.660     1.046 -44.05   0
       154    461.0251    770.0021 307.7266824  +6.3653601     3877.251     6706.841      7530.12     78.55184     157.1664     314.6776      1.916     4.94     867.9744     55.50015     505.5002        30     1.618     1.023 -41.37   0
       155    789.5499    768.0688 307.5903401  +6.3771519     10545.39      17688.3     18993.62     78.80241     157.4171     314.8654      1.815     4.67      863.603     55.50015     1312.355        44     1.658     1.119 -44.92   0
       156    457.6828    763.3590 307.7282930  +6.3679918     2105.532     3413.772      3853.01     78.92739     157.4797     314.8028      1.764     4.60     867.8268     55.50015     290.0529        22     1.592     0.830 -55.63   0
       157     18.8227    764.0554 307.9104794  +6.3529625     980.5362     1959.375     1725.578     78.55184     157.4797     314.6776      2.051     5.88      870.001     55.50015     161.2951        12     1.570     0.619 -37.43   0
       158    811.2502    762.1194 307.5815287  +6.3803340     1300.906     2023.806     2356.943     78.92739     157.5423     314.8654      1.619     4.87     863.0735     55.50015     184.5166        15     1.364     0.738 -40.65   0
       159    139.5969    750.7847 307.8607835  +6.3625065     1842.235     3348.472     4065.481     78.55184     157.1037     314.7089      1.995     5.26     869.6505     55.50015     250.4836        22     1.624     0.896 -49.94   3
       160    147.3752    759.8840 307.8572477  +6.3590100     10268.17     17525.59     19106.54     78.80241     157.2291     314.8028      1.831     4.68     869.7114     55.50015     1466.507        45     1.759     1.104 -45.66   3
       161    139.4877    757.2500 307.8606112  +6.3598326     2589.382     4690.531     5699.495     78.92739     157.2918     314.9906      2.027     5.20     869.6805     55.50015     299.6925        29     1.640     1.124 -39.43   3
       162    155.2204    760.2003 307.8539799  +6.3591431      2544.61     4395.429     4316.209     78.55184     157.1664     314.5522      1.861     5.20     869.7267     55.50015     315.9971        24     1.597     0.913 -47.14   0
       163    984.3576    756.6578 307.5098323  +6.3883666     1395.946     2350.038     3656.329     78.80241     157.4797      314.928      2.934     5.49     859.1998     55.50015     196.9181        19     1.580     0.855 -47.66   0
       164    935.0631    756.6227 307.5303021  +6.3867371     5558.514     9443.512     10014.94     78.55184     157.4797     314.7402      1.813     4.52     861.0516     55.50015     754.2338        36     1.664     1.053 -45.77   0
       165    690.6097    754.1271 307.6318886  +6.3796030     1420.288     2463.421     2432.337     78.42625     157.1037     314.7402      1.830     4.69     865.2345     55.50015     234.7357        15     1.498     0.692 -37.76   0
       166    577.5167    753.3950 307.6788712  +6.3761212     2085.969     3226.956      3347.14     78.42626     157.1037     314.5836      1.687     4.74     866.2834     55.50015     300.3265        21     1.562     0.840 -48.02   0
       167    425.1971    752.5422 307.7421443  +6.3713701     1051.017     2117.715     1853.047     78.30048     157.3544     314.6149      2.064     8.02     868.0884     55.50015     145.9053        18     1.806     0.996 -72.53   0
       168    929.2275    748.6965 307.5329900  +6.3898161     2431.116     4163.042     4395.375     79.05218     157.2291     314.8028      1.759     4.87      861.173     55.50015     330.7077        22     1.578     0.860 -47.57   0
       169    989.6274    747.9911 307.5079335  +6.3921218     1600.306     2834.552     3277.897     78.55184     157.2918     314.7402      2.007     6.10     858.7745     55.50015     222.0528        17     1.540     0.799 -46.30   0
       170    958.6976    748.2119 307.5207692  +6.3909993     2684.477     4622.004     5081.596     78.67722     157.2291     314.6462      1.891     5.15     859.9867     55.50015     319.4266        22     1.566     0.869 -42.36   0
       171    681.5364    747.7507 307.6358695  +6.3819331     1266.866     2123.655     2271.484     78.80241     157.4171      314.928      1.908     5.09     865.1818     55.50015     179.0917        16     1.433     0.831 -48.64   0
       172    828.7559    746.1387 307.5747943  +6.3875189     956.3406     1557.749     2340.387     78.92739     157.4797     314.9906      2.122     6.00     862.5891     55.50015       128.73        14     1.468     0.786 -35.63   0
       173    254.1171    742.7504 307.8135060  +6.3696731     1690.838     2907.506     3758.191     78.92739     157.4797     314.8968      2.012     4.53     870.1168     55.50015     241.3615        21     1.389     1.048 -54.44   0
       174    904.3525    743.3830 307.5434964  +6.3911807     637.7368     1125.416      1343.87     78.42626     157.4171     314.6462      1.901     4.88     861.6072     55.50015      123.373         8     1.085     0.623 -47.69   0
       175    693.3148    734.9977 307.6314059  +6.3875941     742.6448      1483.06     1912.583     78.30048     157.1037     314.5836      2.221     3.68     864.6288     55.50015     173.9012         6     1.236     0.315 -51.94   2
       176    946.5117    738.1443 307.5261655  +6.3947509     1037.614      1541.84     1299.369     78.92739     157.3544     315.0219      1.656     6.14      860.298     55.50015      124.199        13     1.325     0.801 -29.66   0
       177    920.7794    737.2843 307.5368792  +6.3942476     989.0895     1649.205     1366.908     78.67722     157.1664     314.8028      1.731     5.79     861.1703     55.50015     180.4587        12     1.418     0.667 -33.45   0
       178    274.4965    738.4087 307.8051905  +6.3721506     501.9908     795.2126     1053.971     78.67722     157.1037     314.6776      1.697     4.20     869.9514     55.50015     103.9641         5     1.266     0.397 -34.31   0
       179    973.6112    735.9124 307.5149873  +6.3965766     2032.633     3670.315     4131.864     78.55184     157.2291     314.7402      1.904     5.26     859.1641     55.50015     284.8561        23     1.606     0.978 -53.08   0
       180    170.5031    736.7388 307.8484244  +6.3693464     620.5591     716.7394     730.2324     78.67722     157.4797     314.9594      1.166     3.04     869.6469     55.50015     102.4565         5     0.727     0.454  68.27   0
       181   1015.4139    729.2256 307.4978524  +6.4007320     1575.703     2694.779     2416.271     78.67722     157.2918     314.8028      1.858     5.40     857.5582     55.50015     207.0656        21     1.552     0.994 -30.30  16
       182    816.5260    727.6025 307.5804924  +6.3947662     1178.141     1654.243     2435.158     78.42626     156.9781     314.7402      1.868     6.35     862.2806     55.50015     141.7756        15     1.338     0.845 -37.14   0
       183    642.2665    728.1833 307.6528307  +6.3887010     532.0698     775.8995     636.3506     78.42625     157.4171     314.7402      1.498     3.41      865.017     55.50015     89.96252         5     0.958     0.351 -46.91   0
       184    903.1951    724.8585 307.5445960  +6.3987930     1263.632     2389.983     2836.202     78.30048     157.3544     314.6462      2.009     5.48      861.098     55.50015     187.3936        16     1.419     0.833 -47.11   0
       185    877.5540    720.0848 307.5554027  +6.3999088     761.1187     1316.205     1239.162     78.92739     157.4171     314.8654      1.577     4.00     861.5841     55.50015     137.6813         7     1.104     0.513 -30.42   0
       186    663.4653    719.6285 307.6443150  +6.3929434     532.5444     851.8456     586.5643     78.67722     157.4797     314.8028      1.793     4.99      864.452     55.50015     78.20056         6     1.010     0.698 -16.06   0
       187    859.9944    716.4250 307.5628165  +6.4008342     1414.593     2397.126     2415.445     78.42625     157.2291     314.7089      1.830     6.37      861.881     55.50015      188.248        17     1.507     0.766 -47.49   0
       188     59.0497    715.2455 307.8954228  +6.3744745     2135.335      3729.01     3798.655     78.92739     157.3544     314.8968      1.847     5.08     869.4759     55.50015     319.9991        23     1.641     0.909 -43.89   0
       189    122.9454    715.4182 307.8688879  +6.3765527     751.8828      1547.27     1781.438     78.42625     157.4797     314.6462      2.477     4.56     869.1523     55.50015     100.4323         8     0.958     0.686 -76.85   0
       190    671.6968    703.9186 307.6414232  +6.3997071     5424.854     9148.072     9614.668     78.80241     157.7923     314.8968      1.774     4.92     863.6449     55.50015     738.2823        34     1.664     0.994 -43.02   0
       191    540.3923    703.8582 307.6959470  +6.3953372       607.39      897.361     904.8855     78.30048     157.3544     314.6462      1.630     6.01     865.6507     55.50015     85.70599         7     1.458     0.697 -35.25   0
       192    618.4791    702.8504 307.6635568  +6.3983677     1140.451     1964.121      1995.07     78.92739     157.5423     314.8654      1.781     5.85      864.754     55.50015     162.4219        12     1.363     0.708 -55.68   0
       193    134.6177    699.6674 307.8645719  +6.3834502     3344.037      5741.33     5901.858     78.42626     157.4171     314.7715      1.793     4.84     868.7047     55.50015     407.3648        30     1.677     0.995 -42.99   0
       194   1008.6588    699.2335 307.5016586  +6.4128941     2146.873      3794.86     3768.335     78.80241     157.5423     314.8341      1.896     4.99     857.8304     55.50015     285.3956        24     1.600     0.919 -38.39   0
       195    645.5084    699.6045 307.6524420  +6.4006128     1944.271     3415.289     3805.547     78.55184     157.1664     314.6462      1.898     5.22     864.0599     55.50015     248.2898        21     1.603     0.802 -42.03   0
       196    320.6860    699.9491 307.7873051  +6.3895851     662.9031     1149.321     1217.941     78.92739     157.3544      314.928      1.849     5.12     867.8553     55.50015     90.82336         8     1.272     0.584 -45.69   0
       197    788.5185    696.1111 307.5931756  +6.4068370     17845.05     30163.54      32522.7     78.67722     157.6673     314.9594      1.834     4.72     862.2233     55.50015     2276.634        58     1.798     1.124 -43.48   0
       198    257.4625    698.7250 307.8135976  +6.3879679     604.3451     815.3806     908.2286     79.17677     157.4797     314.8654      1.622     4.55     868.1211     55.50015     100.2307         5     1.305     0.451 -56.93   0
       199    918.8060    695.7751 307.5390855  +6.4113258     3134.503       5293.5     5712.021     78.42625     157.2918     314.7089      1.796     4.66     859.4952     55.50015     413.6102        26     1.605     0.929 -43.40   0
       200    515.8809    696.0599 307.7063864  +6.3977369     759.5684     1393.177     1888.751     79.05218     157.4797     314.8341      2.253     5.38     865.5766     55.50015     139.7763         9     1.391     0.586 -49.66   0
       201    487.2860    696.5070 307.7182448  +6.3965942     1214.436     2035.963     1978.866     78.80241     157.9172     314.9594      1.877     5.90     865.7056     55.50015     158.4327        14     1.342     0.731 -44.42   0
       202    333.5168    695.7904 307.7821174  +6.3917333     607.1221     1100.533     1041.025     78.55184     157.1664     314.7089      2.125     5.93     867.5605     55.50015     100.0474         7     1.175     0.843 -43.23   0
       203    289.2491    695.5913 307.8005047  +6.3903295     506.4833     878.6902     680.4872     78.42626     157.2918     314.5522      1.846     5.22     868.0723     55.50015     74.09155         5     1.291     0.596 -26.99   0
       204    668.9965    688.9749 307.6430450  +6.4057887     5974.362     10412.68     11977.39     78.42626     157.1664     314.7089      1.881     4.96      863.095     55.50015     900.2552        39     1.772     1.013 -47.39   0
       205    651.2299    689.7563 307.6503962  +6.4048716     843.5507     1821.831     2341.506     78.55184     157.4797     314.7402      2.443     8.09     863.6051     55.50015     132.6976        15     1.450     1.316  26.51   0
       206    262.0328    689.6405 307.8120054  +6.3918733     5300.844     9114.577     9698.182     78.67722     157.3544     314.7089      1.853     4.90     867.7045     55.50015      705.495        33     1.662     1.001 -47.10   0
       207    364.7820    688.5799 307.7693777  +6.3957604     571.7023     1014.816     1259.218     78.67722     157.3544     314.7715      1.910     4.78     867.0528     55.50015     93.63776         6     1.298     0.500 -50.62   0
       208    928.8742    681.6846 307.5353754  +6.4174813     1039.827     1635.488     1304.265     79.05218     157.7923      314.928      1.584     5.95     858.4878     55.50015     163.8204        13     1.489     0.668 -42.82   0
       209    740.7545    677.3208 307.6136382  +6.4130014     3206.029     5820.061     6952.695     78.92739     157.4797     314.8654      1.970     4.82     862.3854     55.50015     380.4098        29     1.555     1.133 -45.26   0
       210    696.2134    677.7850 307.6321181  +6.4113205     809.3157     1572.732     1397.884     78.80241     157.1664     314.8028      1.972     6.47     862.4954     55.50015      109.105        10     1.685     0.697 -36.15   0
       211   1007.1286    673.9883 307.5031367  +6.4232698     7671.981     13469.79     14206.72     78.42626     157.1037     314.6776      1.853     4.80     857.8837     55.50015     1058.089        42     1.664     1.159 -47.24   0
       212    945.5112    674.5175 307.5287062  +6.4209965     2010.383     3641.114     3646.761     78.67722     157.6673      314.928      1.907     5.64     858.1045     55.50015     277.3527        22     1.674     0.849 -42.18   0
       213     26.5063    673.7717 307.9103325  +6.3905074     1719.189     3033.595     3261.083     79.05218     157.2291     314.7715      1.866     5.14     869.3561     55.50015     219.1684        22     1.521     1.031 -43.56   0
       214    560.0717    672.3278 307.6888328  +6.4090186     499.7891       845.33     1027.399     79.17677     157.6048     314.8654      1.680     5.99     864.8345     55.50015     79.81854         7     1.278     0.790 -20.30   0
       215     84.4634    668.5977 307.8864428  +6.3945948     22243.05     38417.93     40918.87     78.30048     157.2291     314.6462      1.858     4.64     868.8907     55.50015     2967.426        63     1.810     1.188 -46.46   0
       216    545.8040    669.7195 307.6948448  +6.4096180     1745.558      2820.84     3134.782     78.42625     157.0409     314.5836      1.685     5.39     864.9092     55.50015     274.1647        16     1.536     0.664 -45.02   0
       217    514.7372    666.4525 307.7078545  +6.4099267     1183.623     2134.522     1768.873     78.92739     157.4171     314.8341      1.762     5.74     864.8746     55.50015     170.1006        13     1.513     0.614 -43.38   0
       218    935.9760    665.7509 307.5329586  +6.4242992     944.8328      1541.53     1374.763     78.55184     157.5423     314.7715      1.585     5.16     857.9216     55.50015     129.5913        10     1.203     0.662 -42.88   0
       219    554.9193    663.2556 307.6912765  +6.4125929     767.2865     1164.162     1724.722     79.05218     157.4797     314.8968      2.028     5.76     864.5723     55.50015     111.4172        11     1.349     0.692 -32.29   0
       220    730.3756    660.9309 307.6184966  +6.4194237       3100.7      5256.72     5617.039     78.55184     157.3544     314.8028      1.834     4.51     862.0355     55.50015     392.3348        28     1.477     1.165 -42.92   0
       221    752.5046    659.1572 307.6093668  +6.4208960     3644.382     6095.427      6152.83     78.92739     157.4171     314.9906      1.774     5.11     861.8563     55.50015     489.6701        27     1.664     0.859 -49.07   0
       222    420.0279    657.7284 307.7474742  +6.4103553     1164.098     2066.622      2363.46     78.67722     157.4171     314.7715      1.820     6.86     865.6879     55.50015     155.6385        16     1.768     0.747 -49.14   0
       223   1023.5784    656.3927 307.4968931  +6.4310855     1832.229     2449.772     2599.251     69.63888      126.365     238.1519      1.188     3.54     856.8168     55.50015     427.0144        12     1.224     0.677 -83.67  24
       224    583.9431    656.9442 307.6794362  +6.4161714     2759.077     4864.638     4968.092     79.05218     157.5423      314.928      1.794     4.93     864.0166     55.50015     370.3475        24     1.644     0.885 -40.20   0
       225    244.3506    656.5197 307.8204614  +6.4049582     1479.185      2624.56     2499.479     78.92739     157.5423     314.8654      1.834     4.23     866.4401     55.50015     240.6309        20     1.465     0.892 -38.35   0
       226    990.7072    654.2803 307.5106139  +6.4308621     6825.344     11738.15     12069.76     78.67722     157.7298      314.928      1.831     4.79     857.0684     55.50015     834.1378        37     1.687     1.059 -44.14   0
       227    328.3197    655.8233 307.7856185  +6.4080653     1257.068     1935.099      1693.87     78.55184     157.1664     314.8341      1.654     5.21     866.0147     55.50015     167.4213        15     1.353     0.750 -40.49   0
       228   1009.3264    653.9150 307.5028942  +6.4316337     4119.927     4065.624     3383.737     79.05218     157.7923     314.8968      0.593     0.86     856.8653     55.50015     2375.385         6     0.469     0.404  -3.28   0
       229    710.6515    653.1537 307.6269475  +6.4219764      782.976     1517.739     1634.164     79.05218     157.3544      314.928      2.064     4.29     861.9005     55.50015     122.6796         6     1.217     0.432 -42.69   0
       230    102.2383    650.9553 307.8796567  +6.4024790     826.2522     1394.992     1766.266     78.67722     157.4171     314.7715      1.692     5.01     868.0674     55.50015     134.3951         9     1.312     0.541 -61.83   0
       231    436.1524    648.3483 307.7410936  +6.4147700      2613.26     4580.732     5063.306     79.05218     157.3544     314.8654      1.912     5.44     865.1071     55.50015     360.4912        28     1.733     0.964 -50.65   0
       232    149.2206    647.5258 307.8602643  +6.4054755     21084.26     36008.15     37789.83     78.55184     157.3544     314.8028      1.834     4.65     867.2233     55.50015     2784.198        59     1.800     1.166 -47.47   0
       233    817.9310    647.9669 307.5825725  +6.4277038     1141.898     1794.331     1770.716     78.80241     157.4797     314.8968      1.735     5.52     860.8532     55.50015     166.7324        12     1.307     0.657 -59.10   0
       234    368.5418    642.5740 307.7693621  +6.4148871     511.7093     745.4981     269.2028     78.55184     157.4797     314.7089      1.614     3.96     865.2527     55.50015     85.01471         5     1.070     0.418 -15.51   0
       235    985.7309    637.2770 307.5132482  +6.4377189     5922.559     11040.48     12578.66     79.05218     157.6048     314.8654      2.049     4.58     856.3995     55.50015     701.7324        46     1.730     1.355 -39.88   0
       236     30.4184    636.2418 307.9099733  +6.4061386     1067.668     1634.027     1639.867     78.42626     157.2918     314.6149      1.643     6.14     869.0167     55.50015     129.0054        13     1.225     0.864 -65.66   0
       237    579.1870    632.4528 307.6822322  +6.4261273     42060.02      71568.4     76370.42     78.30048     157.4171     314.6149      1.831     4.71     863.1344     55.50015     5695.424        74     1.810     1.197 -46.15   0
       238   1001.9031    635.0575 307.5066064  +6.4391748     3150.515     3216.576      2980.08     78.80241     157.4171     315.0532      0.483     0.00      855.992     55.50015     2189.904         7     0.412     0.392  62.08   0
       239    943.8730    634.1351 307.5307355  +6.4376205     644.7574     1001.074     784.5551     79.05218     157.4797     314.8654      1.579     6.00     857.1368     55.50015     89.10089         8     1.314     0.772 -41.99   0
       240    186.6658    629.1001 307.8453364  +6.4143440     2498.463     4380.173     4562.334     78.92739     157.6048     314.8341      1.837     4.99     866.5142     55.50015     323.1719        23     1.564     0.916 -41.69   0
       241     79.5242    622.8885 307.8900337  +6.4133062     1152.087     1919.958      2029.12     78.92739     157.7923     314.9594      1.768     6.76     867.5967     55.50015     154.1294        15     1.447     0.887 -60.67   0
       242    476.4534    616.2275 307.7254370  +6.4293870     54430.74      92616.8     98706.52     78.67722     157.6048     314.7715      1.848     4.78     863.9081     55.50015     6837.821        82     1.829     1.214 -46.43   0
       243     20.1594    617.6903 307.9148584  +6.4134548     1643.719     2759.594     3105.209     78.92739     157.4797     314.8968      1.868     4.84     869.1448     55.50015     242.9052        20     1.529     0.896 -41.49   0
       244    662.2789    613.1427 307.6483747  +6.4368835     785.2755     1223.389     1497.009     78.92739     157.4797     314.8341      1.840     4.90     861.4637     55.50015     116.7914         8     1.163     0.584 -47.54   0
       245    150.9562    611.2720 307.8607643  +6.4205065     1342.168     2137.111     1980.587     78.80241     157.4797     314.8968      1.768     6.45     866.4348     55.50015     231.9991        17     1.531     0.764 -49.94   0
       246    430.0008    609.1293 307.7449650  +6.4307614     716.8466      1148.73     746.8698     78.30048     157.0409     314.6776      1.499     5.10     863.7468     55.50015      126.769         8     1.480     0.498 -59.48   0
       247    946.5314    609.1901 307.5304649  +6.4480119      599.715     1012.183     698.9995     78.42626     157.2918     314.7089      1.705     4.18     856.4625     55.50015     103.3129         7     1.114     0.448 -40.94   0
       248    622.6621    607.3405 307.6650206  +6.4379543     900.4667     1335.014     1386.878     78.92739     157.4171     314.8968      1.670     4.89     861.5892     55.50015     122.0643        10     1.217     0.757 -50.78   0
       249    321.8682    605.5475 307.7899873  +6.4286127     1865.545     3394.998     3635.861     78.80241     157.4171     314.8028      1.948     5.38     863.6925     55.50015     239.9114        23     1.658     0.959 -51.25   0
       250    474.0323    603.8041 307.7268594  +6.4344368     680.4886     1118.477     1566.059     78.17448     157.3544     314.6462      1.858     5.81     863.5573     55.50015     105.1646        11     1.515     0.628 -47.52   0
       251    748.5790    599.6877 307.6129876  +6.4453264     4736.069     7433.237     7432.542     78.92739     157.2291     314.7715      1.734     5.21     860.4313     55.50015      658.808        28     1.581     0.911 -43.79   0
       252    802.0898    595.0739 307.5909202  +6.4490201     12050.54     20418.61     21752.61     78.92739     157.7298     314.8968      1.823     4.75     859.6689     55.50015     1871.314        47     1.766     1.073 -44.07   0
       253   1020.4904    595.0699 307.5002225  +6.4563100     650.8824     1238.134     1012.558     78.80241     157.7298     282.5258      1.894     4.12     853.6628     55.50015     102.8477         6     1.009     0.480 -33.42  18
       254    544.3972    594.5745 307.6979493  +6.4406063     897.3956     2055.078     2197.023     78.55184     157.1664     314.6776      2.300     6.93     862.3327     55.50015     127.4322        15     1.665     0.808 -66.99   0
       255    626.0585    592.9777 307.6640916  +6.4439999     2481.162     4112.338     4271.068     78.55184     157.4797     314.7089      1.738     4.58     861.1962     55.50015      361.154        24     1.656     0.825 -39.79   0
       256    943.2704    589.4058 307.5324800  +6.4560743     1139.609     1964.513     2748.797     78.42626     157.1037     314.7402      2.071     5.67     855.9478     55.50015     152.7462        12     1.308     0.693 -59.10   0
       257    384.2120    587.0545 307.7647204  +6.4383425     721.8549     1126.664     1443.961     78.30048     157.4171     314.5836      1.884     4.94      862.937     55.50015     132.7613         8     1.625     0.424 -45.93   0
       258    238.1188    586.8931 307.8253914  +6.4335045     1079.756     2000.709     2594.124     78.67722     157.7298      314.928      2.113     7.50     864.8174     55.50015     143.9004        18     1.441     1.094 -48.90   0
       259    201.7549    587.8235 307.8404601  +6.4318983     510.4205     925.4443     1192.983     78.42625     157.4797     314.7402      1.391     4.52     865.5771     55.50015     70.91431         5     1.280     0.454 -60.60   0
       260    878.0955    578.3407 307.5599160  +6.4584694     2607.993     4290.204     4500.444     78.80241     157.4797     314.9594      1.743     4.67     857.2582     55.50015     361.3387        23     1.503     0.905 -46.63   0
       261    172.8898    578.1290 307.8527725  +6.4349318     600.5165     1123.871     1065.931     78.80241     157.7298     314.8654      2.217     4.87      865.801     55.50015     86.46729         6     1.125     0.596 -66.54   0
       262    836.8940    575.8136 307.5771110  +6.4581374     2224.657     3525.403     4058.975     78.67722     157.2291     314.7089      1.786     5.11     858.1837     55.50015     334.8796        22     1.469     0.902 -41.89   0
       263    807.9220    571.6920 307.5892805  +6.4588720     2121.261     4140.242     5221.925     78.67722     157.7298     314.8968      2.169     6.15     858.7205     55.50015      313.842        27     1.971     0.877 -46.21   3
       264    817.4326    566.9709 307.5854888  +6.4611396     137458.9     234502.1     251857.9     78.42625     157.2291     314.6149      1.845     4.89     858.3683     55.50015     19786.19       133     1.893     1.303 -46.63   2
       265    264.8822    570.5662 307.8148271  +6.4411465     6596.966     11405.05     11543.19     78.92739     157.4797     314.8341      1.851     4.71     863.4092     55.50015     845.7711        38     1.713     1.053 -43.94   0
       266    750.6754    571.9953 307.6130439  +6.4568338     585.0721     975.4948     1790.004     78.55184     156.9781     314.7715      1.954     5.20     859.6583     55.50015     77.36639         6     1.290     0.592 -30.39   0
       267    199.0450    565.1465 307.8423486  +6.4411727     49923.49     87191.52     95664.59     78.92739     157.4797     314.8968      1.898     4.75     865.0114     55.50015     6433.057       100     1.937     1.313 -45.21   0
       268    123.1413    561.2297 307.8739995  +6.4402382     5440.089     9369.122     9634.829     78.67722     157.4797     314.7715      1.831     4.40     866.2156     55.50015     659.2455        39     1.717     1.105 -41.91   0
       269    988.4244    558.7936 307.5147505  +6.4702237     1114.269     1560.217     1482.584     78.42626     157.2918     314.7089      1.637     5.54     853.5416     55.50015     182.7754        12     1.281     0.798 -50.61   0
       270   1009.3015    557.2147 307.5061330  +6.4715719     650.0566     1046.117     985.6216     78.80241     157.2291     314.6462      1.669     4.51     852.8055     55.50015      137.147         6     1.380     0.419 -32.33   0
       271    237.0924    557.1891 307.8268170  +6.4457376     720.9482     1469.924     1509.911     78.67722     157.1664     314.7089      2.229     3.70     863.7747     55.50015     113.9392         7     0.983     0.582 -88.98   0
       272    854.1322    554.1913 307.5706752  +6.4676434      3857.41     6623.327     6823.012     78.42625     157.2291     314.7715      1.816     4.63      857.357     55.50015     535.4371        29     1.621     0.955 -47.89   0
       273    372.4552    552.3042 307.7707701  +6.4523000     14740.58     25255.68     26912.83     78.80241     157.4171     315.0845      1.857     4.56     861.6646     55.50015     1709.981        51     1.774     1.135 -46.84   0
       274    463.2240    551.7462 307.7330952  +6.4555747     633.6904     1010.427     1072.309     78.42626     157.4797     314.6776      1.745     5.23     861.5994     55.50015     110.0812         7     1.542     0.502 -40.48   0
       275    174.5586    551.0853 307.8529900  +6.4461568     1608.455     2859.649     3212.923     78.92739     157.4171     314.8341      2.135     6.53     865.3187     55.50015     216.4059        20     1.624     0.834 -31.77   0
       276    807.9335    547.6111 307.5900814  +6.4688181     5050.523     8626.343     8712.194     78.42625     157.2918     314.7402      1.779     4.85     857.9119     55.50015     706.6375        32     1.649     0.992 -47.19   0
       277    538.7482    547.2535 307.7018825  +6.4599610     5686.605     9718.971     10362.36     79.05218     157.4171     314.8968      1.843     4.77     860.5112     55.50015     707.5348        36     1.664     1.079 -40.41   0
       278    249.4306    548.4987 307.8219859  +6.4497413      758.846     1265.911     1028.816     78.92739     157.2291     314.8968      1.854     5.65     863.1038     55.50015     96.95691         9     1.399     0.643 -52.77   0
       279    112.0695    547.8953 307.8790462  +6.4453727     843.0466     1276.158     1363.291     78.80241     157.5423     314.8968      1.664     5.83     866.2616     55.50015     106.6805        12     1.188     0.821 -66.39   0
       280    397.0240    543.6262 307.7608590  +6.4567083      1142.86     2251.167     2458.711     78.42625     157.2918     314.7402      2.037     5.68     861.3681     55.50015      165.552        17     1.566     0.791 -49.37   0
       281    583.5839    540.1832 307.6835002  +6.4643827     2071.395     3800.004     4206.592     78.67722     157.1664     314.8028      1.989     5.72     860.0765     55.50015     249.4169        24     1.749     0.874 -39.74   0
       282    281.0275    536.7992 307.8092583  +6.4556345     73603.26     129806.2     139914.3     78.55184     157.1664     314.6776      1.902     4.85     861.8877     55.50015     9662.948       102     1.886     1.306 -46.59   0
       283    185.9043    540.2132 307.8486446  +6.4510283     5645.879     9850.784      10521.5     78.67722     157.2291     314.6776      1.860     5.06     864.7333     55.50015     677.9705        36     1.736     1.010 -47.35   0
       284    867.0140    540.3776 307.5657874  +6.4737788     574.2382     889.7595     571.5424     78.67722     157.2918     314.7715      1.487     3.88     856.7817     55.50015     86.59161         5     1.270     0.339 -48.01   0
       285    825.3551    538.7488 307.5831427  +6.4730603     1106.149     1939.778     2086.093     79.05218     157.4171     314.8968      1.959     2.82     857.3787     55.50015     186.3032        10     0.967     0.657  35.04   2
       286     57.3861    539.0200 307.9020526  +6.4471981     4218.287     7522.946     7856.184     78.67722     157.2291     314.7715      1.941     4.37      867.284     55.50015     536.6083        39     1.732     1.166 -47.61   0
       287    570.7368    534.4713 307.6890269  +6.4663115     795.2134     1320.263     1539.389     78.92739     157.4797      314.928      1.796     5.85     859.9106     55.50015     113.2449        11     1.284     0.749 -31.88   0
       288    264.9190    531.9216 307.8161117  +6.4571079     1371.046      2421.08      2555.02     79.17677     157.7298     315.0219      1.855     4.85     862.2104     55.50015     165.0363        16     1.349     0.841 -44.55   0
       289    980.3309    530.7451 307.5190485  +6.4815383     1263.166     2467.093     2310.395     78.92739     157.3544     314.8341      1.996     6.04      852.769     55.50015     182.5822        16     1.577     0.765 -39.56   0
       290    804.2260    529.3304 307.5922327  +6.4762444     13878.29     23772.59        25226     78.55184     157.3544     314.8028      1.827     4.75     857.3655     55.50015     1864.331        49     1.734     1.116 -46.40   0
       291    507.7820    527.6448 307.7154001  +6.4670221     33955.85     64754.48     70784.18     78.55184     157.3544     314.6149      2.030     4.95     860.2562     55.50015     4371.215        86     1.966     1.384 -39.22   0
       292    657.9192    526.4918 307.6530885  +6.4725253     848.1594     1494.842      1530.62     78.67722     157.7298      314.928      1.877     5.63     858.7274     55.50015     148.5173         9     1.214     0.735 -43.81   0
       293    220.4055    524.2140 307.8348560  +6.4587956     1410.604     2517.709     2853.685     78.55184     157.2291     314.7089      2.122     6.12     863.2357     55.50015     183.7102        18     1.516     0.854 -43.41   0
       294     55.9782    524.5269 307.9031258  +6.4531362      1045.29     1936.337     2107.259     78.55184     157.2918     314.8028      1.902     5.06     867.0668     55.50015     144.0938        16     1.376     0.920 -24.11   0
       295    677.9094    522.5827 307.6449176  +6.4748086     1358.061     2166.571     2265.843     78.67722     157.2291     314.7715      1.709     6.14     858.3362     55.50015     190.8425        13     1.406     0.865 -36.55   0
       296    667.8371    522.6423 307.6490986  +6.4744470     2435.134     3963.942     4382.538     78.67722     157.4797     314.7402      1.724     5.11      858.437     55.50015     353.5199        22     1.584     0.853 -46.80   0
       297    729.8713    521.6785 307.6233683  +6.4769198     1285.121     2347.784      2712.22     79.17677     157.7298     314.8341      1.950     6.12     858.1627     55.50015     151.4284        17     1.489     0.836 -35.98   0
       298    405.7227    518.1198 307.7581034  +6.4675343     1411.476     2235.689     2003.179     79.17677     157.7298     315.0219      1.659     5.71     860.4958     55.50015     173.0842        17     1.523     0.759 -48.74   0
       299    336.9990    516.5164 307.7866969  +6.4658905     3341.444     5882.978     6509.659     78.17448     157.0409     314.5836      1.869     4.85     860.6772     55.50015     452.9812        32     1.788     0.989 -46.25   0
       300    516.8847    516.1523 307.7120055  +6.4720735     1691.407     2901.178     3271.049     78.92739     157.4797     314.8968      1.843     5.03     859.6917     55.50015      256.828        22     1.608     0.843 -46.56   0
       301    152.1332    515.1475 307.8635125  +6.4602449     21796.67     38269.77     41186.23     78.92739     157.4171     314.8028      1.887     4.81     864.9172     55.50015     2844.433        67     1.871     1.214 -45.51   0
       302    880.1785    515.3460 307.5611571  +6.4845567     1362.383     2169.014     2204.183     78.42625     157.4797     314.6776      1.709     5.06      855.479     55.50015     180.3905        17     1.409     0.803 -41.64   0
       303    117.4241    513.4512 307.8779830  +6.4597781      2220.37     4007.873     4165.362     78.55184     157.4797     314.7715      1.926     4.68     865.6102     55.50015     288.7275        24     1.569     0.957 -57.05   0
       304    354.3634    511.5130 307.7796540  +6.4685397     901.8467     1664.408     1914.549     78.92739     157.3544     314.8654      2.256     6.02     860.3392     55.50015     139.8742        12     1.480     0.871 -39.99   0
       305    977.7668    509.9056 307.5208095  +6.4900598     4402.124     7441.943     8242.325     79.05218     157.3544     314.9594      1.843     4.50     851.9752     55.50015     612.2031        33     1.688     1.069 -36.68   0
       306    550.7576    502.1586 307.6984079  +6.4789878     1163.357     2156.885     2190.771     78.67722     157.4797     314.7402      1.961     5.74     858.8747     55.50015       148.45        17     1.660     0.716 -47.97   0
       307     16.4062    499.4741 307.9204030  +6.4621505     21467.27     37367.61     40484.01     78.55184     157.0409     314.7715      1.891     4.73     867.3552     55.50015     2669.004        60     1.822     1.181 -46.78   0
       308    449.1873    496.3429 307.7407846  +6.4779859     35876.33     62940.18     67274.21     78.30048     157.3544     314.5522      1.873     4.68     859.5262     55.50015     4443.012        76     1.849     1.234 -44.56   0
       309    657.1888    496.0652 307.6544113  +6.4850674      10371.6     18036.68     19423.59     78.42625     157.2918     314.7089      1.853     4.72     857.6174     55.50015     1527.915        47     1.773     1.108 -43.41   0
       310    297.3079    496.3860 307.8038566  +6.4728718     846.6991     1309.864     1472.065     78.67722     157.2291     314.6462      1.714     5.74     860.6004     55.50015     120.2554        12     1.531     0.675 -45.89   0
       311      1.4827    492.8756 307.9268226  +6.4643730     36628.02     47206.16     50507.27     70.62272     127.6069     239.5139      1.225     2.93     867.4879     55.50015     10226.37        50     1.622     0.846 -88.35  24
       312    214.3320    493.8893 307.8383988  +6.4711154     15856.87     29535.33     31802.21     79.05218     157.6673     314.8341      1.993     4.62     862.5432     55.50015     1712.928        58     1.824     1.297 -43.48   0
       313    179.9632    494.7747 307.8526415  +6.4695945     1368.572     2301.805     2458.377     78.55184     157.2918     314.6149      1.841     5.69     863.5638     55.50015     180.7231        18     1.604     0.869 -57.58   0
       314    991.0519    494.2358 307.5158153  +6.4969747     902.3369     1667.126     1887.828     78.80241     157.4797     314.8028      2.193     5.49     850.7785     55.50015     128.1893        12     1.511     0.562 -35.91   0
       315    831.5018    493.6116 307.5820999  +6.4919079     844.9833      1146.19     1201.507     78.67722     157.2291     314.6462      1.423     4.37      855.758     55.50015     127.7259        10     1.077     0.734 -39.54   0
       316    578.8894    492.8512 307.6870370  +6.4837739     2356.696     4071.015     4524.118     78.92739     157.2918     314.9906      1.863     5.28     858.5572     55.50015     310.1624        22     1.560     0.839 -51.27   0
       317    952.8778    490.1186 307.5318073  +6.4974020     4234.869      7125.27      7661.89     79.17677     157.7298     314.9906      1.817     4.77     852.2086     55.50015     573.1677        30     1.613     1.016 -50.93   0
       318    625.9795    488.4204 307.6676289  +6.4871803     5591.688     9692.091     10521.13     78.67722     157.4171     314.8028      1.867     4.84     858.0071     55.50015     720.5845        37     1.717     1.081 -43.26   0
       319    113.6280    488.9346 307.8803853  +6.4697755     965.4523     1646.879      1555.49     78.55184     157.4797     314.8028      1.795     6.07     865.2642     55.50015     127.9957        13     1.435     0.722 -46.42   0
       320    975.4881    482.3427 307.5226765  +6.5013678     3094.453     5397.355     5733.994     78.92739     157.3544     314.9906      1.915     4.66     850.9556     55.50015     383.0543        32     1.700     1.074 -47.62   0
       321    752.5682    481.3718 307.6152916  +6.4943256     480.0868     460.0701     339.1632     78.42626     157.2291     314.6776      1.411     3.42     856.1507     55.50015     77.61023         5     1.052     0.321  67.88   0
       322    538.1317    479.6435 307.7044067  +6.4878637     6253.101     10834.29      12010.5     78.92739     157.4171      314.928      1.867     4.72     858.1794     55.50015     791.2104        38     1.757     1.055 -46.32   0
       323    413.8746    481.4938 307.7559484  +6.4829344     506.3686     1008.886     1431.522     78.67722     157.6048     314.8341      1.953     4.04     859.2486     55.50015     82.71625         6     1.425     0.327 -40.98   0
       324    384.3354    479.8641 307.7682706  +6.4826165     2236.489     3972.871     4232.052     78.92739     157.4797     314.8968      1.914     4.60      859.239     55.50015     326.0756        25     1.727     0.950 -39.23   0
       325    894.4432    475.5987 307.5565616  +6.5014491      2739.76     4735.348     5567.818     78.30048     157.1664     314.4896      1.923     5.39     853.6965     55.50015     348.2149        27     1.643     1.037 -38.57   0
       326    547.7753    476.3964 307.7005106  +6.4895278     568.1051     964.4345     920.2986     78.55184     157.1664     314.7089      1.589     3.27     857.9453     55.50015     82.36243         5     0.725     0.463 -16.40   0
       327    242.4081    474.2114 307.8274015  +6.4801858     427.6425     972.6349      561.824     78.55184     157.2918     314.8028      1.410     4.23     861.2165     55.50015     74.12695         5     1.544     0.330 -48.64   0
       328    902.1187    470.0380 307.5535597  +6.5040019     1881.021     3221.964      3829.47     78.92739     157.5423     314.8028      1.887     4.83     853.2363     55.50015     275.3866        21     1.523     0.874 -47.21   0
       329    941.4258    469.1046 307.5372657  +6.5056991     1144.518     1829.538     1640.789     79.05218     157.2291     314.7402      1.723     6.19      851.956     55.50015     160.9948        13     1.586     0.678 -45.84   0
       330    725.9775    465.7382 307.6268586  +6.4998935       2633.6     4566.663     4647.412     78.55184     157.4797     314.7715      1.855     4.78     855.7791     55.50015     384.2795        24     1.583     0.928 -45.60   0
       331    396.9904    464.0922 307.7635450  +6.4895549      3127.34     5348.365     5409.415     78.55184     157.1037     314.6462      1.791     4.98     858.4127     55.50015      373.749        24     1.601     0.889 -45.37   0
       332     87.8621    464.5471 307.8919070  +6.4789804     1608.401     2850.916     3316.211     78.92739     157.4171     314.8341      1.913     4.80     865.3039     55.50015     238.2218        21     1.534     0.890 -48.76   0
       333    437.3779    464.2373 307.7467671  +6.4908496     913.7966     1574.505     1840.121     78.55184     157.2291     314.6462      1.951     5.78     858.2117     55.50015     133.6443        13     1.351     0.697 -52.44   0
       334    624.6571    460.6407 307.6691093  +6.4986093     8699.787     14557.59      15662.6     78.92739     157.4797     314.8968      1.827     4.61     856.8505     55.50015     1108.865        40     1.728     1.040 -46.76   0
       335    787.6410    456.9070 307.6015442  +6.5056021     14007.07     23761.26     27411.67     79.05218     157.4171     314.9594      1.914     5.40     854.8682     55.50015     1865.907        65     2.321     1.091 -46.16   0
       336    307.0762    457.4162 307.8011104  +6.4892943     2096.817     3954.514     3887.336     78.42625     157.2291     314.7402      1.968     4.88     858.9917     55.50015     258.5005        23     1.591     0.931 -46.07   0
       337    430.7061    456.6147 307.7497939  +6.4937740      629.424     1238.826     1499.251     78.67722     157.2291     314.7089      2.229     4.89     857.8932     55.50015     101.6064         7     1.391     0.487 -44.22   0
       338    390.1388    454.1177 307.7667256  +6.4934445     1228.717     2317.519     3002.875     79.05218     157.4797     314.8654      1.998     5.72     857.9397     55.50015     161.4411        17     1.617     0.862 -46.88   0
       339    816.0900    454.1154 307.5898220  +6.5077056     1079.803     1924.113     1794.459     78.67722     157.7923     314.9906      1.922     5.90     854.4059     55.50015     176.2894        14     1.425     0.899 -33.11   0
       340    972.5781    452.3582 307.5248868  +6.5136548     1994.502     2995.684     3088.646     78.55184     157.2918     314.6462      1.736     6.33     850.3968     55.50015     263.6071        17     1.405     0.800 -53.47   0
       341    721.6917    450.7036 307.6291421  +6.5059597     484.5175     973.5192     1240.347     78.92739     157.9796     314.8341      2.187     6.00     855.2946     55.50015     85.59515         7     1.682     0.603 -47.03   0
       342    124.8270    448.9505 307.8770817  +6.4866654     3645.832     6518.616     7240.326     78.55184     157.5423     314.8028      1.916     4.65     863.8387     55.50015      425.325        31     1.688     1.054 -40.80   0
       343    378.8232    449.5681 307.7715778  +6.4949438     665.4144     1018.197     1278.489     78.42626     157.2918     314.6462      1.575     5.40     857.7964     55.50015     94.54584         7     1.317     0.625 -46.57   0
       344    763.0705    448.0860 307.6120442  +6.5084241     1995.443      3260.74     3724.652     79.05218     157.7298     314.8968      1.766     4.87     854.7344     55.50015     292.8019        17     1.386     0.783 -46.66   0
       345   1023.8629    447.4295 307.5037511  +6.5174004     568.6406     757.2428      940.876       65.556     121.9994     233.5548      0.970     2.15     848.9599     55.50015     156.7487         5     0.841     0.335  84.28  24
       346    360.8445    443.9228 307.7792342  +6.4966720     2599.047       4690.1     5041.335     78.80241     157.4797     314.8968      1.910     5.37     857.6099     55.50015     343.2679        26     1.677     0.989 -49.05   0
       347    282.6752    446.1358 307.8116235  +6.4931336     1294.965     2067.433     1961.994     79.05218     157.4797     314.8341      1.789     5.81     858.9778     55.50015     152.3194        15     1.360     0.929 -40.31   0
       348    716.7348    441.7993 307.6314990  +6.5094715     1418.308     2416.572     2723.886     78.17448     157.1664     314.6149      1.950     5.64     855.0395     55.50015     191.5839        17     1.454     0.821 -43.36   0
       349    249.2636    438.6581 307.8257508  +6.4950995     550.7123     807.7181     820.6747     79.05218     157.4171     314.8968      1.655     3.44     859.7958     55.50015     98.72046         5     0.764     0.448 -14.61   0
       350    557.9999    434.3362 307.6976752  +6.5072414     803.1751     1458.609     1551.918     78.17448     157.2291     314.5836      1.775     5.70     856.0204     55.50015     125.4248        10     1.411     0.649 -44.62   0
       351    480.4482    432.7491 307.7299370  +6.5052984     1220.732     1981.604     2200.312     79.05218     157.3544     314.8341      1.809     5.79     856.5122     55.50015     174.7194        14     1.478     0.796 -35.41   0
       352    842.7643    431.6630 307.5794946  +6.5178696     1200.079     2079.938     2531.101     78.80241     157.4797     314.8341      1.833     5.98     853.2153     55.50015     180.7069        15     1.564     0.643 -55.40   0
       353    828.4609    430.7812 307.5854648  +6.5177561     1747.069     2993.139     3066.596     78.55184     157.4171     314.7089      1.822     5.94     853.2799     55.50015     240.6342        20     1.614     0.827 -45.45   0
       354    725.8208    428.9594 307.6281554  +6.5150783     12749.35      22052.3     23726.53     78.55184     157.2918     314.6776      1.843     5.07      854.482     55.50015     1832.604        49     1.762     1.120 -44.54   0
       355    628.0913    431.3419 307.6686652  +6.5108249     570.7262     1216.522     1225.325     78.80241     157.4171     314.9594      1.743     6.15     855.4194     55.50015      110.321         8     1.605     0.662 -49.96   0
       356    647.1418    424.9009 307.6609689  +6.5141226     2360.816     3867.648     4623.219     78.67722     157.4797     315.0219      1.766     4.67     855.0984     55.50015     324.6693        21     1.460     0.887 -42.05   0
       357    622.1554    421.7643 307.6714516  +6.5145818     4634.533     7892.222     8900.597     78.67722     157.4171     314.7402      1.818     4.86     855.0115     55.50015     619.6721        28     1.687     0.915 -46.04   3
       358    618.3312    419.4173 307.6731186  +6.5154231     12484.38     21940.38     23915.42     78.42626     157.3544     314.7715      1.884     4.61     854.8668     55.50015     1548.176        48     1.806     1.117 -46.33   3
       359    951.0508    418.8797 307.5349464  +6.5267638     3093.334     5299.015     5918.074     78.92739     157.5423     314.8654      1.890     4.69     849.9599     55.50015     488.1746        27     1.615     0.924 -45.33   0
       360    390.2359    414.6760 307.7680105  +6.5097372     24322.09     42856.02     46428.11     78.80241     157.5423     314.8968      1.906     4.74     855.9868     55.50015     3109.561        72     1.870     1.254 -47.35   0
       361    906.6714    414.7042 307.5535186  +6.5270075     1284.326     2436.406     3552.941     78.80241     157.6048     314.8654      2.007     6.30     850.9027     55.50015     168.3757        16     1.496     0.746 -49.89   0
       362    136.3266    414.1938 307.8734769  +6.5014064     2060.999     3560.747     3600.628     78.55184     157.0409     314.7715      1.842     4.90     862.5632     55.50015     238.4148        26     1.575     1.067 -49.15   0
       363    919.8449    409.1810 307.5482318  +6.5297283     4248.019     7209.047      7620.77     78.55184     157.3544     314.6149      1.796     4.99     850.2454     55.50015     592.6431        33     1.639     1.002 -45.36   0
       364     69.9540    409.6253 307.9011951  +6.5010599      1244.21     2532.687     3036.338     78.55184     157.5423     314.7402      2.145     6.48     864.2215     55.50015     170.6149        18     1.623     0.800 -42.73   0
       365    975.6818    407.3304 307.5251020  +6.5323555     685.5347     1039.298     730.0666     79.17677     157.7298     314.8968      1.747     5.67     849.1133     55.50015     128.6381         8     1.396     0.650 -40.39   0
       366    247.8076    405.1752 307.8274822  +6.5088789     11636.18     20832.58     21963.71     78.42625     157.3544     314.7089      1.899     4.62     858.6473     55.50015     1434.752        49     1.772     1.178 -46.47   0
       367    710.8074    398.5741 307.6354087  +6.5271257     592.1974     1140.736     1227.138     78.42626     157.3544     314.7089      1.871     4.97     853.4014     55.50015     95.61932         8     1.327     0.527 -58.51   0
       368     83.3751    399.5749 307.8959602  +6.5056623     799.6305     1454.191     1853.449     78.42626     157.2918     314.7402      2.237     5.63     863.5569     55.50015     126.6753        11     1.477     0.606 -39.25   0
       369    742.6499    398.5936 307.6221826  +6.5281823     650.7104     1062.943      1652.16     78.42626     157.2918     314.4896      1.848     4.63     853.0996     55.50015     105.5027         8     1.418     0.429 -42.14   0
       370    971.3406    397.5183 307.5272329  +6.5362632     1060.496      1532.94     1499.304     79.05218     157.5423     314.8654      1.628     5.67     848.7493     55.50015     130.2869        13     1.218     0.744 -49.02   0
       371    193.7910    395.8254 307.8502304  +6.5109249     644.8265     1206.836     961.7471     78.55184     157.2918     314.7402      2.082     6.19     860.2892     55.50015     90.44452         9     1.399     0.769 -67.51   0
       372    360.6371    395.1326 307.7809603  +6.5168154     1068.359      1894.06     1463.376     78.80241     157.4797     314.9594      1.909     6.15     855.1203     55.50015     156.0797        17     1.666     0.786 -49.13   0
       373    148.0707    393.8125 307.8692861  +6.5102188     4357.374      7717.74     8357.499     78.42625     157.2291     314.7089      1.857     4.96     861.7988     55.50015     600.0839        36     1.720     1.054 -45.29   0
       374    252.9190    392.9688 307.8257701  +6.5140918     1138.405     1893.252     1913.281     78.80241     157.3544     314.8341      1.826     4.61     858.0773     55.50015     155.3458        15     1.321     0.829 -56.67   0
       375    834.0895    390.9715 307.5844588  +6.5343860     654.6749     820.7722     1037.771     79.05218     157.2291     314.7715      1.465     4.62     851.7938     55.50015      104.882         7     1.098     0.551 -51.69   0
       376    170.2047    389.6853 307.8602328  +6.5126677     2147.588      3750.45     4091.634     78.42626     157.1037     314.5522      1.845     5.02     861.0267     55.50015     263.6564        23     1.633     0.926 -41.96   0
       377    565.7021    388.6239 307.6960098  +6.5263788     750.4004     1295.112     1426.163     79.05218     157.2291     314.7089      1.871     5.29     853.4418     55.50015     121.4209        10     1.359     0.581 -44.01   0
       378    393.4537    384.4886 307.7676885  +6.5223126     1854.793     3077.494     3248.557     78.92739     157.3544     314.9906      1.800     4.95     854.1537     55.50015     239.1888        21     1.563     0.862 -35.51   0
       379     12.3937    384.7754 307.9259376  +6.5093845     519.4765     941.6479     1108.237     78.42626     157.2291     314.6776      1.534     4.80     864.5784     55.50015      90.3103         8     1.726     0.378 -58.18   0
       380    281.3020    384.7152 307.8142599  +6.5184540     724.8266     1197.329     1135.587     78.92739     157.8548      314.928      1.922     5.05     856.9268     55.50015     92.55493         8     1.193     0.605 -46.33   0
       381    982.6937    383.7051 307.5229789  +6.5423469     821.7562     1199.609     1301.986     78.92739      158.042     314.8028      1.652     4.80     847.7149     55.50015     121.5671         9     1.179     0.554 -44.01   0
       382    328.0296    381.6048 307.7949576  +6.5213078      523.829     1004.428     1098.691     78.42625     157.2918     314.6776      1.677     4.49     855.3024     55.50015     93.20923         5     0.996     0.576 -75.41   0
       383    447.4132    378.0557 307.7454937  +6.5267793     6088.338     10746.55     11601.59     78.30048     157.4171     314.5836      1.881     4.75     853.4871     55.50015     701.0247        38     1.758     1.043 -45.44   0
       384     43.6909    378.8008 307.9131414  +6.5129059     2824.895     5157.912     5800.488     78.17448     156.9781     314.6776      1.944     4.89     863.6796     55.50015     358.6281        31     1.781     1.016 -51.60   0
       385    788.0079    375.5530 307.6041148  +6.5392144     11080.79     18684.37     19886.62     78.42625     157.3544     314.5209      1.818     4.79     851.7335     55.50015     1582.082        45     1.741     1.061 -43.64   2
       386    780.1609    376.8990 307.6073290  +6.5383963     1585.911      2999.55      3745.59     78.92739     157.3544     315.0845      2.127     5.65     851.8494     55.50015     256.2069        22     1.764     0.860 -36.64   3
       387    351.4334    373.6548 307.7855047  +6.5253768     987.6784     1841.933     1894.064     78.80241     157.4797     314.8341      1.971     5.52     854.0983     55.50015     133.7049        14     1.337     0.739 -37.08   0
       388    302.9769    374.1320 307.8056139  +6.5235528     491.5012     801.7114     689.7264     78.55184     157.4171     314.8341      1.603     3.92     855.8751     55.50015     79.83765         5     0.836     0.526  60.29   0
       389    962.9429    366.8790 307.5317447  +6.5486376     578.9216     1005.334     1272.397     78.92739     157.4797     314.8341      2.216     6.50     847.5252     55.50015     72.88947         7     1.404     0.844 -58.20   0
       390    196.6152    365.7220 307.8500710  +6.5234523     590.4084     1230.123     694.9583     78.55184     157.2291     314.7089      2.040     5.46     859.2007     55.50015      87.6908         8     1.378     0.610  -8.47   0
       391      2.4881    364.0584 307.9307502  +6.5176067      1089.12      2045.78     2971.837     78.92739      140.966     255.2524      2.384     5.94     863.4854     55.50015     119.2288        13     1.196     0.963 -38.12  24
       392    467.9358    362.3093 307.7374988  +6.5339707     1870.946     3274.501     2924.999     78.80241     157.6673      314.928      1.884     5.22     852.4891     55.50015     263.7903        23     1.697     0.874 -51.54   0
       393    495.4183    361.7689 307.7261024  +6.5351152     2707.461     4734.997     4765.776     78.55184     157.2918     314.7402      1.819     4.71     852.3204     55.50015     351.9361        24     1.533     0.979 -40.61   0
       394    924.3787    361.6527 307.5479374  +6.5495094     701.7349     1276.523     1460.397     78.42626     157.4797     314.6776      1.968     5.65     848.8276     55.50015     100.3206        10     1.394     0.645 -59.20   0
       395    853.3777    358.4563 307.5775352  +6.5484593     28903.73     50258.08     54050.17     78.55184     157.4171     314.6776      1.892     4.86     850.4581     55.50015     3861.125        74     1.861     1.245 -50.19   0
       396    346.1719    353.8699 307.7883552  +6.5333713     694.6542     1054.451     1168.092     78.67722     157.4797     314.8028      1.596     4.52     853.2291     55.50015     104.6703         8     1.141     0.510 -32.87   0
       397    625.2162    350.8558 307.6725577  +6.5439699     2082.391     4130.789     4481.939     78.30048     157.4171     314.6149      2.079     5.22     851.0557     55.50015      333.191        28     1.710     1.053 -45.45   0
       398     33.5091    350.8133 307.9183137  +6.5241215     932.7301     1661.524     1360.799     78.67722     157.2291     314.6462      1.770     6.16     862.6136     55.50015     137.6489        14     1.614     0.661 -36.13   0
       399    156.4862    349.4966 307.8672838  +6.5288039     536.1832     1007.291     1189.109     78.92739     157.8548     314.8968      1.935     3.69     860.5496     55.50015      85.4068         6     1.009     0.387 -70.16   0
       400    709.8431    344.4006 307.6376239  +6.5494675     68234.63     117331.5     126100.9     78.30048     157.1664     314.4896      1.858     4.75     850.7746     55.50015     8418.887       101     1.878     1.279 -44.25   0
       401    868.1244    346.0132 307.5718262  +6.5540909     1094.339     1869.998     2255.811     78.55184     157.1664     314.6776      1.927     5.37     849.7432     55.50015     156.5621        14     1.324     0.761 -48.64   0
       402     89.2065    343.8282 307.8954173  +6.5288813     1289.486     2012.024     2275.597     78.42625     157.2918     314.6776      1.735     4.82     862.2488     55.50015     182.6912        19     1.438     0.959 -34.63   0
       403    951.2530    341.6711 307.5374426  +6.5586588     721.3422     1093.598     763.8259     78.80241     157.4171     314.8028      1.533     4.18     847.0558     55.50015     132.3012         7     1.302     0.505 -44.97   0
       404    572.5355    340.9647 307.6947704  +6.5462911     2104.693     3758.181     4028.856     78.80241     157.4797     314.8968      1.886     5.03     850.6353     55.50015     299.9308        23     1.614     0.919 -36.57   0
       405    109.5239    339.7920 307.8871152  +6.5312319     5242.878     9233.552      9360.91     78.55184     156.9781     314.6462      1.858     4.68     861.8055     55.50015     609.9937        36     1.753     1.058 -46.25   0
       406    780.2468    338.4093 307.6085817  +6.5542958     447.0461     853.8191     953.9004     78.42626     157.4171     314.5209      1.847     3.43     850.4163     55.50015     94.38489         5     1.168     0.290 -53.57   0
       407    555.6077    337.1670 307.7019287  +6.5472926     6014.732      10474.4     11260.33     78.42625     157.3544     314.6776      1.870     4.76     850.4398     55.50015     760.9462        39     1.723     1.096 -46.21   0
       408    418.4818    332.4147 307.7590432  +6.5446587     22286.92      38764.2     41380.79     78.55184     157.2291     314.7089      1.900     4.76     851.5393     55.50015     2683.959        67     1.859     1.215 -47.63   0
       409    284.7098    334.7393 307.8145258  +6.5392083     2206.312     3931.041     3953.935     78.80241     157.6048      314.928      1.858     5.07     855.1493     55.50015     294.2251        25     1.677     0.879 -43.74   0
       410    526.1275    331.3735 307.7143678  +6.5486977     1117.479     2062.467     2055.141     78.55184     157.3544     314.7715      1.902     6.57     850.3113     55.50015     136.9683        16     1.614     0.751 -48.18   0
       411    398.5017    330.4099 307.7674091  +6.5448164     1065.348     1860.584     2170.876     78.67722     157.1037     314.6776      1.753     5.71     851.8013     55.50015     180.6211        12     1.482     0.620 -43.01   0
       412    497.5686    327.6242 307.7263556  +6.5492891     897.9068     1553.575     1345.584     78.42626     157.3544     314.6776      1.796     7.29     850.3929     55.50015     122.8082        15     1.739     0.855 -54.18   0
       413    813.0251    325.5679 307.5953966  +6.5606947     812.3813     1194.932     1072.532     78.42625     157.2918     314.7089      1.658     6.52     849.6264     55.50015     122.7136        12     1.268     0.941 -70.44   0
       414    395.5953    324.7819 307.7688054  +6.5470433      596.948     1053.021     1250.264     78.55184     157.1037     314.7089      1.984     6.04     851.7509     55.50015     84.81647         8     1.162     0.945  33.30   0
       415    507.6258    322.8098 307.7223399  +6.5516145     7408.204      12865.8     13668.34     78.55184     157.2918     314.7402      1.846     4.76     850.0459     55.50015     911.0942        41     1.702     1.098 -46.41   0
       416    776.6287    321.5852 307.6106478  +6.5611234     2677.978     4634.933     5089.395     78.55184     157.2918     314.7715      1.841     4.65     849.7345     55.50015     355.9236        24     1.607     0.884 -49.07   0
       417    932.4250    321.4181 307.5459401  +6.5663953     830.1527     1394.923     1271.681     78.55184     157.3544     314.8028      1.741     5.02     846.8959     55.50015     122.8773        10     1.311     0.544 -45.75   0
       418    334.1567    319.6749 307.7944953  +6.5470904       882.54     1571.631     2056.894     78.80241     157.5423     314.8968      2.063     6.27     852.9908     55.50015     116.0379        14     1.552     0.787 -46.85   0
       419    169.7566    313.0532 307.8629997  +6.5443010     919.4811     1549.039     1173.711     78.92739     157.4797     314.8654      1.806     5.68     859.6598     55.50015     136.9382        11     1.607     0.565 -43.96   0
       420    397.3976    307.0016 307.7686544  +6.5544469     6163.764     11246.34      11671.8     78.30048     157.0409     314.5522      1.939     4.67     851.3705     55.50015     824.9756        41     1.756     1.125 -48.31   0
       421    253.2858    307.6058 307.8284904  +6.5493586     1529.301     2638.025     2769.614     78.42626     157.1664     314.5836      1.843     5.82      855.442     55.50015     187.9414        19     1.596     0.843 -51.16   0
       422    765.3261    302.9327 307.6159671  +6.5684492     46715.76     79395.35     84878.01     79.05218     157.6048     314.8341      1.843     4.83     848.9587     55.50015     6658.875        81     1.810     1.226 -47.04   0
       423    751.0148    306.7962 307.6217823  +6.5663752     842.4948     1501.824     1490.163     78.55184     157.1037     314.7089      1.954     5.75      849.201     55.50015     129.9009        12     1.620     0.576 -36.24   0
       424    436.8425    302.3434 307.7524273  +6.5576940     2028.885     3531.179     3837.715     78.80241     157.4171     314.8654      1.929     5.63     850.2954     55.50015     248.1028        21     1.584     0.872 -47.44   0
       425   1000.1154    300.1010 307.5185353  +6.5774575       1438.7     2531.457     2548.653     78.92739     157.9172      314.928      1.812     5.54     844.5379     55.50015     216.6669        18     1.423     0.920 -37.85   0
       426    941.0151    299.1675 307.5431158  +6.5758717     1977.359     3058.867       3158.8     78.55184     157.2291     314.7715      1.619     4.78     845.7349     55.50015     260.4069        20     1.432     0.875 -38.33   0
       427    583.4802    299.5952 307.6916121  +6.5637435     935.7032     1745.969     1381.228     78.55184     157.0409     314.6149      1.875     5.78     848.6313     55.50015     147.0611        12     1.488     0.633 -30.48   0
       428    474.2871    299.0188 307.7369861  +6.5603227     894.3489     1712.894     2164.539     78.67722     157.2291     314.7089      2.037     6.01     849.1282     55.50015       127.14        13     1.446     0.772 -52.51   0
       429    423.3798    298.0923 307.7581620  +6.5589982     1742.793     2888.804     2688.143     78.80241     157.2918     314.7089      1.758     5.32     850.5715     55.50015     203.5564        20     1.559     0.886 -46.82   0
       430    303.6874    297.0627 307.8079111  +6.5554060     647.1937     927.4337      619.679     78.80241     157.6673     314.8968      1.711     3.88     852.9715     55.50015     118.2465         5     0.887     0.486 -46.17   0
       431    844.6360    292.5609 307.5833708  +6.5753829     1091.688     2040.916      2340.94     78.67722     157.3544     314.6776      1.934     6.59     847.7981     55.50015     136.2411        15     1.349     0.903 -51.57   0
       432    977.2613    290.3373 307.5283548  +6.5807279     598.8938      838.514     509.7321     78.92739     157.4797     314.8968      1.548     5.29     844.7871     55.50015     82.72522         5     1.397     0.566 -51.33   0
       433    453.9537    289.5074 307.7457512  +6.5635691     1056.318      2060.17     2569.698     78.92739     157.4171     314.9906      2.372     7.21     849.3262     55.50015     127.1021        18     1.595     0.913 -40.96   0
       434    200.0066    289.1276 307.8512415  +6.5551992     1880.315     3478.626       3490.2     78.55184     157.0409     314.7715      1.969     5.19     857.8152     55.50015     267.2965        24     1.755     0.881 -49.41   0
       435    763.8165    287.5368 307.6171097  +6.5747574     5302.643     9092.816     9503.838     78.42626     157.4171     314.7089      1.852     4.64     848.3167     55.50015       702.22        35     1.690     1.048 -44.69   0
       436    236.1923    287.1200 307.8362796  +6.5572447     567.2164     1010.251     955.5736     78.55184     157.0409     314.7089      1.727     3.98     855.8215     55.50015     98.15887         6     1.142     0.396 -60.72   0
       437    780.1613    285.3464 307.6103938  +6.5762084     2235.502      3944.13     4346.853     78.92739     157.5423     314.8654      1.856     4.35     848.1716     55.50015     317.1223        24     1.619     0.889 -46.29   0
       438     96.8240    286.5606 307.8941839  +6.5527885     999.8478     1740.912     1954.921     78.55184     157.2291     314.6462      1.770     5.29     861.9247     55.50015     136.7426        11     1.209     0.655 -56.50   0
       439     83.4306    280.9398 307.8999361  +6.5546591     1104.008     2159.475     2059.697     78.67722     157.4797     314.8341      2.000     6.04     861.9478     55.50015     153.7303        17     1.487     0.982 -64.74   0
       440    369.5398    280.0247 307.7811320  +6.5646535     1437.961     3064.578     3491.893     78.55184     157.4797     314.7402      2.213     6.95     851.4092     55.50015     166.2505        27     1.919     0.992 -27.34   0
       441   1018.4623    276.4660 307.5117037  +6.5878308     5249.714     8669.554     8819.261     78.92739     157.4797     303.5813      1.795     4.72     843.5582     55.50015     739.6568        31     1.598     0.999 -46.23  16
       442    496.4952    276.1773 307.7285287  +6.5705007     1841.836     2983.045     2950.792     78.92739     157.2918     314.7089      1.712     5.33     847.8181     55.50015     217.4395        20     1.409     0.940 -46.99   0
       443    259.0788    271.7768 307.8272900  +6.5643504     4877.043     9046.904     10724.63     78.55184     157.2918     314.8341      2.062     5.12      854.455     55.50015     642.6191        40     1.742     1.158 -47.24   0
       444    778.3760    265.3402 307.6118052  +6.5844114     639.1028     1296.527     1149.012     78.55184     157.4797     314.7402      1.988     5.24     847.6337     55.50015     101.0484         7     1.414     0.549 -66.42   0
       445    236.0909    264.5555 307.8370812  +6.5665602     641.9545     949.0259     990.3831     78.92739     157.4171     314.9906      1.574     4.74     855.6255     55.50015     93.35535         6     1.270     0.502 -48.10   0
       446    393.1939    262.5476 307.7718944  +6.5726654     1359.716     2656.985     2925.152     78.42626     157.2918     314.5209      2.036     5.76     850.3224     55.50015     173.0504        21     1.523     1.026 -62.78   0
       447    980.8250    261.1313 307.5278503  +6.5929092     956.4335     1717.106     2608.691     78.55184     157.3544     314.8028      2.365     6.44      843.702     55.50015     138.9642        14     1.476     0.789 -41.98   0
       448    315.5128    258.5632 307.8042943  +6.5717033     1064.468     1714.041      1456.77     78.92739     157.3544     314.8654      1.728     5.58     852.2106     55.50015     138.7894        12     1.482     0.592 -38.78   0
       449    162.9455    258.1324 307.8676786  +6.5667537      1540.99     2749.114     2755.526     78.92739     157.4171     314.7715      1.788     4.92     858.4019     55.50015     216.2523        21     1.638     0.845 -36.12   0
       450    572.4905    254.0066 307.6977064  +6.5822036     1907.586     3718.555     3587.212     78.55184     157.1664     314.6462      1.991     5.46     846.4629     55.50015     220.6823        26     1.620     1.090 -37.79   0
       451    916.4552    253.0116 307.5548607  +6.5941150     1421.522     2741.331     2372.835     78.30048     157.4171     314.5522      2.109     6.61     844.9398     55.50015     191.8109        20     1.576     1.391  14.90   0
       452    736.1343    251.6642 307.6298099  +6.5886475     4281.388     7484.926     7606.751     78.92739     157.4797     314.8654      1.866     5.09     847.3472     55.50015     625.7439        32     1.689     1.009 -42.62   0
       453    676.9621    251.4892 307.6543951  +6.5867406     1916.277     3226.876     3493.135     78.92739     157.4171     314.8968      1.897     5.06     847.2206     55.50015     252.6433        21     1.655     0.828 -46.99   0
       454    974.6794    250.8288 307.5307475  +6.5969593     721.1193     936.8048     618.3514     78.80241     157.4171     314.8341      1.616     6.05     843.4846     55.50015     104.8674         8     1.081     0.951 -75.71   0
       455    932.1653    243.9125 307.5486390  +6.5983973     1001.573     1713.086     1423.682     78.92739     157.3544     314.8654      1.745     6.19     844.2994     55.50015     138.3792        14     1.371     0.786 -42.57   0
       456    769.2007    235.1136 307.6166286  +6.5965885      1310.45     2134.862     1950.982     78.17448     156.9781     314.5522      1.743     6.45     846.8211     55.50015     195.0671        20     1.799     0.869 -63.33   0
       457    235.6847    236.7612 307.8381855  +6.5780254     1944.426     3457.809     3375.031     78.92739     157.4171     314.8341      1.926     5.34     855.3762     55.50015     269.2059        24     1.580     1.004 -40.39   0
       458    878.4417    235.9481 307.5712222  +6.5998935     1627.292     2815.209     2656.287     78.92739     157.5423     314.8654      1.800     5.74     845.4196     55.50015     222.2852        17     1.456     0.791 -53.32   0
       459    469.9322    226.4823 307.7412311  +6.5901342     19522.52     34406.81     37874.62     79.05218     157.7298     314.8968      1.986     5.04     846.4821     55.50015     2287.918        80     2.512     1.200 -46.07   0
       460    795.7144    225.9414 307.6059220  +6.6012629     11475.08      20049.1     22522.84     78.92739     157.4797     314.9906      1.918     4.95     846.5688     55.50015     1571.464        56     1.848     1.189 -41.94   0
       461    330.5133    228.8780 307.7990620  +6.5844668     480.0099     937.0237     730.3239     78.92739     157.7923     314.9906      1.927     3.89     851.3914     55.50015     85.44904         5     1.326     0.327 -40.14   0
       462    734.2070    222.0804 307.6316014  +6.6008014     763.4438     1124.438      1059.59     78.55184     157.0409     314.6776      1.737     5.98     846.4055     55.50015     118.3965        10     1.560     0.762 -51.95   0
       463    157.9174    219.9251 307.8710543  +6.5823638     2028.994     3713.792     4082.647     79.17677     157.7923      314.928      1.939     4.53     856.9843     55.50015     318.1113        25     1.534     1.024 -37.51   0
       464    183.5836    218.9130 307.8604275  +6.5836450     518.8194     878.5413     707.1898     78.55184     157.2291     314.7402      1.606     4.35     856.4302     55.50015     98.74493         6     0.951     0.566 -20.69   0
       465    132.8125    218.6661 307.8815243  +6.5820392     946.4501     1824.615     1915.437     78.42625     157.2918     314.7715      2.038     5.47     858.1718     55.50015     136.7963        11     1.314     0.643 -50.55   0
       466    932.0494    216.2343 307.5496125  +6.6098249     1229.343     2110.306     2145.593     78.80241     157.4797     314.8028      1.766     5.65     843.3651     55.50015     176.2052        16     1.502     0.837 -38.91   0
       467    556.3419    212.7542 307.7057985  +6.5987000      1642.38      3016.51     2884.581     78.92739     157.4797     314.9594      1.987     5.78     844.9221     55.50015     222.1162        21     1.641     0.989 -67.17   0
       468    593.8089    212.6617 307.6902380  +6.5999931     3975.032     7235.394     7877.938     78.30048     157.3544     314.6462      1.918     4.83     844.5903     55.50015     492.3186        37     1.736     1.135 -42.77   0
       469    314.5063    212.7673 307.8062529  +6.5905829     1019.797     1653.984     1279.814     79.05218     157.3544      314.928      1.672     4.52     851.8344     55.50015     147.6074        12     1.264     0.777 -53.99   0
       470    398.0884    211.8703 307.7715647  +6.5937591     1398.887     2326.522     2459.856     79.05218     157.7298     314.8654      1.717     5.38     848.6285     55.50015     177.9885        17     1.588     0.752 -48.60   0
       471    954.4578    209.7416 307.5405209  +6.6132541     2368.763     3791.206     3708.522     78.92739     157.4171     314.8968      1.743     4.81      842.443     55.50015     317.8552        23     1.553     0.939 -47.82   0
       472    900.7543    209.1181 307.5628508  +6.6117194     9980.885     16579.86     17270.75     78.92739     157.4797     314.8654      1.787     4.79     843.7772     55.50015     1224.626        41     1.703     1.034 -47.99   0
       473    987.3895    207.0837 307.5269294  +6.6154504     8545.092     14269.73     15165.36     78.55184     157.2291     314.7089      1.792     4.59     841.3475     55.50015      1187.82        40     1.678     1.041 -45.75   0
       474    576.1649    209.1356 307.6976856  +6.6008585     752.8246     1215.142     1070.516     78.80241     157.4797     314.8968      1.589     4.77     844.6415     55.50015     97.83844         9     1.386     0.465 -64.30   0
       475    328.4336    208.3111 307.8006176  +6.5928910     616.9907     1553.395     1695.717     79.05218     157.4171     314.8654      2.357     6.99     851.2894     55.50015     115.3555        12     1.579     0.868 -88.41   0
       476    698.7719    206.9295 307.6468288  +6.6058737     2479.169     4348.538     4504.617     78.67722     157.4797     314.8028      1.893     5.03     845.8307     55.50015     292.1116        24     1.619     0.918 -51.33   0
       477     26.8994    205.5914 307.9259572  +6.5838734     21472.88      38544.4     42011.51     78.67722     157.1037     314.7089      1.943     4.82     862.3212     55.50015     2595.868        65     1.857     1.234 -46.08   0
       478    273.3371    206.4886 307.8235648  +6.5917930     1050.694     1707.579     1691.597     78.80241     157.6673     314.8968      1.746     4.63     853.5378     55.50015     130.7442        12     1.077     0.787 -52.99   0
       479    507.4669    201.6257 307.7264743  +6.6016583     1614.613     2987.592     2968.431     78.55184     157.3544     314.7715      1.876     4.97     844.9914     55.50015     256.8505        22     1.617     0.948 -58.39   0
       480    839.1632    198.8364 307.5887803  +6.6139091     1730.509     2858.263     3052.608     78.67722     157.3544     314.6462      1.799     5.03     844.6365     55.50015     224.8751        20     1.488     0.880 -46.84   0
       481    519.2997    197.7869 307.7216879  +6.6036403     2025.933     3571.535     3841.106     78.67722     157.2291     314.6462      1.904     6.39      844.743     55.50015     269.4758        20     1.650     0.832 -52.29   0
       482    891.5134    197.6976 307.5670715  +6.6161277     1630.378     2663.548     3015.785     78.92739     157.9172     314.8968      1.809     5.75     843.4615     55.50015     253.7769        18     1.543     0.793 -43.55   0
       483    750.9150    195.0900 307.6255650  +6.6125073     34120.05     58544.82     62207.74     78.67722     157.7923     314.9906      1.829     4.97     845.1547     55.50015     4769.806        70     1.803     1.187 -47.25   0
       484    353.9164    194.4757 307.7904978  +6.5994605     5240.606     11340.33      12949.3     79.05218     157.7923     314.9594      2.341     6.61     850.0619     55.50015      546.871        54     2.243     1.248 -61.41   0
       485    984.7740    193.7773 307.5284606  +6.6208589     2480.788     4403.427     4760.938     78.42625     157.2918     314.8028      1.845     5.56     840.7548     55.50015      326.771        27     1.695     0.964 -49.10   0
       486   1022.8553    192.6371 307.5126789  +6.6225996     1374.159     2041.426     2159.244     76.90327      136.562     249.8666      1.594     5.32     839.5994     55.50015     218.9004        15     1.322     0.843 -59.93  24
       487    918.8157    192.2402 307.5559122  +6.6192930     6533.998     11128.57     11538.54     78.42625     157.2918     314.6462      1.813     5.04     842.5249     55.50015     860.0642        36     1.648     1.048 -45.53   0
       488    462.4256    191.1633 307.7455356  +6.6044692     4229.068     7536.184     7916.821     78.55184     157.2918     314.6462      1.874     4.79     845.5207     55.50015     509.9502        32     1.658     1.060 -50.21   0
       489    237.2819    188.4069 307.8391500  +6.5980490     582.2108     1201.782      991.662     78.55184     157.1037     314.7089      1.709     4.64     855.0354     55.50015     110.4835         6     1.370     0.450  89.74   0
       490    119.7732    182.4775 307.8881600  +6.5965458     4070.996     7167.912      7765.67     78.80241     157.4797     314.8341      1.866     5.11     857.3407     55.50015     478.1166        31     1.712     0.987 -45.85   0
       491    940.1849    180.9874 307.5474113  +6.6246536      662.196     1221.049     1510.403     78.80241     157.1664     314.8028      2.016     5.01     841.4275     55.50015     102.9811         7     1.001     0.710  -1.51   2
       492    290.0343    179.2170 307.8175468  +6.6036169     28768.86     51653.82     56205.27     78.55184     157.2918     314.7089      1.944     4.81     852.7644     55.50015     3467.932        76     1.886     1.269 -44.99   0
       493    265.4109    180.1292 307.8277443  +6.6024129     5584.045     9938.528     10749.49     78.42625     157.1037     314.6776      1.906     4.82     853.8187     55.50015     643.1333        36     1.763     1.039 -48.46   0
       494    719.4033    178.4053 307.6392142  +6.6183444     856.8249     1167.514     1669.161     78.30048     157.1664     314.7089      1.733     5.21     844.5176     55.50015     130.6155        10     1.175     0.653 -51.06   0
       495    414.1019    174.7157 307.7661616  +6.6096411     42734.72     75821.51     81103.39     78.92739     157.8548      314.928      1.913     4.92     846.7094     55.50015     5463.235        76     1.852     1.243 -44.05   0
       496    169.9386    175.9982 307.8675409  +6.6009094     3317.821     6205.436     6177.912     78.30048     157.2918     314.5836      1.929     5.15     855.9631     55.50015     427.5908        33     1.732     1.088 -48.86   0
       497    431.4827    175.2269 307.7589245  +6.6100131     1180.928     1962.979      1860.74     78.80241     157.2918     314.8028      1.672     4.11     846.0553     55.50015     181.6033        12     1.278     0.630 -56.10   0
       498    318.1095    172.3782 307.8061148  +6.6073843     15607.99     27655.23     30329.39     78.92739     157.2918     314.7402      1.921     4.69     851.4443     55.50015     1846.821        58     1.803     1.218 -44.55   2
       499    325.7256    171.8610 307.8029685  +6.6078537     1757.995      3559.21     4927.367     79.17677     157.4797     314.8654      2.593     7.16     851.0692     55.50015     213.2734        28     2.130     0.949 -61.64   2
       500    753.3481    171.0070 307.6253609  +6.6225350     28478.35     49027.73      52211.4     78.42625     157.2918     314.4896      1.837     4.84     844.0443     55.50015     4036.042        64     1.768     1.163 -48.45   0
       501    584.8113    174.4271 307.6952584  +6.6154827     404.4434     743.5386     285.1367     78.55184     157.2918     314.7402      1.367     4.41     843.7222     55.50015     80.40448         5     1.315     0.420 -30.66   0
       502    701.1945    172.9163 307.6469623  +6.6200023     785.3217     1415.038     1366.119     78.42625     157.1037     314.6149      1.748     5.54     844.4677     55.50015     111.2209        10     1.461     0.593 -37.73   0
       503    801.8157    171.4220 307.6052127  +6.6239837     1007.164     1737.969     1958.767     78.67722     157.2918     314.8028      1.995     5.23      844.025     55.50015     176.3804        11     1.312     0.601 -42.34   0
       504     70.1828    168.1096 307.9092429  +6.6008103      7660.05     13830.69     14829.37     78.67722     157.2291     314.7715      1.920     4.84     858.8254     55.50015     953.3138        45     1.778     1.183 -49.15   0
       505   1011.7623    165.4700 307.5181948  +6.6334501     949.2939     1718.055     2075.314     78.80241     157.4797      314.928      2.000     6.94     838.4995     55.50015     128.7087        14     1.454     0.928 -41.21   0
       506    104.3025    166.1338 307.8951371  +6.6027749     1227.388     2038.286     2039.007     78.92739     157.5423     314.8968      1.751     6.34     857.0406     55.50015      169.791        14     1.299     0.868 -44.76   0
       507    737.7236    159.2858 307.6322442  +6.6268535     552.0078     28.92759    -14.35637     78.92739     157.7923      314.928      1.487     3.65     843.4576     55.50015     106.7664         5     1.273     0.302 -31.49   0
       508    587.2271    155.8611 307.6948777  +6.6232314      686.437     1062.386     1219.464     78.55184     157.5423     314.7715      1.870     5.55     843.3043     55.50015     90.69366         9     1.442     0.602 -50.57   0
       509   1012.7126    151.5226 307.5182660  +6.6392422     2086.548     3454.846     4466.176     78.92739     157.7923     314.9594      1.836     4.87     838.0051     55.50015     248.0054        19     1.514     0.819 -40.02   0
       510      4.3003    152.6668 307.9371298  +6.6049690     729.4116     1069.525     606.6036     78.92739     157.0409     279.8969      1.576     5.84     862.4187     55.50015     107.9077         9     1.363     0.703 -32.08  16
       511    596.2257    149.0476 307.6913682  +6.6263468     894.5184     1480.821     2084.708     78.55184     157.5423     314.7715      1.878     5.66      843.176     55.50015     123.2813        11     1.331     0.678 -59.53   0
       512    603.9767    147.4700 307.6882012  +6.6272579     1667.223     2745.337     3422.882     78.55184     157.3544     314.8341      1.792     4.45     843.1522     55.50015      209.582        19     1.414     0.859 -49.55   0
       513    348.3560    147.0446 307.7944026  +6.6188626     874.5451     1460.044     1263.181     78.92739     157.4797     314.8028      1.750     6.26      849.908     55.50015     118.4561        12     1.555     0.707 -51.26   0
       514    288.9268    145.4109 307.8191445  +6.6175414     25658.97      46314.5      51084.5     78.42625     157.1037     314.7402      1.944     4.74     852.9586     55.50015     3094.251        80     1.958     1.295 -44.53   0
       515     34.1192    144.1825 307.9250299  +6.6094773     3815.384     6896.553     7750.617     78.55184     157.1664     314.7715      1.998     5.06     860.5284     55.50015     531.7686        37     1.966     1.045 -58.74   0
       516    720.5335    142.1381 307.6399599  +6.6333607     7041.648     12080.18     12888.78     78.92739     157.4171     314.8654      1.827     4.74     842.6971     55.50015     861.9532        40     1.707     1.078 -44.16   0
       517    198.2850    143.0181 307.8568771  +6.6154831     790.5246      1304.32     1054.997     78.55184     157.2291     314.8028      1.761     4.52     855.3301     55.50015     120.9703        11     1.199     0.783 -27.92   0
       518    131.3282    139.1809 307.8848196  +6.6148155     4112.898     7272.634     7851.427     78.55184     157.3544     314.8028      1.896     4.69     855.8006     55.50015     504.7765        34     1.799     1.016 -48.17   0
       519    274.4288    140.9203 307.8253180  +6.6189089     651.2578      1178.54     1772.705     78.80241     157.4171     314.8028      1.808     3.62      853.556     55.50015     127.2783         5     1.213     0.311 -24.83   0
       520    593.4912    137.1293 307.6929040  +6.6311775     580.7178     1237.137     1715.964     78.80241     157.6673     314.8654      1.963     4.85     842.8961     55.50015     110.0341         9     1.478     0.450 -48.67   0
       521    470.6196    136.3342 307.7439735  +6.6273883     1090.717     1703.106     1511.229     78.55184     157.4797     314.7715      1.782     6.03     843.7509     55.50015     172.8279        14     1.397     0.847 -56.79   0
       522    659.4421    136.2380 307.6655365  +6.6337535     676.2639     968.1379     729.4888     78.67722     157.4797     314.7402      1.491     5.56     843.2459     55.50015     100.4312         9     1.378     0.634 -52.77   0
       523    402.0984    135.1501 307.7724777  +6.6255788     3290.648     6565.867     6953.243     78.92739     157.4171     315.0532      2.077     4.96     846.2146     55.50015     350.5552        39     1.755     1.262 -52.76   0
       524    366.4428    134.1633 307.7873225  +6.6247896     2877.502      4569.94     4236.494     78.67722     157.4171     314.7402      1.698     4.39     848.7325     55.50015     381.1305        24     1.503     0.936 -42.78   0
       525    121.0336    133.6240 307.8892832  +6.6167640     1602.547     2769.135     2983.351     78.42625     157.2918     314.6462      1.883     5.22     855.9064     55.50015      189.177        22     1.562     0.956 -47.87   0
       526    578.4869    133.2126 307.6992685  +6.6322925     616.0589     995.5736      1483.09     78.55184     157.2291     314.7715      2.192     5.58     842.7829     55.50015      81.6333         6     1.311     0.669 -51.63   0
       527   1013.0248    128.4088 307.5189085  +6.6487988     1163.732     2209.041     2489.396     78.55184     157.2918     314.7402      2.066     6.82     837.3076     55.50015     143.3373        17     1.543     0.845 -47.50   0
       528     60.2257    128.4678 307.9147158  +6.6168465     450.7951     441.8893     339.8913     78.55184     157.3544     314.7715      0.895     3.43     858.7207     55.50015     98.91901         5     0.740     0.460  19.60   0
       529    218.3714    122.9520 307.8492091  +6.6244455     4600.244      8056.59      8307.77     78.55184     157.5423     314.7715      1.859     4.64     855.2944     55.50015     532.4221        32     1.661     1.021 -47.54   0
       530    680.1672    121.8974 307.6574075  +6.6403698     5550.373       9455.9     10322.18     78.92739     157.3544     314.9906      1.846     4.71     842.6238     55.50015     780.5409        34     1.609     1.047 -43.84   0
       531    101.1455    122.7284 307.8979118  +6.6205944     1804.847     3050.942     3479.864     78.80241     157.3544     314.8341      1.924     4.42     856.1459     55.50015     229.8115        20     1.441     0.892 -51.43   0
       532    828.3589    121.5637 307.5958550  +6.6454623     902.0115     1517.693     1940.888     78.67722     157.4797     314.7402      1.895     6.02     840.4387     55.50015     133.5916        11     1.269     0.804 -36.79   0
       533    632.3712    119.1810 307.6773544  +6.6398919     8069.591     14221.48     15740.26     78.55184     157.2918     314.8028      1.885     4.50     842.5634     55.50015     1082.886        43     1.695     1.161 -43.70   3
       534    635.8306    110.6951 307.6762019  +6.6435124     46110.14     79824.16     85563.16     79.05218     157.2291     314.8968      1.862     4.76     842.3344     55.50015      6042.56        77     1.856     1.216 -46.51   3
       535    569.7540    119.5637 307.7033543  +6.6376370     516.6934       894.79     1084.028     78.67722     157.4797     314.7715      2.041     4.33     842.5032     55.50015     73.98962         5     0.906     0.590 -49.16   0
       536    266.9570    119.6569 307.8291375  +6.6274394     808.0212     1404.719     1886.531     78.80241     157.4171     314.8654      1.854     5.63      853.953     55.50015     129.4125        10     1.189     0.750 -55.59   0
       537     31.3987    117.8166 307.9270495  +6.6202743     937.7601     1575.105     1297.547     78.55184     157.0409     314.5836      1.767     6.12      860.517     55.50015     157.4805        15     1.636     0.736 -47.98   0
       538    359.5643    114.9070 307.7908274  +6.6325114     3368.098      6085.14     6665.894     79.05218     157.3544     314.9594      1.984     4.97     849.0859     55.50015     402.0199        34     1.858     1.017 -51.80   0
       539    541.2828    113.9765 307.7153695  +6.6389906      1615.54     2765.275      2696.62     78.80241     157.2291     314.8028      1.782     4.48     842.4361     55.50015     220.5587        20     1.571     0.827 -43.33   0
       540   1005.5233    113.8292 307.5225121  +6.6545702     779.5842     1138.402     984.1174     78.80241     157.5423     314.8968      1.852     5.23     837.0477     55.50015     122.5239         8     1.390     0.556 -40.21   0
       541    583.7848   1020.3686 307.6673215  +6.2660686     3672.887     6250.226     7512.834     78.55184     157.2291     283.8831      1.878     4.61     873.9246     55.50015     407.7983        28     1.584     1.004 -45.02  16
       542    314.7560    104.5131 307.8097910  +6.6352994     3158.327     5833.979      6777.55     78.92739     157.3544     314.8654      2.082     4.79      851.857     55.50015     410.1458        30     1.695     1.059 -49.16   0
       543    714.8956     99.0467 307.6437460  +6.6509690     839.4001     1547.692     1731.241     78.80241     157.4171     315.0219      1.760     5.98     840.4897     55.50015     130.5256        11     1.530     0.658 -46.88   0
       544    686.2001     97.8440 307.6557075  +6.6505057       1262.8     2187.695     2484.386     78.17448     157.1037     314.4582      1.837     6.16     841.4316     55.50015     182.1785        17     1.684     0.703 -44.06   0
       545    700.1927     94.6742 307.6500007  +6.6522830     2676.674     4597.766     4385.707     78.55184     157.0409     314.7402      1.825     4.84     840.8365     55.50015     379.7109        25     1.609     0.938 -51.33   0
       546    441.9695     85.6082 307.7575796  +6.6473770     3522.347     6185.221     6286.722     78.42625     157.2918     314.6462      1.876     4.57     843.4366     55.50015       461.67        32     1.624     1.076 -45.29   0
       547    914.5627     81.0589 307.5613973  +6.6650698     3471.278     5835.043      6493.89     78.92739     157.5423     314.8968      1.834     4.71     837.4583     55.50015     487.9809        29     1.643     0.998 -41.77   0
       548    896.7726     81.8325 307.5687624  +6.6641564     1920.801       3269.4     3430.906     78.42625     157.2291     314.6776      1.830     4.09     837.5251     55.50015     287.4046        20     1.451     0.861 -51.88   0
       549    595.0497     81.4782 307.6941237  +6.6542135     538.7577     959.1826     1096.609     78.92739     157.5423     314.8341      1.892     6.56     841.4442     55.50015     99.07764         8     1.654     0.731 -60.83   0
       550    606.6901     79.4751 307.6893551  +6.6554306     1554.982     2674.957     2834.607     78.92739     157.7298      314.928      1.919     4.81     841.3366     55.50015     244.4841        18     1.481     0.851 -39.18   0
       551    626.8626     79.5629 307.6809717  +6.6560698     458.1984     842.9124     637.8152     78.92739     157.5423     314.8654      1.907     4.19      841.311     55.50015     70.58209         5     1.508     0.333 -40.81   0
       552    252.3315     78.7365 307.8365906  +6.6438475     880.9193     1640.804     2275.446     78.92739     157.5423      314.928      2.023     5.99     854.2402     55.50015     117.6795        13     1.446     0.699 -54.08   0
       553    405.5531     77.4121 307.7729834  +6.6495401     1708.616     3040.639     3278.139     78.30048     157.2918     314.5836      1.917     5.65     844.8176     55.50015     201.6581        23     1.619     0.946 -48.28   0
       554    153.3360     74.2506 307.8778658  +6.6423712     2736.729     4956.555     5028.416     78.92739     157.4171     314.8968      1.941     4.68     853.9565     55.50015     320.3734        27     1.532     1.054 -43.59   0
       555     35.1608     72.1390 307.9270278  +6.6392650     10671.41     19037.07     21132.24     78.92739     157.4797     314.8968      1.926     4.83     858.4606     55.50015     1337.117        54     1.812     1.233 -46.21   0
       556    301.7295     72.6525 307.8162745  +6.6480200     1022.263      2142.53     3137.536     78.80241     157.4171     314.8028      2.900     7.43     852.6107     55.50015     132.6464        19     1.870     0.827 -32.58   0
       557    573.8495     71.9776 307.7032499  +6.6574271     426.6043     777.1765     1193.193     78.55184     157.5423     314.7715      1.439     3.71     841.2203     55.50015     87.09705         5     1.800     0.220 -49.87   0
       558    770.2244     71.3926 307.6216865  +6.6642403     795.4588     1298.844      1764.23     78.42626     157.3544     314.7089      1.730     5.15     838.5771     55.50015     141.9731         9     1.240     0.605 -53.38   0
       559    561.7669     71.6440 307.7082807  +6.6571602     571.4446     922.0459     957.0177     78.55184     157.4171     314.7089      1.858     5.80     841.2675     55.50015     89.66663         8     1.506     0.630 -28.70   0
       560    903.7318     68.4145 307.5663200  +6.6699304     599.4449     905.0566     1003.961     78.42626     157.3544     314.7715      1.860     4.52     837.1333     55.50015     95.83148         6     1.342     0.433 -39.98   0
       561    836.9079     66.8243 307.5941356  +6.6683555     5404.016      9167.54     9996.598     79.05218     157.2918     314.7089      1.872     4.85      837.586     55.50015     796.6249        34     1.661     1.009 -47.03   0
       562    781.9844     67.2323 307.6169401  +6.6663517      2771.65     4806.765     5468.129     78.55184     157.2291     314.7715      1.929     4.86     838.2731     55.50015     394.1819        25     1.600     0.921 -49.34   0
       563    427.1608     67.6521 307.7643350  +6.6542960     892.3104     1554.395     1682.924     78.80241     157.4797     314.8341      1.900     5.37     843.6273     55.50015     124.9068        10     1.303     0.625 -43.24   0
       564    769.0742     66.6132 307.6223244  +6.6661758     601.3091     1073.411     1835.872     78.42625     157.1664     314.6776      1.603     4.39     838.4507     55.50015     82.57745         7     1.139     0.481 -47.93   0
       565    544.3330     65.2287 307.7157388  +6.6592255     929.7327      1474.48     1406.149     78.67722     157.4797     314.8341      1.613     5.30     841.1456     55.50015     125.5444        11     1.374     0.576 -59.00   0
       566     75.4906     63.8854 307.9105530  +6.6440318     2755.405     4633.247      4319.22     78.67722     157.9172     314.9906      1.801     5.24     855.9463     55.50015     323.5819        24     1.641     0.882 -44.32   0
       567     60.1707     64.9709 307.9168804  +6.6430676     784.2614     1470.098     1282.503     78.42625     157.2291     314.6149      1.926     6.31     856.7448     55.50015     112.6262        14     1.442     0.775 -57.18   0
       568    437.1490     63.2784 307.7603325  +6.6564374     900.0918     1600.624     1958.336     78.92739     157.5423     314.8654      1.912     5.78     843.3453     55.50015     120.4523        12     1.469     0.640 -57.07   0
       569    599.3129     60.6141 307.6930526  +6.6629731     1120.069     1822.797     1773.155     78.55184     157.2918     314.7715      1.799     5.66     840.7436     55.50015     149.8008        15     1.575     0.806 -47.88   0
       570     17.9364     59.3835 307.9346133  +6.6439525     2226.427     3713.077      4256.61     78.42625     157.4171     314.7089      1.872     4.85     858.4166     55.50015     273.4706        24     1.558     1.015 -49.57   0
       571    776.5938     54.5830 307.6196033  +6.6713957     1753.469      2950.62     3312.885     78.55184     157.2291     314.7089      1.831     4.85      837.894     55.50015      229.691        23     1.549     0.956 -41.72   0
       572    417.5695     54.7014 307.7687548  +6.6593227     950.5999     1903.862     1808.786     78.92739     157.2291     314.8968      2.094     7.06     843.8412     55.50015     109.7614        16     1.597     0.876 -43.76   0
       573    114.0798     53.8768 307.8948601  +6.6494643      660.874     1031.886     893.3311     79.17677     157.7298     315.0219      1.742     6.00     854.3173     55.50015     82.09222         9     1.315     0.770 -50.85   0
       574     90.3612     54.8261 307.9046811  +6.6482738      655.685     1112.231     992.9371     78.55184     157.2918     314.7089      1.799     3.93     854.9084     55.50015     92.19666         6     1.269     0.349 -31.15   0
       575    719.7359   1020.4158 307.6108827  +6.2705963     1102.729     2342.927     2957.977     78.42626     157.3544     283.3271      2.402     8.04     870.2667     55.50015     138.3018        19     1.634     1.105 -28.10  17
       576    253.4234     47.6372 307.8371840  +6.6567278     665.8533     1405.948     2039.064     78.55184     157.2291     314.6462      2.229     5.98     853.6992     55.50015     93.64313         8     1.398     0.720 -33.71   0
       577    645.9910     40.4537 307.6743365  +6.6728622     15900.83     27552.38     29185.02     78.30048     157.4171     314.5836      1.856     4.66     839.7492     55.50015     2104.439        54     1.757     1.164 -46.85   0
       578    270.1736     42.4163 307.8304012  +6.6594469     1269.506     2478.305     3753.901     78.55184     157.2918     314.8028      2.573     6.40     853.5273     55.50015     178.8386        17     1.347     1.161 -23.06   0
       579    545.7308     36.5223 307.7161218  +6.6711280     4569.387     7761.938     8113.001     79.05218     157.6673     314.8341      1.844     4.81     840.2966     55.50015     546.1531        33     1.633     1.055 -47.86   0
       580    264.0265     36.5831 307.8331513  +6.6616494     1616.591     3464.467     5088.074     78.55184     157.2291     314.7715      2.503     5.22     853.4943     55.50015     214.0145        24     1.566     1.104 -39.46   3
       581    272.0007     32.3806 307.8299801  +6.6636529     7858.906      14052.8     15905.53     78.55184     157.0409     314.5836      1.947     4.67     853.4398     55.50015      945.396        48     1.862     1.161 -45.71   2
       582    634.0176     33.7510 307.6795357  +6.6752296     787.7306     1336.238     1812.528     78.42625     157.5423     314.6776      1.681     4.62     839.5939     55.50015     133.7867         7     1.219     0.496 -54.69   3
       583    632.1720     30.1591 307.6804230  +6.6766513     2731.189     5139.641     6254.072     78.55184     157.2918     314.7089      2.099     4.71     839.4586     55.50015     387.2607        34     1.711     1.341 -48.37   2
       584    451.3313     32.0105 307.7554914  +6.6698265     19403.23     34367.52     36473.09     78.42625     157.2918     314.6776      1.888     4.68     842.5698     55.50015     2425.222        58     1.788     1.198 -46.12   0
       585     13.3198     34.4670 307.9373719  +6.6540869     1177.982     1893.404     1862.513     79.05218     157.7298     314.8654      1.800     6.10     856.7061     55.50015     153.6625        14     1.276     0.821 -35.18   0
       586    929.2344     32.1044 307.5569390  +6.6857779      1855.46     3032.948     2445.071     79.05218     157.3544     314.9594      1.760     4.83     835.9754     55.50015     263.4465        20     1.572     0.835 -44.62   0
       587     37.3086     32.0773 307.9274873  +6.6558820     1853.821     3310.287     3213.091     78.67722     157.7298     314.8968      1.831     5.61     855.8082     55.50015     238.2147        21     1.693     0.887 -47.19   0
       588    331.8041     32.5518 307.8051298  +6.6655913     896.7802     1673.691     2208.799     78.30048     157.2918     314.5522      2.075     5.32     850.3154     55.50015     115.5427        11     1.200     0.803 -41.85   0
       589    564.6644     31.3294 307.7084301  +6.6739070     677.1115     1161.431     576.3624     78.92739     157.5423     314.8654      1.778     6.15     839.9731     55.50015     109.1181         8     1.488     0.735 -75.71   0
       590    259.9273     29.0120 307.8351092  +6.6646384     2530.825     4456.173     5353.216     78.42626     157.1037     314.6776      1.942     4.68     853.3937     55.50015     341.3339        24     1.530     0.934 -46.03   0
       591    313.2772     27.2569 307.8130048  +6.6671557      819.736     1446.728     1643.339     78.92739     157.4171     314.8341      1.871     5.53     851.6691     55.50015     99.71808         9     1.027     0.839 -51.42   0
       592    949.7281     21.9263 307.5487648  +6.6906654     959.6584     1668.247     1159.772     79.17677     157.6048     314.8968      1.640     5.86      833.787     55.50015     128.1585        12     1.583     0.652 -46.03   0
       593    701.1698     21.6861 307.6520413  +6.6824598     1558.904     2545.973     2455.208     79.05218     157.2291     314.7715      1.773     5.29      838.412     55.50015     197.4629        18     1.494     0.867 -41.67   0
       594    432.3293     48.0753 307.7628458  +6.6625544     2165.865      3524.31     3552.212     79.17677     157.6048     314.8654      1.810     4.61     843.3896     55.50015     288.4698        21     1.446     0.909 -49.79   0
       595    759.7055   1016.6033 307.5944176  +6.2735066     996.8558     2013.609     2695.476     78.67722     157.1664     314.5522      2.240     6.15     870.1179     55.50015      124.629        14     1.608     0.662 -54.45  16
       596    266.8304     16.3248 307.8326685  +6.6701100     560.8343     1028.622     1124.736     78.80241     157.5423     314.8654      1.991     4.52     853.2736     55.50015      98.2287         5     1.363     0.426 -35.23   0
       597    967.3751   1010.7453 307.5084012  +6.2828577     5460.387     10537.25     11077.27     78.55184     157.5423     314.6776      2.038     4.39     866.3522     55.50015     616.3282        46     1.786     1.300 -43.19   0
       598    721.1596   1011.5373 307.6105888  +6.2743108     918.0737     1622.229     2453.143     78.92739     157.4171     314.8968      1.886     5.32     870.1698     55.50015     132.7126        11     1.276     0.754 -32.30   3
       599    726.9858   1008.8014 307.6082616  +6.2756355     2253.545     4470.596     5037.442     78.55184     157.1664     314.6462      2.059     4.86     870.0359     55.50015     276.9044        29     1.612     1.164 -41.88   2
       600    251.9608   1010.7896 307.8053888  +6.2589008     1238.516     2228.449     2336.969     78.30048     157.2918     314.6149      1.864     6.04     874.3339     55.50015     161.1161        18     1.382     1.059 -39.33   0
       601    448.9870   1010.6662 307.7236045  +6.2655611     592.4861     1294.212     1293.528     78.42625     157.2918     314.7715      1.932     3.44     874.4142     55.50015      82.4469         5     0.806     0.425  21.83   2
       602    224.7004   1023.3083 307.8162839  +6.2528151     1466.944     2128.906     2302.467     72.95685     130.6601      242.865      1.522     3.93     873.9631     55.50015     231.6544        13     1.306     0.696  -7.06  24
       603    742.8192   1008.1395 307.6017108  +6.2764381     1134.904     1745.906     2375.925     78.55184     157.4171     314.7089      1.708     5.20     869.8812     55.50015     168.9678        13     1.148     0.896 -69.13   0
       604    373.8023   1006.3807 307.7549589  +6.2648104     1741.714     2757.283     2867.308     78.55184     157.0409     314.6149      1.716     4.54     875.0264     55.50015     241.1858        18     1.351     0.869 -44.02   0
       605    556.0121    996.5195 307.6796499  +6.2749888      3763.17     6654.861     7418.926     78.55184     157.1664     314.7089      1.911     4.54     873.3321     55.50015     434.6025        31     1.731     1.014 -52.95   0
       606    526.5160    997.7267 307.6918542  +6.2735025     895.0587     1324.438     1459.072     79.05218     157.7923     314.8968      1.721     5.64     873.3793     55.50015     169.4533        12     1.411     0.635 -54.09   0
       607    306.2774    995.0816 307.7833692  +6.2672115     13124.04     22841.77     25937.42     79.17677     157.7298     314.9906      1.932     4.62     874.7185     55.50015     1653.972        62     2.075     1.156 -40.63   0
       608    760.4966    995.8920 307.5947819  +6.2820871     6778.162     12176.38     12644.98     78.92739     157.9796     314.8341      1.913     4.65     869.7454     55.50015     846.5172        42     1.731     1.175 -44.44   0
