#   1 NUMBER                 Running object number                                     
#   2 X_IMAGE                Object position along x                                    [pixel]
#   3 Y_IMAGE                Object position along y                                    [pixel]
#   4 ALPHA_J2000            Right ascension of barycenter (J2000)                      [deg]
#   5 DELTA_J2000            Declination of barycenter (J2000)                          [deg]
#   6 FLUX_APER              Flux vector within fixed circular aperture(s)              [count]
#   9 FLUXERR_APER           RMS error vector for aperture flux(es)                     [count]
#  12 FLUX_RADIUS            Fraction-of-light radii                                    [pixel]
#  13 FWHM_IMAGE             FWHM assuming a gaussian core                              [pixel]
#  14 BACKGROUND             Background at centroid position                            [count]
#  15 THRESHOLD              Detection threshold above background                       [count]
#  16 FLUX_MAX               Peak flux above background                                 [count]
#  17 ISOAREA_IMAGE          Isophotal area above Analysis threshold                    [pixel**2]
#  18 A_IMAGE                Profile RMS along major axis                               [pixel]
#  19 B_IMAGE                Profile RMS along minor axis                               [pixel]
#  20 THETA_IMAGE            Position angle (CCW/x)                                     [deg]
#  21 FLAGS                  Extraction flags                                          
         1     11.3031     29.9346 307.9284411  +6.6378147     3675.134     6631.288     8648.419     92.23344     184.1017     367.9839      2.016     5.87     1234.482      64.8567     457.9117        24     2.183     0.767  61.20  19
         2     14.1825     27.8034 307.9273149  +6.6387914     4678.123     11504.91      15132.6     91.79459     183.5158     367.7644      2.690     8.38     1234.272      64.8567     484.8479        61     2.513     1.840  52.26  19
         3    759.6415     22.9642 307.6172100  +6.6658058     1240.805      3770.83     4598.212      91.9411     184.0285     367.7644      2.749     8.53     1194.709      64.8567     146.0896        33     1.907     1.721  84.47   0
         4     54.2720     18.9113 307.9109311  +6.6438119     1202.787     2583.705     3197.534     92.23344     184.3209     367.9839      2.290     7.81     1231.458      64.8567     162.0837        18     1.772     0.963  54.12   2
         5    814.3407     22.3414 307.5944633  +6.6678910     2756.202     7409.468     9583.917     92.23344     184.0285     367.9839      2.721     6.94     1191.878      64.8567     332.5692        51     2.088     1.646  49.32   0
         6     81.0602      4.7419 307.9002615  +6.6505624      3220.87     10788.66     13825.69     92.37927     183.9554     333.3206      2.984     8.34     1229.223      64.8567     368.2327        66     2.177     2.001 -76.06  24
         7    409.8387      4.1180 307.7634420  +6.6618699     923.3893     2616.415     3381.001     92.23344     182.4123     324.4391      2.880    10.42     1210.525      64.8567     113.2201        19     2.052     1.474  86.56  24
         8     58.3546    997.0682 307.8761610  +6.2401992     4702.002     10192.57     11481.19     92.23344     183.9554     367.9839      2.257     5.67     1259.482      64.8567      521.436        44     1.916     1.378  61.29   0
         9    819.1109   1022.9064 307.5589029  +6.2550281     1910.701      3182.64     3360.253      89.8681     159.3312     291.2521      1.781     5.19     1258.765      64.8567     269.6221        22     1.624     0.988  11.20  24
        10    739.0000   1022.9510 307.5922196  +6.2523340     713.8222     1109.736     1336.093     88.66175     157.7178      289.723      1.472     5.38     1259.302      64.8567     141.1375         7     1.593     0.512  78.17  27
        11    741.3610   1022.6957 307.5912463  +6.2525182     835.8228     1257.199     1220.976     91.35361     162.0951     294.9718      1.493     5.35     1259.296      64.8567     124.8722         7     1.294     0.625  63.04  19
        12    460.0375   1023.1412 307.7082316  +6.2429216     1705.899     2772.194     2836.202     87.43877      155.483     286.8749      1.716     6.00     1261.589      64.8567     224.7302        17     1.525     0.769  17.98  24
        13    145.3077   1023.4875 307.8391081  +6.2322176     4050.338     5872.531     6377.893     82.69167     149.8401     280.3731      1.462     4.37     1260.399      64.8567     852.3826        18     1.552     0.648   7.62  24
        14    787.5666    996.1295 307.5729204  +6.2650280     9337.371     19747.48     21240.18     92.08739     184.0285     368.0205      2.211     4.87     1257.773      64.8567     1016.109        55     1.808     1.550  49.67   0
        15    571.0945    987.2112 307.6632520  +6.2614719     92439.65     216163.4     261145.1     91.79459     183.6625     367.6912      2.484     5.21     1259.416      64.8567     9711.755       133     2.187     1.909  60.64   3
        16    573.1333    979.8874 307.6626503  +6.2645633     42885.28     97135.21     112441.9     92.23344     184.2478     367.9839      2.354     5.61     1259.061      64.8567     4339.318        82     2.054     1.623  32.25   3
        17    205.0255    990.2204 307.8153957  +6.2479558     2167.198     4932.236     6086.027     91.79459      183.809     367.8376      2.458     6.28      1259.57      64.8567     241.3495        36     1.802     1.412  39.58   0
        18    747.0621    989.1351 307.5900013  +6.2665622     633.2742     1118.176     610.7851     92.23344     184.0285     367.9839      1.721     6.11     1257.682      64.8567     96.17493         7     1.289     0.813  -3.87   0
        19    781.8413    983.9235 307.5757110  +6.2698753     4503.199     9538.306     10388.49     92.08739     184.0285     367.9839      2.254     5.08     1257.206      64.8567     492.3541        48     1.915     1.515  53.12   0
        20    879.5774    980.3900 307.5351794  +6.2745968     994.5228     1990.503     1920.783     91.79459     183.7357     367.7644      2.001     6.94     1255.391      64.8567     107.9672        13     1.391     0.969  14.41   0
        21    203.1432    979.6116 307.8165364  +6.2522715     1211.409     2439.502     3357.935     91.50084     183.9554     367.5814      2.446     5.97     1259.415      64.8567     174.8439        16     1.381     1.122 -70.06   0
        22    705.5139    976.5042 307.6077056  +6.2703876      4389.76     10068.58     11728.26     92.23344     184.4669     368.0205      2.451     5.62     1257.282      64.8567     450.2371        54     2.139     1.609  26.53   0
        23    420.4637    976.5405 307.7262584  +6.2608313     2136.219     5103.617     7199.667     92.37927     183.9554     367.9839      2.824     8.26     1260.256      64.8567     244.9519        40     2.016     1.571  53.28   0
        24    738.3049    977.5744 307.5940314  +6.2710417      720.447     1419.015     2784.258     92.37927     183.7357      367.801      3.517     5.15     1257.233      64.8567     133.2791         7     1.334     0.561  56.88   0
        25    562.0143    975.6463 307.6674173  +6.2659418     2409.704     5720.098     7588.104     91.50084      183.809     367.6912      2.665     6.22     1259.236      64.8567     265.1095        38     1.822     1.452  59.80   1
        26    945.2099    965.8559 307.5083682  +6.2827857     4726.863     9850.646     10366.34     91.50084     183.9554     367.5814      2.143     4.85     1253.427      64.8567     548.9803        43     1.735     1.427  53.78   0
        27    705.1046    963.9487 307.6082973  +6.2755567     1628.136     3758.761     5177.844     92.08739     183.9554     368.2399      2.758     6.77      1256.76      64.8567      171.202        30     1.556     1.455 -60.29   2
        28    428.5467    966.2498 307.7232431  +6.2653500     435.9143     993.1203     1075.803     92.37927     183.9554     367.9839      1.631     3.74     1259.953      64.8567     87.61377         5     1.539     0.261 -49.33   0
        29    230.2199    965.9290 307.8057371  +6.2588288     907.7379     1890.258     2095.229     91.79459     183.8822     367.8742      2.664     5.99     1259.392      64.8567     140.6586         9     1.327     0.775  67.05   0
        30    351.6885    961.2104 307.7553781  +6.2648532     994.1586      2468.88      2848.18     91.79459     183.6625     367.7278      2.519     7.89     1259.916      64.8567     138.2839        19     1.425     1.221  15.77   0
        31    738.4458    951.1080 307.5948610  +6.2819715     4881.798     10803.37     12174.51     92.23344     183.9554     368.0937      2.305     5.36      1255.99      64.8567     540.0844        53     1.938     1.564  57.44   0
        32    534.2573    951.0312 307.6797893  +6.2751733     2302.123     5572.315     7648.482     92.08739     184.0285     367.8376      2.792     8.06     1258.559      64.8567     234.6606        42     2.173     1.548  87.07   3
        33    531.4479    943.8559 307.6811991  +6.2780410     4589.937      10957.2     13056.75     92.23344     184.0285     368.0571      2.491     5.95     1258.268      64.8567     463.6252        54     1.887     1.748  57.53   3
        34    284.2827    950.6208 307.7837689  +6.2669626     8104.719     19598.98     24849.59     91.94111     183.6625     367.8742      2.601     5.57     1259.585      64.8567     889.1128        82     2.150     1.994   3.27   0
        35    799.1628    950.3421 307.5696330  +6.2843159     590.5544     1265.376     1663.695     92.23344     184.1017     367.9474      1.587     3.55     1255.328      64.8567     134.7146         5     1.167     0.312 -79.90   0
        36    899.7701    944.4930 307.5279836  +6.2900885     5983.251     12478.08     13030.69     92.37927     183.7357     367.8376      2.151     5.04     1253.542      64.8567     689.7091        51     1.845     1.468  66.45   0
        37    873.3349    940.6022 307.5391092  +6.2908125     8308.187     17811.48     20255.94     91.50084     183.6625     367.6912      2.248     4.75     1253.516      64.8567     963.1639        56     1.830     1.556  54.21   0
        38    517.8688    940.0959 307.6869733  +6.2791384     2311.377     5846.655       6991.5     92.08739     184.1748     367.9839      2.496     6.11     1258.392      64.8567     281.9067        41     1.721     1.713  22.34   0
        39    994.9926    940.0095 307.4885274  +6.2951146      3464.83     7335.353     8112.403     91.64783      183.809      367.801      2.193     4.99     1249.496      64.8567     423.9768        41     1.758     1.431  55.36   0
        40    627.6569    939.0855 307.6413443  +6.2832301     835.0277     1594.256     1543.108     92.23344     184.0285     368.1302      2.017     6.30     1256.794      64.8567     102.8281        10     1.513     0.736 -76.17   0
        41    586.3094    940.2810 307.6585014  +6.2813532     837.4099      1687.56     1775.689     91.94111     184.3209     367.9839      2.240     4.86     1257.338      64.8567     124.3798         7     1.037     0.645  79.52   0
        42    470.7462    936.1639 307.7067045  +6.2791830      1111.35     2532.967     2468.706     92.08739     184.0285     367.9839      2.249     8.46     1259.185      64.8567     139.9683        18     1.465     1.364 -60.93   0
        43    905.0714    928.1349 307.5263267  +6.2970178     29504.55      62661.3     70028.97     92.23344     184.1017     368.0205      2.249     4.69     1252.838      64.8567     3476.448        82     1.970     1.621  54.37   0
        44    213.8312    927.5120 307.8138490  +6.2741359     939.3573     1891.039     1749.683     92.37927      183.809     367.8742      2.084     6.55     1258.816      64.8567     143.5438        12     1.509     1.061 -87.86   0
        45    803.0625    921.8920 307.5689652  +6.2961901     1434.934     3099.212      3743.28     92.23344     184.1748     368.0205      2.205     8.24     1253.626      64.8567     157.6091        21     1.748     1.087  28.01   0
        46    751.2098    919.9072 307.5905991  +6.2952773     3845.514     9100.038     10907.16     91.79459     183.5892     367.7278      2.457     5.47     1254.176      64.8567     397.9487        52     1.821     1.707  62.04   0
        47    221.2141    918.7185 307.8110750  +6.2780136     845.3743     1610.626     1776.602     91.79459     183.7357     367.7278      2.258     5.77     1258.728      64.8567     139.5811         9     1.370     0.684  57.76   0
        48     44.6978    919.9683 307.8844456  +6.2715642     603.4083     1036.656     1111.184     92.23344     183.8822     368.0571      1.482     3.51     1257.448      64.8567     116.6381         5     1.025     0.348  44.18   3
        49     46.4073    916.8375 307.8838404  +6.2729140     1579.287     3211.729     3410.679     91.35361     183.7357     367.6546      2.044     6.16     1257.313      64.8567     183.7347        23     1.494     1.247  32.67   2
        50    939.3782    914.7924 307.5125040  +6.3036699     4671.861     9703.822     10400.55     91.64783      183.809     367.6912      2.173     4.78     1251.369      64.8567     544.4001        40     1.700     1.413  55.78   0
        51    913.5896    906.7557 307.5234999  +6.3061272     1395.769     2848.915     3049.043     91.64783     183.8822      367.618      2.186     5.14      1251.53      64.8567     186.1398        18     1.334     0.967 -47.95   0
        52    634.0945    902.6103 307.6398922  +6.2985019     2451.797     6050.702     7495.593     91.79459     183.5892     367.7278      2.596     6.99     1254.598      64.8567     260.4133        46     1.944     1.668  87.13   0
        53    246.3859    903.0619 307.8011340  +6.2853216     2180.865     5560.491     6264.252     91.64783      183.809     367.7278      2.517     6.54      1258.56      64.8567     252.6926        41     1.757     1.650  74.45   0
        54    772.9756    903.8732 307.5820839  +6.3026231     792.3172      1560.87     1800.819     91.79459      183.809     367.8742      2.389     6.22     1252.677      64.8567     110.4934         9     1.215     0.895  82.97   0
        55     15.6084    900.6702 307.8971958  +6.2785510     1090.583     2544.356     3024.825     91.64783     183.5892      367.801      2.472     9.12       1256.5      64.8567     132.9883        19     1.690     1.374  42.44   0
        56    560.1295    894.8659 307.6709170  +6.2992236     850.4414     1632.602     1706.448     92.23344     184.1017     367.9474      2.056     4.90     1255.015      64.8567     118.9495         7     0.995     0.684  44.93   0
        57    278.1454    890.4232 307.7883509  +6.2916048     722.7414     2038.465     3229.469     91.64783     184.0285     367.7278      2.770     7.80     1258.461      64.8567     120.4247        11     1.818     0.935 -73.65   0
        58    960.1791    888.6451 307.5047277  +6.3151570     1061.973     808.3984     1300.689     91.79459     183.8822     367.7278      0.725     1.35     1248.603      64.8567      430.069         5     0.526     0.478   0.43   0
        59    882.1110    881.8265 307.5374288  +6.3153676     4371.004     9564.682     10480.62     92.37926     183.7357      367.801      2.250     5.20     1250.484      64.8567      497.299        47     1.796     1.559  46.02   0
        60    319.8307    877.8284 307.7714377  +6.2982027     4690.586     12389.89     15242.74     91.64783     183.7357     367.6912      2.626     6.19     1258.054      64.8567     500.9729        57     2.034     1.706  68.92   0
        61    240.0283    876.7224 307.8046666  +6.2959804     3378.182     8845.382      10559.1     92.08739     183.9554     367.9474      2.609     6.88     1257.848      64.8567     369.0767        55     2.114     1.747  51.47   0
        62    418.0285    878.7385 307.7305639  +6.3011205     1089.159     2401.379     2614.582     91.79459     184.0285     367.9108      2.475     8.06     1257.287      64.8567     133.5891        17     1.780     1.021  -2.09   0
        63    752.8534    870.6739 307.5915677  +6.3156552     599.5806     1058.492     1310.055     92.08739     184.0285     367.9108      1.752     5.32     1250.625      64.8567     87.68359         6     1.106     0.724  -7.57   0
        64    733.2966    858.9750 307.6000950  +6.3198309     911.7406     1873.993     2868.051     92.37926     183.7357      367.801      2.792     8.54     1250.216      64.8567     115.2396        14     2.106     0.967   8.91   2
        65    652.8727    853.3260 307.6337372  +6.3194740     1385.783     3440.688     4514.552     92.52486     184.1748     368.0205      2.694     8.92      1250.85      64.8567     174.6456        28     1.809     1.542 -66.28   0
        66    966.1773    855.2563 307.5033508  +6.3291397     743.9965      1413.53     2483.081     91.79459     183.9554     367.7278      2.062     5.36     1246.153      64.8567     100.6514         7     1.219     0.665  14.76   0
        67     66.0828    849.6220 307.8779285  +6.3013203     731.2881     1698.766     2704.899      91.9411     183.6625      367.801      2.709     5.12     1255.044      64.8567     112.2441         9     1.832     0.404 -72.34   0
        68     51.3373    850.6579 307.8840264  +6.3003967     1003.884     1701.985     2466.534     92.37927     183.9554     367.9839      1.767     3.50     1254.774      64.8567     152.0359         8     0.977     0.608  46.99   3
        69     49.3391    847.9750 307.8849481  +6.3014369     1185.585     2261.323      3740.43     91.79459     184.0285     367.8376      2.772     8.73     1254.661      64.8567     144.6616        18     2.384     0.894 -73.09   2
        70    931.6494    849.5359 307.5179048  +6.3303496     613.2767     1298.741      1574.02     92.08739     183.9554     368.0205      1.752     5.35      1247.18      64.8567     90.46948         6     1.304     0.620 -38.07   0
        71    193.6617    848.5072 307.8249034  +6.3060695     1059.002     2128.801     1708.781     92.08739     184.0285     368.0205      2.053     7.88     1257.155      64.8567     122.3115        18     1.432     1.213  38.80   0
        72     69.2994    849.7401 307.8765866  +6.3013798     785.2601     1377.259     2078.257     91.94111     183.9554     368.0937      2.126     3.20     1255.103      64.8567     147.0524         6     0.726     0.634  34.41   1
        73    647.4504    842.4056 307.6363595  +6.3238004     3629.844     9046.078     11086.05     91.50084      183.809     367.5081      2.621     6.15     1250.087      64.8567     363.0525        55     1.952     1.756  60.84   0
        74    330.5272    836.1505 307.7683933  +6.3157653     7492.838     20489.86     26249.58     92.23344     184.1017     367.9839      2.780     6.43     1256.648      64.8567     798.9058        81     2.290     1.897  63.05   0
        75      8.6983    841.0749 307.9020844  +6.3029174     723.3378     1687.636     1765.211     91.64783     184.1748     367.9108      2.244     5.21     1253.659      64.8567     119.4215         8     1.627     0.471  57.14  16
        76    885.1974    838.8455 307.5375855  +6.3332128     1655.284     4244.474      4751.55     91.50084     183.5892     367.5447      2.462     6.42     1247.447      64.8567     221.2943        30     1.678     1.384  89.39   0
        77     63.9954    836.9667 307.8792243  +6.3064738     599.4694     1341.624     2406.828     91.35361     183.8822     367.6912      2.604     5.07     1254.708      64.8567     102.7998         5     1.396     0.522 -77.71   0
        78     93.9771    825.3227 307.8671476  +6.3122886     744.3333      1877.53     2591.081     91.79459      183.809     367.8742      2.473     5.81     1255.115      64.8567     105.4688         9     1.794     0.529  39.19   0
        79    875.7861    820.6987 307.5421086  +6.3403896     1132.952     2605.231     2194.158     92.08739     183.7357     367.6546      2.094     6.38     1246.241      64.8567     162.0549        19     1.660     1.336  86.53   0
        80    846.7549    820.4861 307.5541919  +6.3395084     1068.598     2221.593     2549.528     92.23344     183.8822     367.9474      2.393     6.12     1246.656      64.8567     134.5601        12     1.419     0.857 -39.17   2
        81    809.3682    819.1317 307.5697891  +6.3388192     1656.379      4045.75     4924.495     92.08739     184.0285     367.9108      2.634     7.82     1247.012      64.8567     179.8025        32     1.965     1.558  58.66   0
        82     77.5824    820.1251 307.8741421  +6.3138826      1132.58     3270.532     3740.086     91.64783     183.7357     367.8376      2.561     9.49     1254.646      64.8567      165.813        28     1.870     1.345  24.99   0
        83    545.5287    811.0509 307.6798086  +6.3333324     153511.4     417050.4     513022.5     92.23344     184.0285     367.9839      2.716     6.33      1251.16      64.8567      14655.5       203     2.369     2.079  57.09   0
        84    390.0496    813.8088 307.7443881  +6.3269841      3393.59     9411.633     11491.71     91.64783      183.809     367.5814      2.689     6.56     1254.303      64.8567     379.0129        61     2.144     1.768  67.28   0
        85    333.0720    812.1226 307.7681446  +6.3257689     5479.223     15408.73     19998.85     92.52486     184.3209     367.9474      2.836     6.93     1255.714      64.8567     658.1205        74     2.212     1.964  54.90   0
        86    651.5495    808.6003 307.6357902  +6.3378919     1676.094     4395.286     5176.825     91.35361     183.5158     367.4348      2.493     7.82     1247.596      64.8567     180.3385        33     1.829     1.416 -76.60   0
        87    883.6654    806.9676 307.5392912  +6.3463207     3086.091     7285.447     9023.171     92.08739     184.1017     367.9108      2.506     6.34     1244.894      64.8567     314.9047        49     1.943     1.730  18.73   0
        88    626.5963    801.8714 307.6463960  +6.3398348     1579.639     3850.461     5368.297     91.64783     183.5892     367.7644      3.009     7.95     1247.316      64.8567     174.4767        33     1.821     1.457  53.64   2
        89   1017.2089    801.0105 307.4839393  +6.3532332     2978.719     6492.479     7287.408     91.64783      183.809      365.009      2.306     5.03     1240.751      64.8567     375.3323        40     1.785     1.380  52.57  16
        90    814.7582    801.3412 307.5681437  +6.3463430     916.1953     2010.167     2274.969     92.23344     184.0285     368.0205      2.301     6.97     1246.019      64.8567     127.2332        12     1.293     1.055 -45.26   0
        91    618.8869    797.7141 307.6497426  +6.3412930     950.1607      3270.28     4622.513      91.9411     184.2478     368.0205      3.310    10.40     1247.186      64.8567     131.2971        28     2.024     1.490 -52.41   0
        92    902.7919    794.6685 307.5317472  +6.3520359     1693.199     4321.209     4212.421     91.64783     183.7357     367.8376      2.336     7.07     1243.509      64.8567     222.3468        37     1.892     1.589 -75.29   0
        93    361.0397    790.8896 307.7572269  +6.3354717     1164.492     3085.637      3855.87     92.23344     184.0285     367.9839      2.701     9.66     1253.906      64.8567     139.5216        26     1.915     1.359  52.22   0
        94    495.7296    782.0154 307.7014999  +6.3436499     1137.605     2217.361     3412.356     91.64783     183.9554     367.8376      2.541     5.45     1250.564      64.8567     145.4038        15     1.425     0.898  44.95   3
        95    499.2268    781.0011 307.7000793  +6.3441858     1056.632     2173.982     3604.297     91.79459     183.6625     367.6912      2.871     8.14     1250.409      64.8567     162.1996        18     2.409     0.770  48.28   3
        96    543.9496    776.9866 307.6816111  +6.3473408     2523.063     7380.831     10605.13     91.50084     183.9554      367.618      3.130     7.52     1249.161      64.8567     308.3534        52     2.016     1.825 -43.55   0
        97    463.6412    775.6381 307.7150623  +6.3452073     718.8494     1419.221     1478.387     91.94111     184.1017      367.801      2.337     4.63     1250.804      64.8567     107.7216         8     1.313     0.463  45.30   0
        98    514.6013    770.8262 307.6940264  +6.3489008     8558.575     24404.15     30331.39     91.79459     183.6625     367.6912      2.742     6.55     1249.253      64.8567     910.1697        83     2.196     1.981  45.10   0
        99    928.3876    768.6868 307.5219704  +6.3636148     2404.263     5208.073     5807.674     91.79459      183.809      367.801      2.268     5.91     1241.531      64.8567     275.3829        37     1.730     1.453  75.87   0
       100    310.0000    760.0786 307.7794958  +6.3464774     958.7151     1620.244     2629.689     91.35361     183.2957      367.618      2.310     8.19     1254.239      64.8567     172.8259        12     1.942     1.136 -62.21   3
       101    306.9774    759.0000 307.7807895  +6.3468211     1112.058     3136.116     3942.918     91.64783     183.5892     367.6912      2.785     8.65      1254.25      64.8567     146.2572        17     1.641     1.273 -66.04   3
       102      8.2588    758.5717 307.9050567  +6.3369573     1033.225     2674.547     3095.768     91.79459     184.1017     367.2883      2.553     7.17     1250.277      64.8567     161.0309        18     1.794     1.197  89.62  16
       103    229.5428    732.0542 307.8139083  +6.3553438     766088.6      2492310      3295467     92.37926     184.0285     367.9839      3.049     8.12     1252.692      64.8567      64282.9       597     2.916     2.391  70.59   4
       104    897.9985    750.2272 307.5352307  +6.3702210     4670.449     11182.97      13329.4     91.64783     183.7357     367.6912      2.518     5.80     1241.133      64.8567     492.8885        51     1.952     1.586  61.98   3
       105    895.0764    741.7150 307.5367316  +6.3736373     3658.358     8679.508     10655.94     92.37927     184.3939     368.0205      2.566     5.78     1240.732      64.8567      371.927        51     1.934     1.634  49.14   3
       106    339.7429    747.4923 307.7675480  +6.3526708     8267.903     24806.85     30890.03     92.08739     183.9554     368.0571      2.817     7.04     1253.142      64.8567     879.7793        85     2.272     2.001  58.13   0
       107    401.4917    745.3019 307.7419361  +6.3556461      9119.99        26933     33766.83     92.23344     184.6128     367.9108      2.829     6.95     1251.519      64.8567     937.0228        87     2.298     1.999  53.98   0
       108    389.5337    747.1974 307.7468465  +6.3544627     760.0818     2073.568     2611.005     91.50084     183.6625     367.6912      2.573     7.96     1251.901      64.8567     97.11304        13     1.766     1.003  19.77   0
       109    938.5923    744.1588 307.5185471  +6.3740803     1178.186     2592.369     2633.459     91.50084      183.809      367.618      2.232     7.55     1239.926      64.8567     177.6672        18     1.395     1.144  73.89   0
       110    635.5196    741.1251 307.6447255  +6.3652087     2853.981     7700.719      9640.81     92.52486     184.3209     368.0205      2.718     6.63     1244.418      64.8567     287.4384        54     2.004     1.777  49.27   0
       111    772.6835    755.1700 307.5871951  +6.3639967     27296.25     69914.73     83617.23     92.23344      183.809     367.8376      2.592     5.92     1243.115      64.8567     2731.806       103     2.156     1.915  52.97   0
       112    424.0395    739.4203 307.7327549  +6.3588300     772.8209     1954.088     2357.732     91.79459      183.809     367.6546      2.385     5.64     1250.399      64.8567     96.25232         7     1.219     0.734 -38.10   0
       113    404.4579    727.9557 307.7412865  +6.3629058     21463.92     64399.56     82566.05     92.08739     183.9554     368.0205      2.879     6.99      1250.47      64.8567      2309.13       119     2.389     2.106  52.29   0
       114    671.0212    729.7703 307.6303387  +6.3710833     799.8563     2318.032     2392.783     91.64783      183.809      367.801      2.381     5.81     1243.087      64.8567     119.6049        10     1.712     0.555  35.66   0
       115    439.0038    725.1600 307.7270102  +6.3652180     1939.259     5547.482     7877.957     91.35361     183.7357     367.6546      3.097    11.95     1248.658      64.8567     232.8488        52     2.735     1.615  44.38   2
       116    436.6462    717.8887 307.7282358  +6.3681405      816.093     2128.344     2841.701     92.23344     183.8822     368.0571      2.650     8.30     1248.368      64.8567     107.3514        16     1.902     1.013  27.90   3
       117    767.1849    723.2004 307.5905554  +6.3770097     5438.665      14512.7     17609.54     91.79459     183.6625     367.6546      2.682     6.28     1240.841      64.8567     538.1985        68     2.096     1.835  59.78   0
       118    695.8871    746.9968 307.6194160  +6.3648039     36946.67     105898.9     158985.7     91.50084     183.5892     367.6546      3.246     8.67     1243.658      64.8567     4032.734       182     3.566     2.064  31.67   0
       119    124.4945    715.4358 307.8581658  +6.3586730     4358.743     13572.13     21413.23     92.37927     183.8822     368.0571      3.938    10.80      1251.48      64.8567     606.5309       132     4.700     2.190  38.82   2
       120    133.6481    715.6609 307.8543506  +6.3588879     1305.613     3186.085     3994.653     92.23344     183.9554     368.0205      2.481     8.58     1251.637      64.8567     157.6871        20     1.706     1.206  16.81   3
       121    912.6996    711.8703 307.5304005  +6.3865450     3477.923     8527.571     9873.226     92.08739     184.1748     367.9839      2.496     5.86     1238.218      64.8567     350.3789        51     1.915     1.658  58.77   0
       122    961.6931    714.0190 307.5099467  +6.3872922     620.2595     1624.636       2537.9     92.08739     183.7357      367.801      3.313     5.97     1237.192      64.8567     107.1135         6     1.510     0.665 -81.29   2
       123    962.3174    710.3214 307.5098109  +6.3888394     681.7619         1472     2886.677     92.37927     184.3209     368.0937      2.423     3.78     1236.934      64.8567     105.2889         5     0.851     0.483  -8.45   3
       124    556.2508    709.3163 307.6787700  +6.3756859      855.277     2329.053     2844.266     92.23344     183.9554     368.0571      2.626     8.53      1244.33      64.8567     119.4373        15     1.617     1.256 -87.69   0
       125    522.1295    726.7657 307.6923772  +6.3673404     2859.321     8410.727      10334.1     92.08739     184.0285     368.0205      2.823     7.68     1245.954      64.8567     287.5081        54     2.039     1.828  69.16   0
       126    907.2180    704.0107 307.5329444  +6.3896065     1556.082     3793.186     4451.713     91.79459     183.6625      367.801      2.648     7.19     1237.743      64.8567     177.1692        27     1.609     1.419 -86.65   0
       127    936.5121    703.1133 307.5207877  +6.3909542     1794.437     3964.266     4219.622      91.9411     184.3939     368.0571      2.169     5.86     1236.937      64.8567      223.455        29     1.634     1.358   2.65   0
       128    967.4958    702.5945 307.5079154  +6.3922017     1272.974     2405.921     2453.094     91.94111     183.6625     367.7278      1.957     6.46      1236.39      64.8567     156.6018        16     1.379     0.941   2.83   0
       129    230.7296    698.5002 307.8145468  +6.3692339     774.3701     2227.019     3639.279     92.08739     184.1748     367.9839      4.664     7.47     1249.605      64.8567     113.9482         8     1.869     0.837  88.59   2
       130    951.3120    690.5453 307.5150518  +6.3966358     1333.009     3230.658      4173.74     92.23344     183.8822     368.1302      2.648     9.18     1235.826      64.8567     172.2084        24     1.752     1.418  52.28   0
       131   1023.3595    684.4754 307.4852818  +6.4015434     2170.214     3516.566     3651.561     84.46326     151.8035     283.0013      1.687     6.90     1234.845      64.8567     401.0889        19     1.731     0.770  77.87  24
       132    993.2758    684.0059 307.4978130  +6.4007345     937.8962     2398.351     2130.919     91.79459     183.4425     367.7644      2.396     6.75     1235.046      64.8567     141.8877        15     1.389     1.131 -31.81   0
       133    880.3728    679.6838 307.5449279  +6.3987527     929.6061     2006.952     2242.542     92.23344     183.7357      367.801      1.979     6.90     1236.839      64.8567     133.3336        12     1.641     0.814  84.86   0
       134     37.4311    670.9625 307.8958843  +6.3741014     1105.621      2788.61     3537.485     91.79459     183.7357     367.7644      2.500     8.86     1249.031      64.8567     157.2109        19     1.590     1.379 -45.26   0
       135    838.5021    671.3662 307.5626259  +6.4007884     783.7632     1716.033     1668.419     92.23344     183.8822     368.0937      2.189     5.39     1236.777      64.8567     101.4771         7     1.211     0.678   8.15   0
       136    649.6317    659.5201 307.6415972  +6.3993663     2627.779     7155.667     8139.348     92.08739     183.9554     367.9108      2.661     7.15     1238.359      64.8567     283.7469        52     2.072     1.720  77.55   0
       137    595.7375    658.2518 307.6640606  +6.3980865     730.8266     1534.697     2077.948     92.23344     183.9554     367.9108      2.394     7.41     1240.325      64.8567     124.5781         7     1.313     1.171 -22.72   0
       138    232.5871    658.2576 307.8151320  +6.3859074     759.4911     1837.013     3654.505     91.50084     183.8822      367.618      3.232     4.66     1246.618      64.8567     89.83923         7     0.886     0.697  16.47   0
       139    112.7538    655.3248 307.8650802  +6.3830903     1667.029      4570.31     5821.186     92.08739     184.1017     367.9474      2.751     7.97     1247.248      64.8567     219.9458        39     1.969     1.633  48.10   0
       140    986.4758    654.2536 307.5016384  +6.4127894     1613.824     3548.573     4123.651     92.23344     184.0285     367.9839      2.220     6.84     1233.791      64.8567     180.2582        26     1.559     1.263  83.91   0
       141    766.2449    651.3349 307.5933586  +6.4066437     8974.236     24463.79     30255.38     92.23344     183.9554     367.9474      2.734     6.46     1235.828      64.8567     896.1609        80     2.214     1.901  59.01   0
       142    623.0960    655.0671 307.6527861  +6.4003166     910.5649     2244.667     2962.893     92.23344     184.1017     367.9474      2.729     8.49     1239.253      64.8567     111.6705        14     1.432     1.406  57.45   0
       143    896.5464    650.8320 307.5391665  +6.4112023     1828.441     4607.328     5299.816     92.08739     184.1017     367.8742      2.495     6.68     1234.213      64.8567      225.501        37     1.739     1.595  69.91   0
       144    240.0400    645.5646 307.8124599  +6.3913971     2243.623     7293.735     10743.42      91.9411     183.9554     367.7278      3.348     8.43     1246.094      64.8567     321.8358        59     2.184     1.982  50.23   0
       145    646.9578    644.3361 307.6432198  +6.4055446     2718.591     8003.273     9553.077     92.23344     183.9554     367.9839      2.795     7.60     1237.604      64.8567     299.4824        58     2.113     1.893  72.81   0
       146    720.7502    632.9898 307.6129015  +6.4126960     1248.996     2889.799     4970.469     91.64783     183.8822     367.5814      3.561    10.50     1235.302      64.8567     162.8463        22     2.386     1.288  60.10   2
       147    717.6693    633.6586 307.6141608  +6.4123169     1446.301     2863.816     4340.188     92.37927     183.9554     367.9108      2.670     6.21     1235.419      64.8567     164.8542        16     1.372     0.945 -79.48   3
       148    984.5977    628.9579 307.5032671  +6.4231687     4878.326     11819.52     13210.98     91.50084     183.5892      367.618      2.441     5.54     1232.794      64.8567     520.9581        56     1.982     1.640  54.45   0
       149    923.1154    629.6383 307.5288233  +6.4208374     1348.859     3175.937     3604.865     92.23344     183.9554     367.8742      2.478     7.73     1232.442      64.8567      176.915        16     1.517     1.102 -42.14   0
       150      4.4720    628.4432 307.9110323  +6.3905425     794.7307     2069.817     3184.615     92.08739     184.0285     329.7477      3.108     8.57       1246.8      64.8567      151.574        17     2.385     0.860  42.79  24
       151     62.4013    624.6019 307.8870644  +6.3940779     9872.031     30727.04     40040.34     91.50084     183.5158     367.5814      2.898     7.18       1246.3      64.8567     1175.552        92     2.410     2.004  60.74   0
       152    524.9029    624.5016 307.6946642  +6.4096464     807.8536     1819.395     3310.984     92.23344     184.5398     367.7644      3.480     6.30     1239.673      64.8567     95.46545         9     1.320     0.846 -35.78   0
       153    708.3245    616.3868 307.6186286  +6.4191341     1362.058     4071.912     4950.581     91.64783     183.7357     367.7278      2.839     9.59     1234.798      64.8567      192.524        30     1.773     1.566 -67.56   0
       154    730.1260    614.3884 307.6096256  +6.4206878     1759.435     4980.991     6229.559     91.64783     183.5892     367.7644      2.817     9.63     1234.062      64.8567     166.3745        39     1.941     1.656 -86.80   0
       155    563.2535    612.0494 307.6791283  +6.4160708     1144.732     3177.663     5314.047     92.37927     184.0285     367.9839      3.091     8.21     1237.395      64.8567     148.9886        21     2.375     0.793  45.50   2
       156   1003.1826    610.4248 307.4961556  +6.4314386     2692.385     6186.606     6609.735     91.94111      183.809     367.8742      2.309     5.92     1232.257      64.8567     301.7365        38     1.701     1.455  61.48   0
       157    968.4671    609.3418 307.5106352  +6.4307283     4537.497     10748.84     12141.32     92.37927     183.9554     367.9474      2.453     5.69     1231.789      64.8567     459.9285        51     1.884     1.636  59.65   0
       158    223.1154    611.5914 307.8206470  +6.4048519     676.6309     1631.938     2385.272     91.79459     183.6625     367.7644      2.203     5.33     1245.143      64.8567     96.61536         9     1.554     0.516  33.28   0
       159    127.1280    603.4659 307.8608525  +6.4049796     8864.155     27977.36     35948.81     92.23344     184.1017     368.0205      2.912     7.46     1245.161      64.8567     1016.437        89     2.364     2.057  60.32   0
       160    414.0957    603.9805 307.7414532  +6.4144036     1121.186     3192.301     4651.958     92.08739      183.809     367.7278      3.212     9.80     1241.034      64.8567     146.0281        23     1.812     1.480  60.23   0
       161    796.0206    603.5811 307.5825737  +6.4273508     506.7067     1125.644     1672.021      91.9411     183.9554     367.8376      2.260     4.87     1232.979      64.8567     75.32373         5     1.435     0.468  -6.64   0
       162    963.1666    592.3178 307.5134108  +6.4375789     3848.813     9449.075     11720.72     92.23344     183.9554     367.9108      2.578     6.09     1229.882      64.8567      409.509        55     1.994     1.684  41.14   0
       163    457.8338    595.0918 307.7235565  +6.4195390     2445.709     2305.468     1941.023     92.37926     183.8822     368.0205      0.701     1.50      1239.44      64.8567     1137.328         7     0.699     0.419 -46.52   0
       164    555.6512    589.3096 307.6830560  +6.4252029     13667.79     27183.59      30942.9     92.23344      183.809     368.0937      2.129     5.55     1235.792      64.8567     1677.919        35     1.950     1.146  50.91   3
       165    558.0353    587.1120 307.6821381  +6.4261898     18044.45     42176.59     54069.53     92.23344     183.8822     367.9474      2.525     7.29     1235.569      64.8567     1727.238        81     2.658     1.497  35.72   3
       166   1018.5645    587.3672 307.4905281  +6.4414694     52579.47     122915.8     141640.1     91.79459     183.7357     353.5827      2.438     5.35     1229.438      64.8567     5965.979       110     2.123     1.784  57.80  24
       167    164.6722    583.3859 307.8459121  +6.4145303     1027.339     2988.619      4839.27     91.64783     183.7357      367.801      3.963     8.79     1243.656      64.8567     145.5875        15     2.070     1.042  51.44   2
       168     57.2654    577.8502 307.8907813  +6.4132028     657.9091     1464.039      2596.16     92.08739     183.9554     367.9474      2.807     5.16     1243.441      64.8567       75.349         7     1.147     0.657 -33.06   0
       169    452.6773    573.3272 307.7264346  +6.4283502     17466.07     32590.55     35879.66     92.52486     184.3209     367.9474      2.007     6.15     1237.481      64.8567      2044.35        38     1.837     1.145  53.89   3
       170    455.5816    570.9592 307.7253061  +6.4294250     22831.61     53956.76     70073.51     91.79459      183.809     367.6912      2.654     7.90     1237.211      64.8567     2348.358        92     2.781     1.635  39.75   3
       171    300.3855    559.8946 307.7902455  +6.4287861     812.5123      2210.24     3428.636      91.9411     183.7357     367.7644      3.151     8.33     1238.684      64.8567     120.4658        14     1.761     1.102  13.31   0
       172    726.0944    555.0269 307.6132964  +6.4450569     2257.831     6425.002     7785.995     92.37927     183.7357     367.7644      2.778     7.72     1230.963      64.8567      241.233        52     2.055     1.772  72.45   0
       173    779.6732    550.4077 307.5911597  +6.4487542     5673.585     16263.32     19607.27     91.79459     183.5158      367.801      2.728     6.75     1230.472      64.8567     554.9659        71     2.209     1.890  54.39   0
       174   1019.5546    549.2103 307.4913939  +6.4572534     1111.296     2762.988     3006.284     91.64783     183.8822     342.2468      2.560     8.59     1224.273      64.8567     150.6151        19     1.623     1.271  72.51  16
       175    602.4003    549.8200 307.6649346  +6.4430687     1013.747     2545.932     3620.781     91.79459     183.5158     367.5814      2.918     7.40     1231.085      64.8567     131.3137        12     1.462     1.048  48.29   2
       176    606.0811    548.5332 307.6634465  +6.4437230     1003.478     1966.971     3743.852     92.37926     184.3209     367.9839      3.185     4.84     1230.862      64.8567     149.6021        10     1.318     0.698  70.46   2
       177    855.3127    533.4035 307.5602595  +6.4582996     1192.714      3290.18     3792.464     91.64783     183.6625      367.618      2.759     9.03     1228.281      64.8567     172.1622        24     2.090     1.397 -88.90   2
       178    814.2141    531.1346 307.5774354  +6.4578638     1007.359     2495.135     2397.201     91.64783     183.8822     367.8742      2.326     7.12     1228.912      64.8567     131.2762        18     1.613     1.304 -63.71   0
       179    794.9870    522.2356 307.5857338  +6.4608950     63325.75     185927.5       237449     91.64783      183.809     367.6546      2.869     6.91     1228.602      64.8567     6739.425       179     2.400     2.338  31.09   0
       180    242.9802    526.5638 307.8152524  +6.4406165     2667.745     8685.124     11802.84     91.64783      183.809     367.6912      3.057     7.95     1237.066      64.8567     303.3052        68     2.254     2.054  56.04   0
       181    178.2010    520.2856 307.8424147  +6.4410312     21385.98     52206.79     69411.72     91.35361     183.5158     367.5814      2.721     8.05     1238.904      64.8567     2230.172        93     2.792     1.770  45.33   3
       182    175.4528    522.5104 307.8434829  +6.4400205     16341.02     30749.23     33310.23     92.23344      183.809     368.0937      1.965     5.03     1239.196      64.8567     1822.842        29     1.551     1.180  55.90   3
       183     99.0000    518.9930 307.8754084  +6.4389014     1276.466     2041.133     3696.035     91.35361     183.5892     367.6912      2.309     5.21     1240.516      64.8567     198.0754        11     1.242     0.619  70.82   3
       184    102.1095    516.5956 307.8741958  +6.4399956     2355.028     5723.242     8371.279     91.64783     183.6625      367.618      2.978     9.06     1240.413      64.8567     271.8424        45     2.348     1.662  63.97   2
       185    966.1522    513.2125 307.5148191  +6.4703327      909.207     1983.527     2349.041     91.50084     183.8822     367.5814      2.189     6.27     1222.934      64.8567     117.2694        11     1.202     0.918  48.86   0
       186    348.7787    509.5915 307.7718083  +6.4511744     4878.657     10873.72     13647.01     91.79459      183.809     367.6912      2.396     6.80      1234.62      64.8567     516.3951        34     2.123     1.037  44.44   3
       187    351.4262    506.8464 307.7707993  +6.4523964     5836.534     13987.87     17982.23     91.79459     184.1017     367.8376      2.602     8.09     1234.451      64.8567     633.8661        55     2.647     1.282  40.16   3
       188    831.6771    509.2762 307.5709030  +6.4674700     1891.904     5217.638     6106.654     92.52486     184.3209     368.0205      2.704     7.75     1226.641      64.8567     219.4316        43     1.854     1.784 -80.37   0
       189    518.3173    502.1801 307.7015205  +6.4599181     2277.249     4742.288     6105.994     91.79459     183.6625     367.8742      2.385    10.05     1230.277      64.8567     258.2716        37     2.485     1.305  53.77   3
       190    515.1174    504.1075 307.7027870  +6.4590153     1899.989     3982.495     4441.223      91.9411     184.3939     368.0937      2.326     7.08     1230.448      64.8567     229.5535        25     1.869     0.938  56.95   3
       191    785.6804    502.8813 307.5902557  +6.4685733     2323.147     6507.816     7779.312     92.23344     184.3209     368.0937      2.666     6.96     1227.407      64.8567     288.0054        47     1.929     1.706 -83.02   0
       192    153.4143    505.7560 307.8532176  +6.4461953     653.1149     1948.326     3812.186     91.50084      183.809     367.6546      3.580     4.33     1239.035      64.8567     93.43079         5     0.944     0.564  38.89   0
       193    163.8730    496.5748 307.8491765  +6.4503367     2054.183     7449.412     9742.464     91.79459     183.8822     367.8742      3.068     9.29     1238.251      64.8567     260.1296        58     2.283     1.940  78.75   0
       194    257.2372    494.0093 307.8104195  +6.4545331     21177.84     39279.07     44067.87     91.50084     183.7357      367.618      1.989     6.14       1234.8      64.8567     2740.409        34     1.793     1.175  78.92   3
       195    260.2590    491.8449 307.8092353  +6.4555280     31093.97     75023.31     103159.6     92.08739     183.9554     368.0571      2.791     8.46     1234.621      64.8567     3285.287       102     2.821     1.917  42.01   3
       196     35.8542    495.2758 307.9024807  +6.4465662      1892.78      6007.19     7198.218     92.08739     184.0285     367.9839      2.707     8.89     1240.374      64.8567     231.7914        46     1.959     1.759  75.51   0
       197    559.7225    496.0221 307.6845006  +6.4638469     843.1186     1868.377      2405.12     91.79459      183.809     367.9108      2.630     7.08     1229.393      64.8567     117.1975        10     2.368     0.593  -6.75   2
       198    562.6499    494.3116 307.6833401  +6.4646509      739.243     1492.718     2204.995     92.23344      183.809     368.0937      2.285     3.47     1229.248      64.8567     103.9197         5     0.743     0.467 -11.95   3
       199    485.5981    483.2683 307.7157704  +6.4666283     13858.12     47171.78     67744.14     91.50084     183.5158     367.7278      3.222     7.95     1229.298      64.8567     1408.689       124     2.554     2.338  50.49   0
       200    645.8815    476.8037 307.6492986  +6.4746638     1194.617      2988.55     5223.728     91.64783     183.5158      367.618      4.471    11.85     1227.281      64.8567     154.4847        25     2.194     1.783  55.99   2
       201    199.2051    480.2094 307.8350294  +6.4582795     941.1691     2171.514      2637.65     91.50084     183.7357     367.7644      2.322     6.04     1235.709      64.8567     108.0674        11     1.259     0.816  85.22   0
       202    313.2222    473.9608 307.7878031  +6.4646886     1137.811     2066.895     2652.547     91.79459      183.809     367.7278      2.190     6.20     1232.705      64.8567     138.7418        15     1.350     0.905  49.27   3
       203    315.6753    470.9720 307.7868833  +6.4660046     1255.079     3251.141      4319.17     92.08739     184.0285     367.9108      2.630    10.05     1232.434      64.8567     158.6152        26     2.432     1.159  55.90   2
       204    131.3534    470.4596 307.8635882  +6.4600228     9482.636     22517.57     30037.15     92.23344     184.0285     368.0571      2.703     8.63     1237.585      64.8567     941.0969        76     2.719     1.730  45.26   3
       205    128.3086    472.6340 307.8647815  +6.4590228      7267.09     14071.86     15648.19     92.37927     183.8822     367.9474      2.025     5.40     1237.937      64.8567      853.291        24     1.653     0.990  59.40   3
       206    781.7720    484.6542 307.5924937  +6.4759667     6315.073     18723.99     23324.66     91.94111     184.1017     367.8376      2.826     7.13     1226.262      64.8567     632.3818        76     2.246     1.944  63.92   0
       207    856.3533    471.0345 307.5619187  +6.4840797      659.884     1336.694     1359.561     91.79459     184.0285     367.8742      2.285     3.66     1222.521      64.8567      90.7998         5     0.874     0.478 -89.72   0
       208     95.6937    468.9196 307.8784763  +6.4594589     1010.026     3011.657     3550.541      91.9411     184.3209     368.0205      2.675     9.57     1238.828      64.8567     143.3923        25     2.037     1.433  17.71   0
       209    493.5817    468.3777 307.7129500  +6.4730424     546.3831     1217.226     2353.742     91.94111     183.9554     367.8742      3.598     5.65     1227.727      64.8567     78.79248         5     1.282     0.703  44.87   0
       210     64.6053    467.8151 307.8914478  +6.4588688      8182.87     8247.695     8213.957     91.79459     183.6625     367.7644      0.940     2.26     1239.211      64.8567       2105.8        10     0.782     0.550 -86.45   0
       211    955.4290    465.0054 307.5208963  +6.4898746     2435.098     6504.898     7308.989     91.64783      183.809     367.7278      2.603     7.00      1220.03      64.8567     255.7222        45     1.920     1.600  33.51   0
       212    633.2466    453.0052 307.6553558  +6.4840648     3659.431     8331.029      10874.2     91.50084      183.809     367.5814      2.492     8.29     1225.189      64.8567     420.2399        43     2.413     1.291  62.90   3
       213    637.0242    450.7778 307.6538589  +6.4851106     3702.748      7377.13     9333.659     91.79459      183.809     367.9108      2.249     9.05     1224.943      64.8567     406.3031        31     2.381     0.960  48.91   3
       214    425.4513    453.4995 307.7417982  +6.4769000     12133.68     23452.43     25458.11     92.23344     184.0285     368.2034      2.035     5.40     1228.375      64.8567     1354.174        33     1.588     1.226  50.12   3
       215    428.3620    451.0505 307.7406697  +6.4780085     13989.82     33155.34     45468.72      91.9411     183.9554     367.8742      2.802     8.91     1228.046      64.8567     1413.427        85     2.849     1.763  42.49   3
       216    190.5169    451.4915 307.8396139  +6.4698415     5258.498     10018.47     12125.16     91.94111     184.3939     368.0937      2.130     5.51     1233.708      64.8567     544.1141        25     1.606     1.056  51.75   3
       217    193.3932    448.9608 307.8385026  +6.4709828     7002.987     16808.39     23174.87     91.50084     183.6625      367.618      2.760     8.25      1233.49      64.8567     745.9592        68     2.744     1.654  49.25   3
       218    159.9411    451.0000 307.8523517  +6.4690165     623.8297     1385.658     2235.112     91.35361     183.5892     367.5447      2.265     4.88     1234.632      64.8567     115.0037         7     1.474     0.458  75.74   0
       219    555.3035    450.8828 307.6878579  +6.4823316     780.4767     1614.571     2096.493     92.08739     184.4669     368.0205      1.916     3.36     1225.523      64.8567     154.9363         5     1.221     0.268  57.20   2
       220    557.6981    447.6578 307.6869701  +6.4837431     1047.032     2802.956     4380.056     91.94111     183.9554     368.1302      3.130    10.03     1225.207      64.8567     147.9652        24     2.070     1.354  35.59   2
       221    930.6585    445.2154 307.5318665  +6.4972175     1974.149     5808.177      7568.21     91.50084     183.9554     367.6546      2.843     7.42     1218.996      64.8567     239.0614        48     1.970     1.777  62.51   0
       222    602.4796    445.9979 307.6683931  +6.4859276      1932.55     3461.036      4825.47     91.50084     183.4425     367.6912      2.065     5.99     1224.841      64.8567     234.5984        21     1.787     0.789  46.89   3
       223    604.9037    442.8943 307.6674888  +6.4872898     2117.356     5150.549     6638.157     92.23344     184.6857      367.801      2.687     9.33     1224.529      64.8567     219.4342        42     2.302     1.574  31.88   3
       224    952.9709    437.3003 307.5228476  +6.5012291     1587.129     4240.068     5385.458     92.23344     183.7357     368.0205      2.748     7.30     1217.597      64.8567     194.1549        34     1.708     1.604 -74.98   0
       225    514.9128    436.6219 307.7051437  +6.4868653     2415.689     5395.181     6920.501     92.23344      183.809      367.801      2.464     6.58     1224.348      64.8567     288.0848        26     1.791     1.149  41.77   3
       226    517.4658    434.1488 307.7041647  +6.4879717     2458.449     5862.963     8726.016     92.08739     183.9554     367.9474      3.052     8.73     1224.024      64.8567      267.101        43     2.607     1.360  35.45   2
       227    361.6028    438.5435 307.7688679  +6.4809318     636.7054     1485.784     2334.482     91.50084      183.809     367.5814      1.808     4.14      1229.04      64.8567     112.7876         7     1.621     0.302 -14.41   0
       228    872.4332    430.9059 307.5565740  +6.5011813     1286.476     3687.457     5415.809     92.37926     183.8822     368.0571      3.578     9.42     1219.873      64.8567     144.2168        33     1.767     1.651  59.33   0
       229    879.6459    426.2052 307.5537304  +6.5033625     1007.935      2692.02     3352.552     91.50084     183.7357     367.5814      2.738     7.51     1219.295      64.8567     137.0045        17     1.523     1.373  88.40   0
       230    703.6267    421.4171 307.6271330  +6.4994582     1095.198     3200.297     4225.794     91.79459     183.7357     367.8376      2.876     9.45     1221.733      64.8567     144.4865        26     2.011     1.238 -74.58   0
       231    375.3075    418.7762 307.7638321  +6.4895512     1219.712     3516.631     5841.349     92.37927      183.809     367.7644      3.862     8.73     1226.655      64.8567     186.6125        23     2.098     1.158  32.66   2
       232    601.0020    417.5058 307.6699662  +6.4976392     3081.926     6708.812     9197.387     91.64783     183.6625     367.5447      2.643     7.40     1222.035      64.8567      382.927        38     2.463     1.139  55.55   3
       233    604.4849    415.4838 307.6685850  +6.4985904     3145.116      7312.27     8886.799     91.94111     184.1748     368.0205      2.464    10.38     1221.767      64.8567     342.4326        38     2.356     1.274  39.45   3
       234     66.6103    419.8213 307.8922363  +6.4787465     642.6262     1393.166     2242.059     91.79459     183.7357     367.7644      2.830     5.06     1236.754      64.8567     120.7919         5     1.127     0.643 -18.17   0
       235    765.1814    412.3795 307.6018236  +6.5052465     6326.009     19193.49     25642.07      91.9411     183.9554     367.8376      2.978     7.33     1220.891      64.8567     692.8297        86     2.295     2.153 -63.42   0
       236    286.1487    412.9568 307.8011254  +6.4889605     1030.464     2586.421     3067.358     92.23344     183.9554     367.9839      2.720     9.56     1227.826      64.8567     113.3901        18     1.776     1.436 -30.26   2
       237    103.9090    404.3575 307.8772405  +6.4863846     1702.605     4504.779     6982.811     92.23344     184.0285     368.0571      3.350    12.02     1234.325      64.8567     179.9005        35     2.422     1.661  41.64   2
       238    950.0540    406.9650 307.5250781  +6.5136540     913.7877     2226.255     2801.527     92.08739     184.0285     367.9839      2.596     6.50     1215.405      64.8567      137.781        11     1.503     0.856 -48.75   0
       239   1003.9756    401.9463 307.5028086  +6.5175238     2029.031     5531.241     6299.084     91.64783     184.0285     367.7278      2.664     8.51     1213.122      64.8567     223.1915        44     2.028     1.617  49.35   0
       240    739.7526    403.2099 307.6127126  +6.5081817     859.1757     2293.998     2753.703     91.64783     183.8822     367.5447      2.694     6.01     1220.033      64.8567     100.1051        10     1.425     0.713 -82.71   2
       241    338.3036    402.3158 307.7797837  +6.4951039     876.1869     1575.731     2894.432     92.23344     184.4669     368.0205      2.552     6.51     1225.914      64.8567     164.8121        11     1.468     0.811  31.01   3
       242    339.1423    397.9988 307.7795803  +6.4969140     937.0596     2628.278     3636.912     91.50084     183.6625     367.5814      3.073     9.66      1225.47      64.8567     130.9916        20     2.107     1.236  28.82   2
       243    703.4332    384.3435 307.6284592  +6.5147552     5271.678     16734.46     21796.22     92.08739     184.0285     367.9474      2.983     7.55     1218.427      64.8567     601.4449        76     2.303     2.014  63.05   0
       244    805.6212    385.2029 307.5859086  +6.5178159     620.8161      1598.88     2177.403     91.79459     183.6625     367.6546      2.320     5.29     1218.068      64.8567     106.9647         8     1.815     0.435 -66.81   0
       245    624.1155    378.4836 307.6616610  +6.5145206     893.0645     2622.919     3942.036      91.9411     184.1748     368.0205      3.251     8.63     1218.648      64.8567     128.4023        16     2.016     1.033  29.67   2
       246    597.7690    374.7715 307.6727489  +6.5151710     5711.775     14717.21     22839.08     91.64783     183.7357     367.6912      3.224     8.79      1218.58      64.8567     605.5416        87     3.268     1.661  47.68   3
       247    594.9597    376.7921 307.6738499  +6.5142429     4347.675     8694.761     11018.77     91.50084      183.809     367.5814      2.330     6.25     1218.743      64.8567     480.1029        26     1.828     0.966  47.14   3
       248    928.5753    374.2197 307.5351135  +6.5264544      1730.54     4262.751      5086.75     91.79459      183.809     367.8742      2.630     6.11     1214.667      64.8567     212.2767        35     1.793     1.505  67.59   0
       249    366.3828    372.1568 307.7691172  +6.5084951     7840.234     16765.91     20012.88     91.64783     183.8822     367.6912      2.261     6.86     1221.906      64.8567     913.0967        35     2.016     1.027  51.49   3
       250    369.4337    369.8494 307.7679255  +6.5095499      9420.89     23220.02     30474.76     92.08739     184.0285     367.8742      2.709     8.57      1221.57      64.8567       952.66        71     2.807     1.510  44.12   3
       251    115.8361    369.9343 307.8734414  +6.5009946      767.121     2185.564     3105.577     92.08739     184.0285     368.0205      3.008     5.37     1231.919      64.8567     96.76501         7     1.399     0.581 -14.99   2
       252    897.4625    364.5092 307.5483859  +6.5294247     2328.876     6253.021     7179.583     92.23344     184.1748     368.0571      2.668     7.18     1215.051      64.8567     234.0403        46     1.910     1.752  55.82   0
       253    225.6068    361.0867 307.8280665  +6.5083374     4166.573     15062.31     20596.78     91.64783     183.6625     367.6546      3.133     8.91     1227.431      64.8567     503.2979        85     2.507     2.100  68.26   0
       254    126.1820    349.9538 307.8698120  +6.5095900     1800.051     5936.921      7694.44     91.64783     183.8822     367.6546      2.965    10.00     1230.898      64.8567     236.0485        53     2.148     1.886  78.37   0
       255    149.5312    345.6816 307.8602410  +6.5121387     926.6575     2425.417     3294.845     92.52486     184.3209     367.9839      2.884     7.26      1230.48      64.8567     111.9464        16     1.737     0.850 -88.45   0
       256    370.3008    338.2893 307.7686287  +6.5226063     645.4901     1616.155      2698.03     92.23344     184.5398     367.9108      3.329     6.90     1219.048      64.8567     138.1819         8     1.789     0.746 -35.64   0
       257    426.4330    333.1355 307.7454453  +6.5266167     2389.473      6012.01     8125.802     92.08739     184.0285     367.9108      2.777     9.53     1216.687      64.8567     262.8168        47     2.685     1.356  40.46   3
       258    423.7705    335.7380 307.7464655  +6.5254531     2057.517     4592.448     5854.348     91.94111     184.0285     367.8742      2.490     6.71     1216.899      64.8567     234.4946        24     1.901     0.928  35.61   3
       259     22.1385    335.3071 307.9135981  +6.5121339     1392.509     3921.836     4957.484     92.08739     184.0285     368.0205      2.928    10.54     1236.035      64.8567     182.4828        37     2.229     1.485  82.33   0
       260    765.0676    330.9612 307.6046051  +6.5388512     5020.118     14577.33     20818.31     92.08739     183.9554     368.0571      3.242     8.62     1213.706      64.8567     502.1985        91     2.920     2.153   0.27   0
       261   1009.4106    325.8006 307.5030980  +6.5491373     1936.003     4646.049     5251.729     91.79459     183.6625     367.7278      2.461     5.72     1207.225      64.8567     263.1753        33     1.680     1.424  82.85   0
       262    474.7032    316.7325 307.7259119  +6.5350059     1158.911     2981.604     4490.457     92.23344     184.1017     367.9839      3.242     8.58     1213.843      64.8567     153.8523        19     1.986     1.053  58.45   2
       263    443.3432    319.3520 307.7388731  +6.5328733     596.5724     1409.074     2331.878     92.23344     184.0285     368.0571      2.240     4.02     1215.257      64.8567     116.9952         5     1.188     0.389  53.50   0
       264    830.9051    313.7837 307.5777845  +6.5481415     13671.84     39696.51     51082.99      91.9411      183.809     367.7644      2.867     6.72     1212.433      64.8567     1412.365       100     2.375     2.013  68.51   0
       265    604.4506    305.7825 307.6722892  +6.5438722      1003.15     2594.332     3925.551     91.64783     184.1017     367.6912      3.088     7.83      1211.86      64.8567     119.1787        16     1.971     0.869  44.35   2
       266    687.4398    299.8450 307.6379542  +6.5491001     27766.83     89447.54     120169.6      91.9411     184.0285     367.8376      3.033     7.76     1211.226      64.8567     3152.507       135     2.486     2.223  55.85   0
       267    548.6791    298.4479 307.6957442  +6.5450322     753.4277      1944.32     3849.116     92.23344     184.1017     367.8742      3.846     6.56     1211.321      64.8567     111.1237         9     1.436     0.841  60.06   2
       268     85.9667    297.1538 307.8883301  +6.5300310     1871.599     4527.269     5939.876      91.9411     184.0285     367.8742      2.628     8.70     1231.909      64.8567      206.512        27     2.187     0.965  52.05   3
       269     88.9646    295.2028 307.8871486  +6.5309372     2119.257     4624.954     7132.628     91.20615      183.809     367.7278      2.659     9.92     1231.724      64.8567     251.0759        34     2.437     1.148  46.47   3
       270    534.9355    292.4669 307.7016647  +6.5470407     2416.256      6381.89     9022.409     92.23344     184.0285     367.9839      2.935    10.14     1210.762      64.8567     260.4364        50     2.552     1.675  37.01   2
       271    531.6765    294.3721 307.7029568  +6.5461451      1751.33      3278.46     4523.787     92.08739     184.0285     367.9108      2.137     6.40      1210.97      64.8567     239.9297        14     1.543     0.746  50.40   3
       272    394.5757    289.8039 307.7601621  +6.5434344      7300.08     14415.05     16818.31     91.79459     183.7357     367.7644      2.121     6.17     1215.879      64.8567     832.0563        34     1.869     1.127  54.21   3
       273    397.6722    287.3834 307.7589552  +6.5445374     8401.145     21742.79     29716.53     91.64783     183.9554     367.8376      2.863     8.83     1215.572      64.8567     840.4272        70     2.784     1.671  40.51   3
       274    263.4066    289.3618 307.8147591  +6.5392134     842.9834     2196.453     3111.695     91.35361     183.7357     367.6546      3.069     7.55     1221.661      64.8567     128.6915        11     1.625     0.981  43.90   0
       275    483.6850    280.1167 307.7234076  +6.5504212     2477.903     4951.622     6659.062      91.9411     184.1748     368.0205      2.168     7.51     1209.598      64.8567     284.1746        27     2.024     0.945  46.50   3
       276    486.8633    277.8346 307.7221619  +6.5514697     2651.551     6302.114     8703.289     92.08739     184.1017     367.9474      2.713    10.41     1209.392      64.8567     262.9452        42     2.637     1.221  40.98   3
       277    753.5093    277.7222 307.6112032  +6.5604412     1079.237     3366.734     4754.008     91.94111     184.3209     367.9839      3.100     8.65      1210.06      64.8567      122.089        21     2.062     1.014 -85.55   2
       278    560.3585    268.1768 307.6919029  +6.5579187     1152.236     1142.525     641.5373     91.79459      183.809     367.6912      0.846     2.26     1208.291      64.8567     418.2614         5     0.775     0.351  61.77   0
       279    375.2279    262.9803 307.7691176  +6.5538574     1989.401     7645.529     10816.57     91.79459      183.809     367.8742      3.220     9.93     1215.372      64.8567     242.3422        66     2.365     2.047  61.15   0
       280    234.2944    264.4198 307.8277153  +6.5485306     550.9708     928.1817     1552.501     92.08739      183.809     367.7278      1.317     2.51     1223.093      64.8567     109.9329         3     0.592     0.317 -49.13   3
       281    229.5502    263.6264 307.8297163  +6.5486987     694.7675     2011.549     2569.793     91.79459     184.1017     367.8376      3.047     9.77     1223.319      64.8567     104.7902        13     2.314     1.151 -12.72   2
       282    742.8718    258.3649 307.6162803  +6.5680760     19623.21     61475.14     80877.26     92.08739     184.0285     367.9474      2.975     7.37     1208.191      64.8567     2092.145       115     2.452     2.131  59.37   0
       283    416.3257    258.1153 307.7521794  +6.5572443     773.5652     1587.367     2083.466     92.37927     184.3939     368.0205      2.321     6.05     1212.785      64.8567     91.87256         9     1.292     0.796  64.92   0
       284    978.3028    254.7861 307.5184233  +6.5774142     1020.515     1856.981     1974.853     92.08739     183.7357     367.6912      1.940     6.27     1203.157      64.8567     146.6312        12     1.258     0.879  -4.99   0
       285    918.1484    253.9483 307.5434856  +6.5757533     1180.498     2668.132     3438.286     92.37927     183.8822     367.9474      2.590     8.08     1204.721      64.8567     159.0375        17     1.548     1.178  15.32   0
       286    741.3903    242.9880 307.6174134  +6.5743739     2366.668     6821.951     9550.811      91.9411      183.809     367.9108      3.160     7.95     1206.789      64.8567       260.26        57     2.234     1.808  54.59   0
       287    180.1772    244.7341 307.8508996  +6.5548372     807.3475     1526.306     2187.864     91.79459     184.0285     367.8376      2.210     4.17     1226.698      64.8567     133.7883         5     0.988     0.503  37.14   0
       288    756.2507    242.3742 307.6112497  +6.5751240     891.8266     1593.236     2449.903     91.79459     184.1017     367.8376      2.196     4.24      1206.67      64.8567     123.1891         8     0.951     0.654  71.82   3
       289    759.0364    240.2000 307.6101635  +6.5761146      943.942      2290.31     3151.453     91.05845     183.7357     367.6912      2.708     6.56     1206.476      64.8567     116.9261        13     1.594     0.757  50.48   2
       290    346.6674    234.7830 307.7819536  +6.5645380     736.2927     1972.355     2643.751     91.64783     183.9554     367.8376      3.118     9.32     1215.676      64.8567      115.726        12     1.687     1.438 -55.80   0
       291    995.7469    231.6062 307.5119405  +6.5875643     2909.508     7554.113     8799.202     91.64783     183.7357      367.618      2.553     6.59     1201.889      64.8567      339.429        47     1.948     1.613  56.92   0
       292    472.9756    233.8343 307.7294231  +6.5691666     629.7795     1457.204     2648.073     91.64783      183.809     367.6912      2.806     3.75     1205.697      64.8567     104.1498         5     0.817     0.494  57.05   0
       293    237.9411    226.7889 307.8274684  +6.5641861     1857.219     5596.513     9280.711     91.50084     183.8822      367.618      3.464    11.44     1222.761      64.8567     215.0706        51     2.423     2.031  70.12   2
       294    369.2024    220.7901 307.7730477  +6.5710702     654.6111     1357.234     1836.339     91.64783     183.6625     367.7644      2.114     4.34     1213.602      64.8567     100.7563         5     0.799     0.672  57.17   0
       295    548.8567    209.7288 307.6986567  +6.5816596      769.925     1860.542     2273.695     92.37927     183.9554     367.9108      2.772     6.45     1203.705      64.8567     97.46619        11     1.583     0.737 -66.71   0
       296    712.5314    208.5186 307.6305817  +6.5876373     1660.233      3073.06     3889.777     92.52486     184.3209     367.9839      2.350     6.50     1204.511      64.8567      193.293        16     1.497     0.815  48.67   3
       297    715.5524    206.5322 307.6293912  +6.5885583     1751.797     4029.464     5858.814     92.23344     183.9554     367.9839      2.923    10.03     1204.438      64.8567     184.1099        29     2.247     1.248  31.20   3
       298    653.0222    208.1848 307.6553587  +6.5857844     850.3877     1684.111     2747.611      91.9411      183.809     367.8742      2.703     4.14     1204.352      64.8567      116.418         7     0.967     0.680 -80.85   2
       299    656.5977    206.5420 307.6539260  +6.5865822     697.4733     1623.503     2549.758     91.50084     183.7357     367.6546      3.302     9.19     1204.361      64.8567     113.5378        10     2.023     1.164 -65.58   2
       300    892.6476    208.3347 307.5556282  +6.5937310     775.4666     2138.283     2785.886     92.08739     183.9554     368.0205      2.787     7.15     1203.224      64.8567     137.3684        10     1.226     1.169 -49.02   0
       301    214.2340    191.9642 307.8385099  +6.5777639      876.681     2447.926     2829.537      91.9411     183.7357     367.6546      2.634     9.04     1226.182      64.8567     113.6355        19     1.743     1.309  30.82   0
       302    855.6815    190.7371 307.5716033  +6.5997609      840.234      2457.69     3155.552     92.37927     184.1017     367.9839      2.860     9.36     1202.621      64.8567     120.0237        14     1.824     1.340  51.02   0
       303    445.6604    184.3178 307.7424589  +6.5886900     6322.677      11949.5     13697.03     92.37927     184.0285     367.9839      2.090     6.82     1204.935      64.8567     771.7299        37     2.221     0.977  42.11   3
       304    448.6265    181.9108 307.7413056  +6.5897830     7246.314     19493.37     26506.72     92.37927     183.7357      367.801      2.787     8.45     1204.669      64.8567     702.7845        68     2.761     1.483  42.74   3
       305    773.0394    181.4465 307.6063093  +6.6008351     5042.112     15843.54     21017.28     92.08739     184.0285     367.7278      3.016     7.52     1202.925      64.8567     551.5134        79     2.297     2.029  59.50   0
       306    137.6429    176.2181 307.8709149  +6.5816878     916.3077      2344.55     3932.595     91.64783     183.8822     367.6912      3.377     6.65     1229.692      64.8567     103.6796        12     1.419     0.873  83.82   2
       307    112.0198    175.7341 307.8815941  +6.5810255     582.6037     957.5375     1337.905     91.79459     184.0285     367.8376      2.327     4.70     1231.488      64.8567     84.68201         5     0.935     0.669 -26.76   0
       308    571.4953    168.5228 307.6906222  +6.5994269      1421.61     4863.395     6254.148     91.94111     184.1748     368.0205      3.033    11.60     1202.917      64.8567      162.486        46     2.032     1.844 -24.01   0
       309    532.5873    170.2143 307.7067578  +6.5974253     710.8671     1462.667     1915.422     92.08739     183.6625     367.8742      2.061     4.90     1202.924      64.8567     105.8947         8     1.255     0.543  67.78   0
       310    374.5841    168.0861 307.7725854  +6.5930056     596.1021     1247.093      1000.08     91.79459     183.7357     367.8376      2.394     6.30     1210.968      64.8567      88.5542         7     1.289     0.864 -82.78   0
       311    878.2705    164.6175 307.5630786  +6.6112969     4614.965     13258.59     15967.31     91.64783     183.8822     367.8376      2.747     6.91     1201.118      64.8567     490.3218        67     2.173     1.826  64.51   0
       312    931.3220    166.6588 307.5409305  +6.6122250     954.3424         1648     2253.014     92.37927     184.0285     367.8742      2.035     5.75     1200.474      64.8567     122.1989         8     1.167     0.797  41.37   3
       313    932.0009    163.6521 307.5407488  +6.6134887     1140.164     2215.703     2531.644     91.50084     183.5158     367.4348      2.255     7.83     1200.233      64.8567     129.8053        16     1.650     1.038  22.13   2
       314      6.1608    161.3208 307.9261339  +6.5834108     9636.275     22581.87      29500.4     92.08739     184.1017     350.7543      2.653     8.38     1235.161      64.8567     1149.092        63     2.595     1.670  52.95  19
       315      3.4619    163.4907 307.9271837  +6.5824242     7946.751     14531.17     15844.15     92.23344     177.0196     314.5383      1.936     5.02     1235.271      64.8567     845.3723        23     1.386     1.133  49.29  19
       316    964.8798    162.3187 307.5271094  +6.6151360     4909.438     12461.14     14906.62     92.37927     184.3209     368.1302      2.575     6.08     1198.134      64.8567     523.0483        57     2.023     1.673  59.32   0
       317    675.4598    163.5836 307.6475205  +6.6049457     850.5396     2378.061     3620.233     91.64783     183.9554     367.6546      2.922     8.06     1203.376      64.8567     149.1204        16     2.469     0.736  84.34   2
       318    484.5599    159.2761 307.7271139  +6.6003308      680.948     1727.463     2231.877     92.08739     184.0285     368.0205      2.685     5.77     1202.775      64.8567     101.1449         9     1.453     0.645  59.26   0
       319    487.1438    156.5701 307.7261297  +6.6015344     651.5231     1400.629      2141.93     92.08739     184.1017     367.8376      2.452     5.13     1202.751      64.8567     95.72937         5     1.073     0.694  66.67   0
       320    815.6979    154.9522 307.5894452  +6.6131969     725.4515     2026.899     2469.487     92.23344     183.9554     368.1668      2.797     5.98     1201.158      64.8567     128.3221         8     1.273     0.789  32.40   2
       321    495.5642    155.7534 307.7226528  +6.6021537     775.7302     1430.478     2281.474     91.79459     184.0285     367.8376      2.202     5.04     1202.711      64.8567     122.4929         8     1.178     0.647  42.17   0
       322    333.7192    151.3986 307.7901548  +6.5985221     2173.162     4947.038     7672.448     91.35361     183.4425      367.618      2.705    10.87     1216.444      64.8567     246.2401        35     2.849     1.156 -82.91   3
       323    330.3693    150.2546 307.7915875  +6.5988818     2199.272     5861.057      8900.17     92.08739     184.1017     367.9108      3.148    10.20     1216.939      64.8567     247.7301        39     2.397     1.212 -82.68   3
       324    728.3625    150.5880 307.6259400  +6.6120794     14235.22     45017.45     59090.26     91.64783      183.809      367.618      2.984     7.58      1202.22      64.8567     1553.999       105     2.424     2.126  57.93   0
       325    868.3235    153.5332 307.5675904  +6.6155403     963.5243     2352.028     2719.366     92.37927     184.1017     367.9108      2.729     6.70     1200.578      64.8567     126.7216        13     1.342     0.938  46.21   2
       326    962.4330    149.2912 307.5285646  +6.6204320     1402.213     3403.962     3451.809     92.37927     183.8822     367.9839      2.375     7.40      1197.45      64.8567     141.3157        27     1.581     1.412  82.38   0
       327    896.2343    147.5876 307.5561736  +6.6189263     3306.564     8683.975     10195.05     91.64783      183.809     367.7644      2.679     6.32     1199.621      64.8567     386.1752        56     2.139     1.665  65.06   0
       328    441.5361    147.3536 307.7454210  +6.6038095     1569.971     4114.583     5941.778     92.08739     183.9554     367.9839      2.842    11.36     1203.496      64.8567     176.4382        36     2.384     1.506  72.83   3
       329    438.0121    148.4674 307.7468500  +6.6032316     1443.893     2695.359     4138.118     91.64783     183.8822     367.8376      2.416     5.57      1203.58      64.8567      174.679        15     1.354     0.862  62.75   3
       330   1001.1166    148.0000 307.5125077  +6.6222551     691.7927     1567.754     1758.844     91.35361     183.4425     367.5447      1.696     3.82     1195.511      64.8567      98.7821         5     1.454     0.289   0.00   0
       331     98.9854    138.3466 307.8882826  +6.5960191      1892.64     4811.009     7867.869     91.50084     183.9554      367.618      3.290     9.97     1231.849      64.8567     208.8096        36     2.155     1.556  80.58   2
       332    269.5180    134.8895 307.8174304  +6.6031803     11227.27     26408.23     36040.63      91.9411     184.2478     368.0205      2.743     9.61     1224.072      64.8567     1125.854        74     3.004     1.636  44.78   3
       333    266.0057    136.5086 307.8188374  +6.6023940     9707.549     20358.46     24361.74     91.79459     183.6625     367.6912      2.296     7.28     1224.335      64.8567     1096.594        35     2.118     1.070  46.70   3
       334    243.0777    136.4679 307.8283806  +6.6016404     1962.258     7003.493     9628.793     92.37926     184.1017     367.9108      3.156     9.74     1226.205      64.8567     237.1526        65     2.431     2.022  78.04   0
       335    390.2265    132.2135 307.7672852  +6.6083378     14502.72     29895.57     35407.57      91.9411      183.809     367.8742      2.281     7.01     1208.295      64.8567     1725.457        50     2.345     1.101  45.72   3
       336    393.5232    130.1640 307.7659823  +6.6092943     16265.55     37857.32     49226.81     92.08739     184.1017     367.9839      2.628     9.70      1207.66      64.8567     1581.251        71     2.907     1.397  42.95   3
       337    149.3668    130.7752 307.8675720  +6.6008394     1469.347     3736.722     6161.567     91.50084     183.7357     367.7278      3.626    10.03     1228.756      64.8567     213.9379        26     2.048     1.370  44.45   2
       338    297.6326    128.0783 307.8059599  +6.6069362     6189.455     15153.99     24821.23     92.08739     184.0285     367.9108      3.504     9.37     1221.663      64.8567     593.3668        90     3.081     2.036  37.41   2
       339    293.8110    129.5914 307.8074992  +6.6061833     5374.388     11444.17     13247.66     91.79459      183.809     367.8742      2.230     6.17     1222.123      64.8567     690.2743        27     1.680     1.054  50.49   3
       340    730.7937    126.5745 307.6257352  +6.6220731     12179.93     37801.67     49793.93     91.64783      183.809     367.7278      2.982     7.23     1201.044      64.8567     1283.365       103     2.430     2.087  56.58   0
       341     47.9054    124.4385 307.9100102  +6.6000403     3121.152      10508.9     13748.56     92.37926     183.8822     368.0937      3.043     8.62     1233.521      64.8567     367.7063        70     2.337     2.004  68.60   0
       342    990.4161    107.5049 307.5183186  +6.6386141     1147.638     2882.924      4138.33     91.94111      183.809      367.801      2.887     8.39     1194.455      64.8567     141.9645        20     1.476     1.332  40.81   0
       343    264.8391    102.8355 307.8204598  +6.6162540     8795.164     18637.75     22311.47      91.9411     183.8822     367.7278      2.301     6.95     1225.292      64.8567      1063.96        43     2.112     1.145  52.41   3
       344    268.2385    101.0468 307.8191054  +6.6171065     9887.964     25185.31     33747.52     92.08739     184.0285     367.7644      2.794     9.39     1225.193      64.8567     1000.049        71     2.923     1.537  46.00   3
       345    583.0032    101.7503 307.6880802  +6.6273745      763.183     1698.225     3323.374     91.50084     183.6625     367.4715      2.947     4.43     1200.367      64.8567      99.9165         5     0.865     0.644  47.02   2
       346     12.1369    100.3164 307.9257118  +6.6087922     1544.514     5147.397     6915.822     92.37927     184.1017     367.9108      3.044    11.91     1234.855      64.8567     205.4463        45     2.233     1.770 -89.75  16
       347    696.8831     98.4245 307.6407950  +6.6325588     2853.217     6461.516     8707.089     92.08739     183.7357     367.8742      2.755     8.56     1199.864      64.8567      285.913        41     2.566     1.151  73.36   3
       348    700.1883     96.8097 307.6394737  +6.6333359     2427.366     4895.383     6592.746      91.9411      183.809     367.9108      2.267     6.99     1199.796      64.8567     269.8077        25     1.902     0.951  73.89   3
       349    110.8355     95.2982 307.8848067  +6.6141867     1652.626     3543.503     6286.251     92.23344     183.8822     368.1302      3.468    10.83     1230.264      64.8567     192.7852        32     2.749     1.223  46.54   2
       350    107.7177     96.6335 307.8860591  +6.6135306     1377.027     3194.414     4958.627     92.23344     183.9554     367.9108      3.000     6.98     1230.461      64.8567     196.5444        18     1.346     1.190  77.92   3
       351    380.6732     89.8962 307.7726881  +6.6254846     1443.303     4151.724      6964.86      91.9411     184.1748     367.9108      3.587    11.91     1209.986      64.8567     174.6893        44     2.385     1.992  48.04   2
       352    343.4389     91.9489 307.7881154  +6.6233875     982.0538     3116.878     5493.164      91.9411     183.9554     367.9474      3.756    10.24      1215.83      64.8567      152.248        22     2.123     1.378  85.13   2
       353     99.9499     87.7737 307.8895914  +6.6169261     552.3663     853.5111     2024.064     91.79459     184.1017     367.8376      3.242     4.70     1230.565      64.8567     86.29895         5     0.953     0.658  28.77   0
       354    991.5515     85.2339 307.5185926  +6.6478451     709.7881     1482.067     1870.367     91.94111     184.0285     367.8742      2.414     4.50     1192.818      64.8567     92.46997         5     0.804     0.717  31.15   0
       355    194.0297     80.0168 307.8506999  +6.6232928      1462.35     2907.333     3104.309     91.79459     183.7357     367.8742      2.058     7.04     1227.357      64.8567     204.7399        18     1.803     0.771  48.43   3
       356    197.4780     78.1308 307.8493285  +6.6241872     1835.332     4228.658     5467.797     92.37926     184.3209     367.9108      2.523    10.34     1227.287      64.8567     227.5629        35     2.258     1.371  61.53   3
       357    656.7166     78.1130 307.6581956  +6.6395991     2132.807     5470.277     7954.545      91.9411     184.2478     367.9839      2.987    10.82      1199.37      64.8567      255.348        46     2.307     1.871  87.55   2
       358    660.0126     76.3349 307.6568836  +6.6404433       1195.9     1963.955     3294.493     91.64783      183.809     367.8376      1.694     6.37     1199.294      64.8567     186.1801        10     2.073     0.551  35.98   3
       359     77.4789     80.3487 307.8991944  +6.6192345     740.7601     1652.119     2321.339     92.23344     184.1017     367.9474      2.396     3.28     1231.454      64.8567     121.3658         5     0.901     0.495 -83.38   3
       360     80.4241     78.3382 307.8980366  +6.6201635     900.4987     1976.756     3031.155     91.79459     183.9554     367.8376      3.010     6.03     1231.249      64.8567     105.9966        12     1.404     0.728  53.51   2
       361    610.1160     74.6829 307.6777067  +6.6394551     3242.365     11301.46     19153.52      91.9411     184.3209     368.0571      3.569    17.43     1199.438      64.8567     868.4995        90     3.494     2.416 -60.62   3
       362    611.9842     67.5065 307.6771706  +6.6424799     17612.35     36639.27     48164.45      91.9411      183.809     367.7644      2.502     8.34     1199.214      64.8567     1974.529        44     2.589     1.055  64.85   3
       363    615.3511     66.1805 307.6758139  +6.6431400     16195.98     34229.69     41225.15     91.64783     184.1017     367.7278      2.338     9.08      1199.14      64.8567     1753.372        52     2.516     1.170  62.46   3
       364    336.9138     70.2861 307.7915619  +6.6321101     1321.224     4124.925      6705.82      91.9411     184.1748     367.9839      3.517    10.53     1217.057      64.8567     185.5879        29     2.081     1.485 -62.83   2
       365    517.8085     69.9925 307.7162836  +6.6382993     671.5914     1595.591     2296.939     91.50084      183.809      367.801      2.637     4.01     1201.076      64.8567     105.2625         6     0.951     0.484 -50.11   0
       366    290.9609     62.3277 307.8109558  +6.6338519     883.8133     2139.831     4161.255     92.08739     184.0285     368.0205      4.490    11.88     1224.022      64.8567     125.4584        21     2.873     1.369   3.97   2
       367    293.2079     59.2465 307.8101247  +6.6351992     1205.623     3100.065     4524.223     91.64783     183.8822     367.5447      2.996     5.76     1223.727      64.8567     175.2417        14     1.506     0.899 -27.51   3
       368    662.5386     55.1853 307.6565436  +6.6492580     705.1108     1341.939     2088.122     91.64783     183.9554     367.6912      1.954     4.57     1198.585      64.8567     107.0143         5     1.168     0.508  27.56   0
       369    677.6498     50.5705 307.6504092  +6.6516685     1142.736      3692.82     4602.956     91.79459     184.1017     367.8376      2.986     8.80     1198.337      64.8567     187.0488        31     1.936     1.643  19.71   0
       370    419.5611     40.8800 307.7581559  +6.6470218     1506.186     4687.659     6525.496     92.08739     184.1017     367.9108      3.167     9.01       1207.3      64.8567      205.673        37     2.114     1.563 -27.62   2
       371      1.5052     42.8637 307.9320812  +6.6321481     778.4559     1580.757     3428.147     82.69167     149.4803      280.277      3.426     4.87     1235.117      64.8567     117.6154        10     1.344     0.500 -89.41  25
       372    891.9901     36.5694 307.5616652  +6.6646112     1815.605      4931.73     6104.632     91.64783      183.809     367.7278      2.658     8.04     1192.852      64.8567     207.9373        43     2.103     1.567  69.33   0
       373    873.5221     37.9864 307.5693046  +6.6634097     766.6167     2125.383     2258.538     91.79459     183.6625     367.7278      2.390     6.80     1193.079      64.8567     113.4419         9     1.902     0.682 -86.61   0
       374    381.6203     34.8966 307.7741489  +6.6482186        747.6     1809.467     2861.591     92.08739      183.809     367.7278      3.039     5.48     1211.923      64.8567     114.4121         8     1.351     0.626  60.06   0
       375    131.1668     30.5322 307.8785352  +6.6416037     454.4038     2419.464     3060.627     92.08739     184.0285     367.9839      3.222    10.96     1228.044      64.8567      144.899        32     1.909     1.752 -44.69   0
       376    802.6641   1022.1855 307.5657674  +6.2547765     692.4203     1381.072     1071.207     91.64783     169.4039     303.8286      2.150     5.05     1259.012      64.8567     94.26514         5     0.995     0.726  -8.32  16
       377    563.7184   1019.1716 307.6652454  +6.2480322     1873.414     4061.996     3525.135     92.08739      183.809     347.2833      2.189     5.26     1261.126      64.8567     240.9006        30     1.536     1.387  35.54  16
       378    692.6357   1007.4218 307.6120238  +6.2571947     2623.653     5785.301     6046.496     91.64783     183.7357     367.6546      2.271     5.64     1258.465      64.8567     281.4373        33     1.696     1.371  61.74   0
       379     51.4005     21.7527 307.9120301  +6.6425424     991.8399     1973.628     2189.987     91.35361     183.6625     367.4348      1.949     7.56     1231.719      64.8567     147.2513        12     1.599     1.000  28.25   3
       380    269.3405   1009.0608 307.7880131  +6.2423385     796.5273     1757.828     2033.279     92.23344     184.0285     367.9839      2.175     5.00     1259.659      64.8567     133.2223         9     1.310     0.649  67.03   0
       381    602.4785   1005.8676 307.6495724  +6.2548210     1143.035     2587.445     3026.686     92.37926     184.1017     367.9108      2.439     7.03     1258.709      64.8567     146.8094        14     1.473     0.941  71.69   0
       382    223.4089   1004.5939 307.8072656  +6.2426401      853.071     1966.496     2389.548     91.50084      183.809     367.7644      2.605     6.31     1259.729      64.8567      109.424        11     1.503     0.744  61.98   0
