#   1 NUMBER                 Running object number                                     
#   2 X_IMAGE                Object position along x                                    [pixel]
#   3 Y_IMAGE                Object position along y                                    [pixel]
#   4 ALPHA_J2000            Right ascension of barycenter (J2000)                      [deg]
#   5 DELTA_J2000            Declination of barycenter (J2000)                          [deg]
#   6 FLUX_APER              Flux vector within fixed circular aperture(s)              [count]
#   9 FLUXERR_APER           RMS error vector for aperture flux(es)                     [count]
#  12 FLUX_RADIUS            Fraction-of-light radii                                    [pixel]
#  13 FWHM_IMAGE             FWHM assuming a gaussian core                              [pixel]
#  14 BACKGROUND             Background at centroid position                            [count]
#  15 THRESHOLD              Detection threshold above background                       [count]
#  16 FLUX_MAX               Peak flux above background                                 [count]
#  17 ISOAREA_IMAGE          Isophotal area above Analysis threshold                    [pixel**2]
#  18 A_IMAGE                Profile RMS along major axis                               [pixel]
#  19 B_IMAGE                Profile RMS along minor axis                               [pixel]
#  20 THETA_IMAGE            Position angle (CCW/x)                                     [deg]
#  21 FLAGS                  Extraction flags                                          
         1    606.9271     23.8958 307.6749463  +6.6725508     6110.208     21367.22     27776.65     93.07191     186.1438     371.8442      2.984     7.78     1222.698     65.55009     682.0748        82     2.252     2.117  76.87   0
         2    506.7135     20.2333 307.7167787  +6.6707542     1670.278     5876.226     8162.305     93.21953     185.8481     371.8811      3.135     9.51     1226.649     65.55009      202.962        55     2.153     1.909 -68.29   0
         3    412.2920     15.7451 307.7562282  +6.6694867      6669.75     25544.65     34566.23     93.07191     185.8481      372.029      3.138     8.30     1233.224     65.55009     751.2068        97     2.392     2.261 -86.89   0
         4    232.7875     16.4467 307.8309109  +6.6632538     2716.577     10579.22     15455.12      92.4791     185.7741     371.5852      3.698     8.82     1250.907     65.55009      383.325        69     2.259     2.146 -13.22   0
         5    888.3966     13.1299 307.5581622  +6.6862757     719.7694      1607.06     2123.384     92.62766     185.5519     371.6962      2.760     5.58     1215.077     65.55009     128.9724         8     1.523     0.576  45.34   2
         6    593.1700     15.0867 307.6809705  +6.6757359     1333.697     3702.549      5636.63     93.36691     185.7001     371.7702      3.178     9.92     1222.889     65.55009     132.0356        29     2.030     1.352 -39.34   2
         7    222.2962     13.0544 307.8353926  +6.6643076     928.3227     2811.686     5248.964     93.07191      185.996     372.1768      5.221     9.55     1251.184     65.55009      140.651        15     1.964     1.296  45.77  19
         8    910.8395      7.1671 307.5490227  +6.6894776     603.9495     1322.014      2287.44     92.92406     185.7741     364.2227      2.070     3.63      1214.81     65.55009     102.7452         5     1.158     0.328   9.17  16
         9    660.4694      6.3341 307.6532571  +6.6815729     808.5561     1726.024     2001.988     93.21953     186.0699     356.4383      2.340     6.12     1219.508     65.55009     112.8438         8     1.282     0.822  20.86  16
        10    150.0950      1.4386 307.8658363  +6.6667124     2310.864     3450.029     3717.931     82.74905     149.6151     282.2036      1.548     4.98     1250.893     65.55009     371.0991        14     1.488     0.590   0.71  24
        11    719.9307   1001.6113 307.5948428  +6.2723441     604.4786     1211.391     2220.659     92.62765     185.7741     371.7332      1.787     4.85     1282.805     65.55009     81.54797         5     1.414     0.470  -5.49   0
        12    771.1274   1022.8657 307.5728334  +6.2652495      8755.04     13704.72     14336.94     90.98014      161.461     294.9259      1.660     4.63     1283.713     65.55009     1044.322        32     1.586     1.041  -4.64  24
        13     41.8258   1023.2966 307.8760988  +6.2409673     3309.573     5102.846     5148.916      86.4864     154.0525     286.8429      1.577     4.75     1282.908     65.55009       535.38        22     1.581     0.815   5.25  24
        14    928.6981    993.4403 307.5082969  +6.2825915     5399.431      9824.77     10820.31     93.21953     185.8481     372.1399      1.971     3.99      1279.97     65.55009     592.8335        40     1.533     1.379 -64.37   0
        15    687.6248    991.9663 307.6086040  +6.2752643     1687.096     4058.635     5280.807     92.47909     185.7741     371.6223      2.659    10.57     1282.323     65.55009     205.4697        33     2.231     1.398 -24.99   0
        16    213.9283    993.1257 307.8055575  +6.2591356     685.2579     1249.065     1308.243     93.51406     186.1438     371.9181      1.879     5.24     1282.827     65.55009     100.7347         7     1.367     0.568  50.03   0
        17    335.3316    989.8426 307.7551829  +6.2645098      1078.11     2452.909     2732.266     93.21953     185.9221     371.9921      2.229     8.11     1283.492     65.55009       121.92        16     1.591     1.156 -32.84   0
        18    722.0768    978.9041 307.5947177  +6.2817962     4767.488     10864.44     11751.05     92.92406     186.1438     371.9551      2.322     5.05     1281.154     65.55009     468.3792        52     1.763     1.659 -49.26   0
        19    518.0468    979.3906 307.6795524  +6.2748658     2502.822     5960.697     7124.669     92.62765     185.9221     371.4742      2.505     6.09     1282.812     65.55009     257.3096        42     1.716     1.687 -73.85   3
        20    514.7823    971.7394 307.6811692  +6.2779191      4355.41     11245.29     12846.62     92.77598     185.9221     371.6592      2.486     6.04     1282.609     65.55009     490.9619        56     1.928     1.771  60.74   3
        21    267.9022    978.5071 307.7836087  +6.2669618     8119.163     20136.57     23515.46     93.21953     186.6602     371.8072      2.478     5.53     1282.959     65.55009     845.9312        73     1.982     1.865 -77.23   0
        22    782.6405    977.2643 307.5695858  +6.2844685     778.1096     1402.295     1718.194     93.21953     185.9221     371.9921      2.301     5.95     1280.411     65.55009     114.3384         8     1.341     0.742 -36.30   0
        23    392.7492    977.9941 307.7317070  +6.2713034     635.8289     1243.033     1061.179     92.62766     185.7741     371.4742      2.037     4.98     1283.193     65.55009     89.20508         5     1.216     0.578  -9.56   0
        24    883.3405    971.9947 307.5278840  +6.2899599     6367.764        12621     14381.52     92.62765     185.8481     371.6223      2.128     4.40     1278.535     65.55009     741.1301        47     1.695     1.473 -78.33   0
        25    856.8467    968.3330 307.5390260  +6.2906011     8775.109     18063.62     20526.89     93.21953     185.9221     371.9181      2.211     4.44     1278.491     65.55009     970.8973        58     1.732     1.625 -38.43   0
        26    978.6237    967.5858 307.4884053  +6.2949143     3797.006     7263.184     7209.569     92.92406     185.7741     371.8072      1.999     4.30     1277.099     65.55009     422.5159        32     1.446     1.312 -66.85   0
        27    501.3882    967.6891 307.6868766  +6.2791501     2173.859     5668.397     6598.012     92.92406      185.626     371.7332      2.594     6.52     1282.707     65.55009     271.3531        44     1.780     1.737 -34.14   0
        28    570.6524    968.5383 307.6580425  +6.2810857     731.3092     1661.448     1725.507     93.21953     185.9221     371.8442      2.413     6.19     1282.021     65.55009      91.5271        10     1.495     0.721  16.67   0
        29    611.6864    966.6148 307.6410425  +6.2832342     778.6693     1505.862     1545.128     92.77598     185.7001     371.7702      2.033     6.52      1281.86     65.55009     98.10132         7     1.468     0.813  70.71   0
        30    454.2577    963.9774 307.7066027  +6.2791269     1256.428     3039.803     3229.918     92.77598      185.996     371.6592      2.343     8.33     1282.862     65.55009     140.8433        24     1.519     1.277  52.48   0
        31    888.6559    955.8050 307.5262196  +6.2968235     30243.58     63215.37     69762.65     92.47909     185.7741     371.5482      2.162     4.54     1277.405     65.55009     3229.684        88     1.826     1.706 -58.68   0
        32    196.7248    953.8723 307.8140453  +6.2747825     883.1063     1978.188      3068.42     93.51406     186.2915     371.8811      3.324     5.63     1281.843     65.55009     157.6028        10     1.257     0.811 -33.00   2
        33    786.4204    949.4097 307.5689547  +6.2961010     1421.718     3093.124     3656.441     92.77598      185.626     371.6592      2.388     8.01     1278.455     65.55009     159.1884        21     1.565     1.303 -33.40   0
        34    734.8484    947.6013 307.5904641  +6.2951495      3903.48     9464.548     11563.16     92.47909     185.5519     371.3632      2.486     5.77     1278.924     65.55009     400.7954        52     1.862     1.702 -85.14   0
        35    205.5105    947.5513 307.8106064  +6.2776849     941.9284     1896.153     3070.674     93.21953     185.8481      372.066      2.834     6.98     1281.737     65.55009     105.6421        13     1.631     0.837  87.97   0
        36     29.7888    945.4196 307.8837543  +6.2727408     1500.582     3543.177     4041.831     92.77598      185.626     371.7702      2.409     7.55     1280.621     65.55009     205.9287        26     1.622     1.350 -64.88   0
        37    922.9325    942.5749 307.5124105  +6.3034167     4853.161     9785.811     11046.65     92.77597     185.8481     371.7702      2.147     4.41     1276.228     65.55009     550.3226        44     1.608     1.527 -22.49   0
        38    896.4327    934.4304 307.5237066  +6.3059101     1496.898       2515.4     2510.244     92.62766     185.7001     371.5482      1.727     5.91     1275.812     65.55009     176.9979        16     1.235     0.985 -76.70   0
        39    229.8932    931.0864 307.8010256  +6.2852945      2224.28     5783.348     6336.828     93.21953     186.5128     371.9921      2.436     6.96     1281.418     65.55009     247.0549        39     1.803     1.553  61.81   0
        40    617.5628    930.4639 307.6398218  +6.2983634     2414.606     6094.431      6669.34     93.07191      185.996     371.9551      2.440     6.05     1279.807     65.55009      248.322        43     1.813     1.588  83.17   0
        41    756.2449    930.6738 307.5821375  +6.3028478     1015.564     2366.384     2518.723     93.07191     186.0699     371.9181      2.427     6.79     1277.539     65.55009      114.577        14     1.382     0.934  79.31   0
        42    850.0280    926.2861 307.5432813  +6.3077482     723.9898     1322.346     1583.729     93.36691      185.626     371.6962      1.867     4.87     1275.888     65.55009     135.9556         5     1.204     0.619  29.49   0
        43    539.2348    924.7811 307.6725901  +6.2981266     568.9688     1147.149     2303.089     92.62766     185.7741     371.6223      2.226     3.72     1280.246     65.55009     90.10742         5     1.187     0.335  12.33   0
        44    973.1135    922.5242 307.4922163  +6.3133503     606.0873     941.2853     1429.489     93.21953     186.3653     371.9551      1.565     3.42     1274.645     65.55009     104.2129         5     1.260     0.268 -54.76   0
        45    581.8810    917.7601 307.6550916  +6.3024347     693.7214     1323.691     1405.166     93.21953     186.0699     371.8072      2.074     6.44     1279.682     65.55009     117.9841         8     1.303     0.893  83.06   0
        46    262.4000    916.2632 307.7880103  +6.2924946     853.0831     1772.251     2961.096     92.33029     185.7001     371.5482      3.107     5.75     1281.422     65.55009     124.8163         9     1.066     0.873  31.57   0
        47    865.6492    909.4502 307.5373527  +6.3152179     4681.668     9786.089     10756.83     93.21953     185.8481     371.8072      2.159     4.85     1274.769     65.55009     461.9958        42     1.632     1.502  89.29   0
        48    401.9935    906.9171 307.7302728  +6.3009734     1093.649     2743.043     2644.987     92.77598      185.626     371.6962      2.414     8.57     1281.366     65.55009     158.4553        21     1.702     1.206 -76.31   0
        49    303.3846    905.6253 307.7713267  +6.2982459      4566.68     12552.54     14648.93     92.92406     185.8481     371.8072      2.605     5.91     1281.552     65.55009     520.0132        62     1.943     1.854 -40.91   0
        50    223.6055    904.6027 307.8045402  +6.2960276     3538.173     9260.603     10625.68      92.4791      185.626     371.6962      2.531     6.00     1281.111     65.55009     396.9999        54     1.857     1.800  18.68   0
        51    880.4380    894.2632 307.5317144  +6.3219789     817.1282     1309.119     1080.472     93.21953     185.9221     371.9181      1.740     4.13     1273.909     65.55009     104.0237         7     1.023     0.475 -80.95   0
        52    717.5175    887.8983 307.5996901  +6.3192444     1011.267     2249.794      2610.21     93.21953     186.4391     371.9921      2.434     6.73     1275.528     65.55009     121.5961        11     1.367     0.928 -26.87   0
        53    949.5190    883.3570 307.5033504  +6.3287566     891.9833     1648.301     2339.271     93.21953      185.996     371.8442      2.067     5.43     1272.299     65.55009     101.8242         8     1.157     0.718 -61.40   0
        54    636.3597    881.2890 307.6336680  +6.3192995     1274.384     3157.464     3870.765     93.21953     185.9221     371.9181      2.507     8.55     1276.667     65.55009     144.7013        24     1.602     1.299 -51.47   0
        55     33.4601    877.7100 307.8845319  +6.3008351     1796.905     4186.162     4714.753     93.07191     186.1438     371.9181      2.507     6.21     1279.938     65.55009      229.493        28     1.705     1.343  33.69   0
        56    177.0172    876.6666 307.8248647  +6.3060256     1113.412     2661.678     3118.952     92.62765     185.9221     371.7332      2.375     7.47     1280.838     65.55009     130.6713        20     1.482     1.214  -4.66   0
        57     51.0857    876.4119 307.8772460  +6.3019560     1054.461     2328.945     2567.507     92.77597     185.7001     371.6962      2.435     6.78     1279.819     65.55009     147.8373        14     1.388     0.929  36.21   0
        58    631.0326    870.2908 307.6362557  +6.3236676     3467.776     9008.838     10644.93     93.36691     185.8481     371.9181      2.529     6.01     1276.252     65.55009     367.4098        48     1.823     1.681 -23.79   0
        59    868.4576    866.4760 307.5376352  +6.3330649      1792.26     4035.267     4306.509     93.36691      185.996     371.8072      2.290     6.12     1272.602     65.55009     203.4154        29     1.545     1.393  19.13   0
        60    314.1416    863.8267 307.7682717  +6.3158702      7184.96      20663.2     25426.95     92.77597     186.0699     371.6962      2.719     6.25     1280.731     65.55009     796.7744        77     2.072     1.974 -63.50   0
        61      4.4340    867.3409 307.8969562  +6.3041556     749.9089     1304.584     1180.314     93.07191      185.996     332.6123      1.732     5.61      1280.14     65.55009     96.26562         7     1.187     0.748  31.10  16
        62     78.6718    854.2246 307.8665283  +6.3120372     874.5933     1927.404     2370.674     92.77598     185.8481     371.8072      2.763     4.16     1278.989     65.55009     120.2546         8     0.943     0.801  75.44   0
        63    829.5154    847.7292 307.5544653  +6.3395286     1161.639     2780.325     2773.541     93.36691     186.2915     371.9181      2.310     8.80     1271.741     65.55009     147.6729        19     1.646     1.315 -58.20   0
        64     61.4353    848.1558 307.8739033  +6.3139727     1170.933     2787.378     3441.703     92.92406     185.9221     371.7332      2.364     8.41     1278.859     65.55009     133.6292        21     1.547     1.277  82.36   0
        65    858.9158    848.1395 307.5422229  +6.3403266     1250.977     2455.808     2530.219     93.36691     186.0699     371.9551      2.090     5.81     1271.507     65.55009     174.8033        16     1.320     1.058 -42.53   0
        66    792.8282    847.0903 307.5697461  +6.3385847     1653.534     3855.961     4789.392     93.36691     185.7001     371.7332      2.495     6.73     1272.076     65.55009     199.1135        29     1.565     1.396 -28.23   0
        67    529.1462    838.8438 307.6796965  +6.3332976     148750.5     423435.9     509560.3     93.21953      185.996     371.8811      2.682     6.37     1277.564     65.55009     14642.86       194     2.221     2.140 -71.79   0
        68    373.4563    841.7432 307.7443519  +6.3269555     3473.767     9707.749     11198.96     93.36691      185.996     371.9551      2.615     6.66     1279.767     65.55009     357.0638        53     1.886     1.815  89.06   0
        69    316.6964    840.0229 307.7680171  +6.3257889     5356.173     15789.96     19227.28     93.21953     185.7001     371.6592      2.744     6.60     1280.504     65.55009     622.0609        66     2.055     1.904  51.11   0
        70    618.1548    842.1902 307.6425627  +6.3348524     646.7274     1125.657     1400.534     92.62765     185.8481     371.5112      1.927     3.32     1274.595     65.55009     115.0361         5     0.952     0.336 -44.37   0
        71    634.1261    838.1133 307.6360578  +6.3370635     1210.103     2130.673     2366.783     93.36691     186.3653     371.8811      1.790     6.80     1273.973     65.55009      138.011        16     1.431     0.905  24.77   3
        72    635.2798    835.0268 307.6356824  +6.3383768     1602.092     3349.504     3582.269     93.07191     185.8481     371.9181      2.130     6.44     1273.737     65.55009     190.5515        22     1.832     0.890  15.70   3
        73    867.3853    834.5863 307.5391577  +6.3462048     3073.185      6956.67     7464.169     93.07191      185.626     371.8072      2.314     5.57     1270.586     65.55009     317.3163        41     1.724     1.518   6.99   0
        74    609.9397    830.0170 307.6463915  +6.3396107     1594.534     4401.957     5404.902     92.77598     185.9221     371.5852      2.767     7.57     1273.841     65.55009      185.728        32     1.694     1.593  65.68   0
        75   1000.8159    828.6411 307.4838596  +6.3530484     3236.721      6744.92     7557.343     92.62766     185.7001     371.6223      2.187     4.81      1267.88     65.55009     360.9065        36     1.566     1.419 -31.55   0
        76    799.1306    829.6506 307.5677138  +6.3459973     716.1767     1554.602      1321.09     93.07191     185.9221     371.9181      2.105     5.08     1271.135     65.55009     121.1115         7     1.218     0.806 -21.89   0
        77    602.0867    827.0521 307.6497582  +6.3405765     1106.173     3136.364     5431.318     93.21953     185.8481     371.9551      3.673     9.10     1273.929     65.55009     134.2908        21     1.775     1.304 -21.20   2
        78    886.0831    822.5040 307.5317885  +6.3518117     1985.167     4452.065     5115.719     93.07191     186.4391     371.9921      2.404     5.82     1269.536     65.55009     212.8854        32     1.625     1.416  19.09   0
        79    346.1242    819.1584 307.7564859  +6.3353822     1074.418      2826.59     3927.189     93.07191      185.996     371.9181      3.019     7.50     1279.871     65.55009     147.7622        20     1.737     1.269 -67.03   2
        80    479.6319    809.7777 307.7012754  +6.3436708     1174.035     2547.656     3001.817     92.62766     185.7741     371.6592      2.294     7.93     1276.982     65.55009     138.8005        19     1.879     0.937  60.29   2
        81    482.2638    807.5969 307.7002546  +6.3446587     1141.912     2260.891     3420.224      92.4791     185.7741     371.6223      2.681     6.26     1276.845     65.55009     159.2562        15     1.398     0.870  44.75   3
        82    527.7132    804.6274 307.6814515  +6.3473864     2524.163     7699.776     10300.11     93.36691     185.7001     371.7332      3.003     7.62     1275.301     65.55009     264.0624        55     2.129     1.778 -23.62   0
        83    863.1867    801.9941 307.5420044  +6.3595320     764.7087     1829.854     2241.388     92.77598     185.7741     371.7332      2.048     5.40     1268.494     65.55009     121.6534         8     1.671     0.492  76.87   0
        84    498.2328    798.5701 307.6939185  +6.3489155     8309.399     24618.07     29296.95     92.62766     185.7001     371.5482      2.707     6.62     1275.808     65.55009     884.4539        73     2.016     1.971 -48.03   0
        85    911.5172    796.4164 307.5220898  +6.3634263     2332.334     4961.001     5312.679     92.77598      185.626     371.7702      2.136     5.30     1267.315     65.55009     272.1882        33     1.533     1.431 -25.73   0
        86      9.5294    790.2581 307.8974614  +6.3361694     859.6009     1972.531      2455.76     93.36691      185.996     371.8811      2.461     6.06     1276.397     65.55009     116.6007        10     1.633     0.632 -59.31  16
        87    291.2584    787.1913 307.7803907  +6.3467736     1277.418     3737.342     4849.423     92.47909     185.9221     371.5482      2.820     8.85     1279.716     65.55009     167.6936        31     1.897     1.712  -5.03   0
        88    756.2318    782.8705 307.5871379  +6.3639115     27112.08     71445.07     83640.46     93.07191      185.996     371.8811      2.552     5.94     1269.036     65.55009     2652.727       100     2.053     1.927 -70.54   0
        89    213.1907    759.8886 307.8137884  +6.3554684     739477.9      2607545      3353665     92.77597      185.626     371.6223      3.001     5.73     1277.323     65.55009     63501.82       603     2.774     2.442  89.10   4
        90    881.4272    777.9427 307.5352292  +6.3700689     4703.776     11375.38     13008.99     92.77597     186.0699     371.7702      2.388     5.51     1266.956     65.55009     512.6494        49     1.820     1.619 -65.94   3
        91    878.4181    769.5839 307.5367631  +6.3734233     3910.564     9397.448     10820.91     92.92406      185.626     371.8072      2.435     5.59     1266.597     65.55009     365.9014        46     1.705     1.672  77.23   3
        92    679.4775    774.7618 307.6193378  +6.3647322     35182.73     106669.7     159515.2     93.07191     186.0699     371.8811      3.339     9.81     1269.294     65.55009     3873.802       183     3.499     2.141  28.54   0
        93    323.2877    775.2970 307.7674727  +6.3527474      8206.18     25621.27     31258.14     93.21953     186.5128     371.9181      2.802     6.94     1278.449     65.55009     931.8287        84     2.155     2.052  62.32   0
        94    385.2108    773.0868 307.7417919  +6.3557087     8607.219     27055.42     33458.46     92.77597     185.7001     371.6962      2.820     6.87     1276.726     65.55009     960.5049        81     2.108     2.073 -44.66   0
        95    921.8682    771.8471 307.5186133  +6.3739175     1268.289     2890.381     2484.432     93.21953     185.9221     371.8442      2.265     8.37     1266.119     65.55009     128.8665        21     1.424     1.374 -69.88   0
        96    619.1497    768.6029 307.6446394  +6.3652872     2754.964      7890.74      8978.68     92.47909      185.626     371.4002      2.598     6.60     1270.075     65.55009     314.7395        52     1.929     1.779 -15.40   0
        97    409.5970    766.1431 307.7318844  +6.3593836     797.9804     1815.665      2378.87     92.47909     185.7741     371.5482      2.576     5.04      1275.51     65.55009     113.6736         8     1.401     0.512  46.65   2
        98    654.0021    759.2044 307.6304606  +6.3703196     1171.258     3268.832     3580.234     92.47909     185.4778     371.5852      2.695     9.47     1268.874     65.55009     148.5138        23     1.725     1.450 -72.98   0
        99    388.0499    755.8018 307.7411974  +6.3629435      20286.4     65331.86     81691.23     92.47909     185.5519     371.4002      2.851     6.85     1275.864     65.55009     2380.831       113     2.225     2.170 -58.95   0
       100    505.8346    754.7518 307.6922414  +6.3672696     2846.655      8491.76     10362.82     92.92406      185.996     371.8072      2.707     7.15     1272.169     65.55009     325.4537        52     1.898     1.870  83.30   0
       101    419.9977    745.7364 307.7282504  +6.3681581     1153.761     2332.706     3601.195     92.47909     185.7001     371.6223      2.933     7.23     1274.379     65.55009     140.1582        16     1.553     0.943  28.89   3
       102    420.6779    754.9646 307.7276545  +6.3643681     1093.396     2004.243     2827.828     93.07191     186.0699     371.9181      1.892     3.85     1274.699     65.55009     169.6592         6     0.813     0.521 -82.67   3
       103    422.9998    752.2833 307.7267797  +6.3655526     1844.687     5106.158     7988.144     92.33029     185.4037     371.4742      3.515    12.10     1274.499     65.55009     208.2513        44     2.743     1.489  37.31   2
       104    750.7906    751.0950 307.5904752  +6.3768601     5350.069     14614.81     17249.13     92.77597     185.5519     371.6223      2.593     6.09     1266.869     65.55009     557.2308        65     1.947     1.881 -59.05   0
       105    108.0093    743.2133 307.8581032  +6.3588718     4266.661     13981.97     21802.26     92.92406     185.7001     371.7702      3.880    12.89     1275.049     65.55009     582.6577       128     4.517     2.128  29.58   2
       106    116.9576    742.9455 307.8543905  +6.3592791     1243.829     3040.457     3519.478     93.21953      185.996     371.8811      2.267     7.61     1275.203     65.55009     154.2616        20     2.014     0.804  34.92   3
       107    896.3068    739.5425 307.5303362  +6.3864234     3413.882      8570.65     9921.782     93.07191      185.996      372.029      2.510     5.85     1264.953     65.55009     379.6616        49     1.795     1.726 -14.33   2
       108    890.4566    731.4034 307.5330444  +6.3895935     1539.263      3891.98     4606.956      92.4791     185.7741     371.5112      2.486     6.60     1264.413     65.55009     185.6876        30     1.565     1.536 -57.89   2
       109    539.1785    736.8081 307.6789799  +6.3757838     928.7102      2787.18     3550.977     92.77597     185.7741     371.6223      2.769     9.94     1270.604     65.55009     132.0645        23     1.736     1.588 -63.03   0
       110    919.0000    730.5051 307.5212015  +6.3909035     1634.181     3110.123     2868.247     92.62766     185.5519     371.4002      1.879     5.95     1264.168     65.55009     201.5901        19     1.748     1.009 -85.56   3
       111    921.3102    730.6405 307.5202359  +6.3909236     1437.514     2675.025     2597.468     93.21953      185.996     371.9181      1.962     5.80     1264.151     65.55009     171.0989        18     1.489     0.931  64.02   3
       112    950.3334    730.3091 307.5081743  +6.3920148     1059.365     2109.161     2005.011     93.21953     186.1438     371.9181      1.998     5.85     1263.672     65.55009      147.226        13     1.331     0.897 -56.80   0
       113    642.9872    730.1944 307.6360239  +6.3819417     725.7468     1646.936     2231.537     92.77598     185.7001     371.7332      2.594     5.00     1267.501     65.55009     90.09827         6     1.154     0.614  16.23   0
       114    215.8894    724.7767 307.8138591  +6.3700637     819.5596     1616.412     2442.127     93.21953     185.7741     371.7332      2.005     6.76     1275.018     65.55009     107.8774        12     1.605     0.798  19.84   0
       115    934.7070    718.7670 307.5150639  +6.3962696      1431.03     3257.133      3857.09     93.36691     185.8481     371.9551      2.218     7.17     1263.022     65.55009     163.5292        27     1.617     1.289 -34.65   0
       116    908.5336    720.3214 307.5258989  +6.3947667      612.564     1116.581     1078.644     93.36691     186.1438     371.8442      1.767     4.00     1263.397     65.55009      100.101         6     1.716     0.267  13.06   0
       117    653.7504    718.3459 307.6319477  +6.3871917     511.1212     1105.875     1636.276     93.21953      185.996     371.9181      2.809     4.55     1266.396     65.55009     86.66406         5     0.826     0.713  63.35   0
       118   1008.7081    712.7266 307.4844849  +6.4011977     4489.094     9965.347     10477.04     93.21953     186.1438     371.9181      2.268     5.20     1261.724     65.55009     479.8296        44     1.614     1.597 -44.58   0
       119    976.1055    712.1241 307.4980672  +6.4003752      979.837      1830.35      1792.12     92.92406     186.2177     371.8811      1.984     7.14     1262.018     65.55009     152.5911        14     1.659     0.860 -86.43   0
       120    776.8019    709.8417 307.5810497  +6.3947606     576.4642     1214.809     1407.522     92.47909      185.626     371.5482      1.889     5.69     1263.607     65.55009     89.34546         6     1.334     0.683  84.00   0
       121     21.0609    699.4698 307.8957564  +6.3740589     1140.255     3187.396     3633.331     93.36691      185.996     371.8811      2.585     7.13     1272.526     65.55009     139.5991        24     1.839     1.352 -71.35   0
       122    820.2444    698.9098 307.5633481  +6.4007075     767.1609     1664.212     1819.385     93.21953     185.9221     371.9921      2.239     6.41     1262.576     65.55009      125.014         9     1.347     0.856  65.38   0
       123    633.0767    686.9919 307.6416084  +6.3994636     2472.899     7562.625     9825.163     92.77598     185.4037     371.6592      3.006     7.81     1264.334     65.55009     246.5859        56     2.025     1.911 -72.07   0
       124    606.6553    682.7339 307.6527432  +6.4003511     735.8729      2309.88     2847.653     93.36691     185.9221     371.8811      2.869     9.72     1264.238     65.55009     108.2732        14     2.079     1.269  58.72   0
       125     97.2926    683.3324 307.8645978  +6.3832548     1562.935     3761.229     4558.628     93.07191     186.1438     371.9181      2.536     8.59     1271.019     65.55009     194.1089        27     2.072     1.312 -56.75   2
       126     94.1641    680.9946 307.8659786  +6.3841168     920.2372     1716.419     2431.595     92.18125     185.7001     371.6223      1.991     4.98     1270.909     65.55009      123.142         9     1.122     0.625 -79.06   3
       127    969.7154    681.9600 307.5017428  +6.4126273     1297.482     3156.396     3489.834     93.21953     185.9221     371.8442      2.332     8.78     1259.957     65.55009     177.9298        23     1.691     1.380  38.04   0
       128    749.7609    679.1563 307.5933354  +6.4065473     8555.364     25110.45     30163.12     92.92406      185.996     371.7332      2.690     6.52     1261.642     65.55009     828.4788        73     2.041     1.937 -53.91   0
       129    879.7212    678.6981 307.5392894  +6.4110154     1877.912     4579.644     5160.943     92.92406     186.2915     371.9181      2.410     7.18     1260.778     65.55009     197.3163        31     1.653     1.468 -80.64   0
       130    223.6518    673.1602 307.8123844  +6.3916451     2387.279     7740.132     9704.545     93.07191     186.0699     371.8811      2.926     7.32     1269.946     65.55009     321.5519        57     2.057     1.937 -63.21   0
       131    629.4833    673.9671 307.6435440  +6.4047261     2165.074      3638.13      4599.72     93.21953     185.7741     371.8072      1.928     5.75     1263.311     65.55009     239.6639        15     1.461     0.758  52.59   3
       132    630.8383    671.2016 307.6430740  +6.4059134     2556.531     6563.476     8371.593     92.18125     185.7741     371.5852      2.670     7.39     1263.082     65.55009     286.0642        42     2.145     1.540  28.27   2
       133    889.1312    665.2574 307.5358287  +6.4168780          786     1542.432     1368.042     93.36691     185.9221     371.8072      2.102     3.82     1259.642     65.55009     123.9723         5     0.909     0.461  48.62   0
       134    704.0027    660.0009 307.6130178  +6.4129533     1281.246     2852.919     4263.966     92.47909     185.4778     371.5852      2.608     7.18     1261.363     65.55009     146.4807        17     1.532     0.943  68.60   3
       135    700.6694    659.0607 307.6144362  +6.4132319     1299.333      2660.62     3960.639     93.36691      185.996     371.9181      2.731     9.80     1261.374     65.55009     167.6917        22     2.735     0.979  82.69   2
       136    968.3373    656.7271 307.5031673  +6.4230070     5061.046     12084.83     13838.77     93.36691      185.996     371.9551      2.425     5.63     1258.176     65.55009      520.818        57     1.888     1.699 -52.65   0
       137     46.0399    652.5210 307.8869649  +6.3942836     9571.797     30730.22     39193.59     93.07191      185.996     371.8442      2.898     6.88     1269.733     65.55009     1166.506        90     2.254     2.094  79.59   0
       138    906.7507    657.1168 307.5287739  +6.4208209     1134.857      2830.35     2744.962     93.21953      185.996     371.9921      2.383     8.23     1258.787     65.55009     184.4855        17     1.403     1.377 -89.64   0
       139    508.2547    652.3722 307.6947040  +6.4096465     759.4174       1741.7     2158.793     92.92406     186.0699     371.7332      2.795     6.10     1267.171     65.55009     89.14697         8     1.184     0.882  54.32   0
       140    692.0869    643.3723 307.6185371  +6.4194306     1457.918     3856.146     4445.119     93.36691     185.7001     371.7332      2.532     9.06     1260.458     65.55009     156.4136        27     1.822     1.257  36.44   3
       141    689.8079    645.5575 307.6194112  +6.4184526     1240.491      1901.31     2198.085     92.62766     185.7741     371.5482      1.682     5.26     1260.719     65.55009     179.2751        10     1.493     0.523  45.80   3
       142    713.6470    642.2685 307.6096056  +6.4205973     1617.858     5076.703      6275.17     93.21953     185.9221     371.8442      2.883    10.99     1259.916     65.55009     166.8378        41     2.081     1.616 -55.45   0
       143    543.7819    642.3503 307.6802648  +6.4149601     1039.109     2209.612     2769.713     92.62766     186.0699     371.6223      2.466     6.71     1264.949     65.55009     115.2808        14     1.165     1.085  34.66   3
       144    547.0995    640.0330 307.6789633  +6.4160270     1171.987     2990.232      4178.95     93.21953     185.8481      372.066      2.559     6.53     1264.657     65.55009     157.5657        15     1.776     0.674  62.87   2
       145    206.5171    642.3638 307.8205585  +6.4038005     804.4128     2173.041     3629.126     93.21953     185.9221     371.8442      3.614     6.45     1268.581     65.55009     104.3944        11     1.377     0.849  -7.33   0
       146    951.8854    637.1613 307.5106714  +6.4305497     4394.012     10796.56     11575.33     93.21953      185.996     371.8811      2.359     5.55     1256.932     65.55009     460.0564        49     1.734     1.684 -78.17   0
       147    986.4724    638.1664 307.4962492  +6.4312714      2900.38     6882.141     7512.227     93.07191      185.996     371.8442      2.329     5.64     1256.618     65.55009     306.9873        42     1.714     1.580 -76.26   0
       148    110.7347    631.2817 307.8607774  +6.4052041     8871.952     29306.44     37487.89     93.51406     186.2177     371.8811      2.920     7.41     1268.354     65.55009     1063.887        86     2.268     2.086  78.34   0
       149    397.8754    632.8820 307.7412804  +6.4140510     1150.782     3477.464     4740.531     93.51406     186.2915     371.9551      2.939     8.70      1266.91     65.55009     140.8479        22     1.911     1.106 -37.22   2
       150    946.8619    620.1304 307.5133359  +6.4374208     3668.444      9529.61     11324.69     93.21953      185.996     371.9551      2.532     6.00     1255.889     65.55009     389.0852        50     1.832     1.717  55.03   0
       151    540.5217    615.7245 307.6825231  +6.4258526     16449.48     56512.27     72692.25     93.51406     186.2915     371.9921      2.983     7.69     1263.343     65.55009     1693.149       117     2.344     2.213 -62.01   0
       152   1002.1625    615.1296 307.4904989  +6.4413047     52237.04     124050.5     141358.2     93.07191      185.996     371.9181      2.383     5.30     1254.547     65.55009     5085.254       117     1.987     1.864 -80.48   0
       153    150.1174    613.3975 307.8450038  +6.4138983     992.5474     2808.135     3947.673     92.47909     185.5519     371.5112      3.031     8.88     1267.602     65.55009      136.499        16     1.954     1.126 -60.35   2
       154    437.8151    599.6494 307.7257933  +6.4291010     20068.64      73020.5      95879.3     92.47909     185.9221     371.5482      3.025     7.80     1263.952     65.55009      2319.38       120     2.353     2.267 -70.42   0
       155   1015.7880    598.3489 307.4853964  +6.4486853     1927.881     4492.018     4706.521      92.4791     185.8481     371.5852      2.350     6.41     1252.714     65.55009     223.3284        29     1.534     1.465  57.58  16
       156    114.6237    593.9030 307.8604315  +6.4207752     676.1954     1450.541     2839.436     93.36691     185.7001     371.6592      3.708     5.34     1266.602     65.55009     108.9857         6     1.247     0.646 -49.75   0
       157    283.9813    587.9183 307.7901850  +6.4288590     922.4001     2261.279     3109.145     92.77598      185.626     371.8072      2.815     7.03     1263.401     65.55009     103.6813        13     1.559     0.889  25.63   0
       158    707.7751    584.8046 307.6139919  +6.4441446      1289.42     2427.362     3386.033     92.62765     185.7001     371.6962      2.089     4.20     1256.257     65.55009     192.6173        11     1.258     0.661  61.66   3
       159    710.9315    582.5183 307.6127562  +6.4451931     2008.993     5149.857     6794.612     93.51406     186.2915     371.9181      2.708     9.88     1256.106     65.55009     210.0853        36     2.094     1.441  38.08   2
       160    762.0951    578.1430 307.5916193  +6.4486867     5583.238     12971.53     14982.89     93.07191      185.996      372.066      2.366     7.25     1255.245     65.55009     570.8027        47     2.173     1.399  87.22   3
       161    765.0000    577.9754 307.5904165  +6.4488517     4670.212     8375.397     9321.912     92.62766     185.5519     371.6223      1.892     5.30       1255.2     65.55009     509.4495        22     1.783     0.939  88.20   3
       162   1002.8392    577.1526 307.4914982  +6.4570171     1233.893     2864.212     2635.971     93.07191      185.996     371.6592      2.297     7.41     1251.144     65.55009     201.0095        25     1.724     1.373 -76.62   0
       163    587.0005    574.0042 307.6646010  +6.4446233     983.5844     2630.613     3987.472     92.47909     185.4778     371.5852      3.002     8.30     1257.546     65.55009     128.6862        15     1.913     1.008 -28.18   2
       164    586.9405    578.3564 307.6644786  +6.4428232     900.9588      2236.36     3173.781     93.07191      185.996     371.9921      2.654     5.52     1257.835     65.55009     140.6415        10     1.248     0.690  -4.64   2
       165    200.8546    569.4720 307.8253917  +6.4337266     696.3141     1694.509      3468.69     93.07191     185.8481     371.8072      4.618     7.26     1264.833     65.55009     112.4866        10     1.506     0.979  27.14   0
       166    839.6850    561.4314 307.5599051  +6.4581461     1308.285     3533.908      4063.53     93.21953     185.7741     371.7702      2.634     9.29     1253.238     65.55009     140.4607        29     1.689     1.478  75.94   0
       167    797.9417    558.7480 307.5773620  +6.4578803     1138.159     3273.875     3676.398     93.21953      185.996     371.8811      2.608    10.43     1253.687     65.55009     160.2344        26     1.760     1.725 -12.84   0
       168    226.4139    554.2369 307.8152771  +6.4408675     2535.478     8737.308     11669.29     92.62766     185.7741     371.5852      3.052     8.13     1263.875     65.55009     323.7159        63     2.185     2.010  -7.27   0
       169    778.5710    550.0334 307.5857152  +6.4608428     59923.66     192428.4     238985.4     92.62765     185.7001     371.6223      2.847     7.16     1253.439     65.55009     5834.927       178     2.456     2.209 -31.36   0
       170    160.5824    548.8688 307.8428452  +6.4409038      18649.2     67912.09     90021.95     92.62766     185.8481     371.7702      3.051     7.95     1263.684     65.55009     2315.742       120     2.383     2.281  79.34   0
       171     84.7120    545.3458 307.8745266  +6.4398434     2041.773     7155.553      9357.34     93.21953     185.8481      372.066      2.968     7.78     1264.376     65.55009     303.7765        58     2.108     1.988 -26.85   0
       172    814.0088    536.9829 307.5714132  +6.4674016     1863.163     4222.107     5341.929     92.92406     185.7001     371.6962      2.626     7.75     1252.032     65.55009     225.2004        31     2.078     1.131  88.33   2
       173    817.2272    536.9413 307.5700756  +6.4675247     1575.271     2531.522     2895.578     92.77597     186.0699     371.7332      1.761     5.13     1251.984     65.55009     208.3812        14     1.313     0.801  83.23   3
       174    333.8376    535.8828 307.7712120  +6.4520066      5079.02     19334.38     26357.34     93.21953     185.9221     371.8442      3.140     8.18     1258.802     65.55009     598.7617        87     2.322     2.241 -82.69   0
       175    137.2136    534.7736 307.8530460  +6.4459522      840.391     2183.325     3695.768     92.92406     185.7741     371.8072      3.134     6.73     1263.227     65.55009     141.1846        11     1.411     0.901 -76.84   0
       176    769.0240    530.6546 307.5903422  +6.4685345     2095.731     6625.205     8506.565     92.77597      185.996     371.6592      2.869     8.75     1252.297     65.55009     242.3555        47     1.922     1.814 -46.86   0
       177    499.0162    532.6645 307.7026045  +6.4587972     1570.679     3009.979     3953.148     92.62765     185.8481     371.7332      2.100     5.78     1256.287     65.55009     208.5734        12     1.771     0.531  34.46   3
       178    500.5813    529.4803 307.7020613  +6.4601644     2213.947     6171.971     8486.494     92.77598      185.626     371.7702      2.951    10.57     1255.972     65.55009        257.4        49     2.314     1.873  34.35   2
       179    242.4872    520.4581 307.8097386  +6.4553549     25372.54     97964.29     133180.8     93.21953      185.996      372.029      3.152     8.35     1260.466     65.55009     3116.231       141     2.486     2.360  86.04   0
       180    146.0742    526.3604 307.8496462  +6.4497217     1591.024     3080.296     5031.475     93.07191      185.996     371.9181      2.290     5.61      1262.61     65.55009     232.1548        18     1.628     0.835  18.80   3
       181    148.2451    523.2309 307.8488495  +6.4510866     2420.343     6044.721     8960.471     92.77598     186.0699     371.7332      2.902     8.13     1262.422     65.55009     285.4919        44     2.323     1.403  29.98   3
       182     19.1123    522.9470 307.9025781  +6.4469200      1862.33      5839.45     7953.565     93.21953     185.8481      372.029      2.994     8.91      1263.99     65.55009     208.4938        46     1.931     1.898  76.70   0
       183    545.6409    523.9277 307.6835037  +6.4639466     744.4568     2883.677     3916.309     93.07191      185.996     371.9551      3.118     9.42     1254.881     65.55009      143.766        13     2.282     1.084 -34.71   2
       184    764.0000    513.9859 307.5929959  +6.4752556     5170.966     8348.832     9264.647     92.62766     185.5519     371.6223      1.681     5.14     1251.224     65.55009     569.2412        19     1.426     0.869  67.65   3
       185    766.2428    511.4711 307.5921479  +6.4763685     5771.117     15201.99     18998.17     93.07191      185.996     371.9181      2.652     7.69     1250.969     65.55009     623.5612        57     2.336     1.611  36.98   3
       186    467.9945    513.1689 307.7161712  +6.4658267     12206.82     26619.67     30933.29     92.47909     185.8481     371.6223      2.290     6.66     1255.337     65.55009     1193.857        48     2.122     1.206  34.89   3
       187    470.2958    510.1469 307.7153162  +6.4671512     13845.13     35110.91     45487.64     93.07191      185.996     372.1768      2.677     7.89     1255.071     65.55009     1283.306        79     2.677     1.516  33.61   3
       188    940.6354    515.1377 307.5194695  +6.4805935      755.658       1591.9     2098.397     93.07191      185.996     371.8442      2.604     5.45     1248.551     65.55009     100.0031         9     1.014     0.825  -1.32   2
       189    183.2334    507.4411 307.8348312  +6.4587695     882.8289     1829.768     2768.886     92.92406      185.996     371.6962      2.556     5.59     1261.015     65.55009     113.6381        10     1.295     0.679  76.69   0
       190    629.7566    505.0947 307.6491469  +6.4745034     1089.299     3269.144     4796.467     93.21953     185.9221      372.029      3.213     9.64     1253.005     65.55009     141.2673        24     1.996     1.298  41.09   2
       191    113.6514    499.0165 307.8640645  +6.4599431     7986.466      29314.7     39237.63     92.62765     186.0699     371.5482      3.068     7.65      1261.43     65.55009     1036.749        92     2.321     2.232  82.11   0
       192    299.9590    500.5529 307.7865058  +6.4654813     1372.582     3787.997     5815.315     93.07191      185.996     371.6962      3.297    12.80     1256.733     65.55009     165.9824        31     2.474     1.843  57.16   2
       193    368.9031    502.2415 307.7577663  +6.4670651     664.8868     1459.154     2126.947     93.21953     185.8481     372.1029      2.677     5.06     1255.772     65.55009     102.8038         6     1.099     0.658 -24.89   0
       194   1014.9877    498.8905 307.4890836  +6.4897501     676.0422     1194.986     1415.345     92.92406     185.7001     371.6592      2.167     5.14     1242.535     65.55009     96.22827         6     1.311     0.570 -89.94   0
       195    478.1115    499.9081 307.7124119  +6.4716395     742.1667     2408.103     3731.239     93.21953     186.5128     371.9921      3.242     8.97     1254.175     65.55009     129.0497        12     2.265     0.992  -3.56   0
       196     80.0737    499.5127 307.8780162  +6.4586244     628.0091     1464.963     1851.539     93.36691     186.3653     371.8811      1.877     5.88     1262.073     65.55009     137.7631         8     1.851     0.525 -32.62   2
       197     79.8751    495.5995 307.8782320  +6.4602344      891.538     1920.841      2696.01     92.33029     185.2553     371.6592      2.567    11.15     1261.868     65.55009     134.7838        14     2.167     1.597  32.52   2
       198    938.8169    492.7609 307.5209813  +6.4897787     2261.219      6297.04     6773.709     92.77598     185.8481     371.6223      2.573     7.09     1246.734     65.55009     239.5311        45     1.844     1.715 -20.15   0
       199    410.4628    479.8083 307.7412376  +6.4777074     12177.92     47093.41     64239.09      92.4791     185.7001     371.6592      3.148     8.38     1253.454     65.55009     1465.387       117     2.419     2.334 -87.35   0
       200    618.2518    479.2886 307.6548071  +6.4847853     3788.554     13300.71     17219.08     93.21953     185.7741     371.9921      3.022     7.93     1252.175     65.55009     376.1105        75     2.230     2.111 -47.05   0
       201    175.8034    477.6504 307.8389353  +6.4708306      5844.19     21676.15     29944.09     92.47909     185.7001     371.4002      3.163     8.07     1259.314     65.55009     697.0596        94     2.352     2.293  44.21   0
       202    540.2897    474.0485 307.6874201  +6.4843769     878.5295     2109.156     3570.895     93.21953     185.8481      372.066      3.411     7.86     1251.903     65.55009     119.9165        15     1.897     0.911  18.57   2
       203    537.9354    478.0000 307.6882657  +6.4826666     663.2015     1612.897     2577.741     92.33029     185.5519     371.5482      3.203     4.37     1252.348     65.55009     102.4531         5     1.165     0.467  20.41   2
       204    913.7258    474.0628 307.5320518  +6.4966785      2099.12      4677.91     5618.521     93.51406      185.996     371.8811      2.236     7.48     1246.079     65.55009     257.0768        24     1.881     1.120 -26.15   3
       205    912.7996    471.4360 307.5325258  +6.4977332     1803.454     3330.118      3925.37     92.18125     185.7741     371.6592      1.931     5.92     1245.889     65.55009     219.0328        18     1.497     0.867 -17.78   3
       206    586.2288    473.8129 307.6683155  +6.4859908     1621.476     3289.599     3927.783     92.62765     185.7001     371.7702      2.048     6.64     1251.896     65.55009     190.6057        18     1.744     0.828  12.48   3
       207    588.2411    470.6199 307.6675865  +6.4873764     2191.258     5616.439     7037.528     92.77598     185.7741     371.6223      2.643     8.52     1251.561     65.55009     247.8768        40     2.215     1.331  22.60   3
       208    935.4755    465.7308 307.5232839  +6.5008362     1489.937     3907.308     4471.768     93.36691     186.1438     371.8811      2.573     8.78     1244.875     65.55009     163.6521        26     1.777     1.348  83.80   2
       209    497.7980    465.1855 307.7053989  +6.4866351     2110.008     4359.688     5841.304     92.77597      185.626     371.6592      2.318     9.21     1251.093     65.55009     234.5034        29     2.417     0.979  66.00   3
       210    501.6110    462.4483 307.7039053  +6.4878919     2448.828     5645.013     7852.783     92.62766     185.8481     371.5112      2.788    10.70     1250.774     65.55009       276.89        35     2.282     1.398  44.65   3
       211    347.4621    462.5941 307.7680323  +6.4827354     835.3927     2335.583     3464.053      92.4791     185.7741     371.6592      2.977     5.65     1252.892     65.55009     101.8093         9     1.374     0.656  66.50   2
       212    855.8461    457.7074 307.5566855  +6.5015311     1126.602     3560.988     5394.558     93.21953     185.9221      372.029      3.442    10.15     1246.068     65.55009     122.8999        33     2.154     1.334  16.05   2
       213    863.3680    452.7153 307.5537245  +6.5038412      986.236     2790.315      3560.89     93.21953     185.7741     371.7702      2.761     9.48     1245.782     65.55009     121.9991        20     1.859     1.348  67.85   0
       214    687.0330    447.7386 307.6272587  +6.5000885     1147.501     3380.416     4480.808     92.92406     186.0699     371.8072      3.002     8.36     1247.729     65.55009     132.4795        21     1.816     1.076  -5.36   2
       215    397.4771    451.0233 307.7476169  +6.4891701     513.1163     1066.829     1854.226     92.77597     185.8481     371.8072      2.748     4.68     1250.748     65.55009     90.82861         5     1.058     0.588 -15.62   0
       216     50.8011    447.7253 307.8919571  +6.4790477     723.3904      1611.27     2461.705     92.33029     185.3295     371.7332      3.088     3.69     1261.058     65.55009     111.0426         4     0.937     0.601 -43.01   2
       217    359.2946    446.7629 307.7636470  +6.4896673     1327.774     3662.981     5950.427     93.36691     185.8481      372.029      3.947    10.49     1251.321     65.55009     141.6768        34     2.176     1.410  47.64   2
       218    586.9982    443.1471 307.6690342  +6.4986854     3191.232     9342.905     12004.93     92.47909     185.7001     371.4002      2.784     8.64     1248.429     65.55009     321.9268        55     2.318     1.709  36.70   3
       219    748.5990    440.2064 307.6018984  +6.5052297     5941.495     19991.07     25755.27      92.4791      185.626     371.6592      2.922     7.60     1245.932     65.55009     569.4819        81     2.195     2.092 -84.80   0
       220    269.9327    441.6718 307.8009979  +6.4888129     867.9874     2111.133     3006.612     93.21953     186.1438     371.9181      2.548     6.58     1252.727     65.55009     125.6757        10     1.879     0.646 -61.38   2
       221    267.8194    438.5815 307.8019822  +6.4900196      818.888     1648.004     2252.817     92.92406     185.9221     371.8072      2.526     5.27      1252.51     65.55009     94.64539         8     1.078     0.727  85.88   3
       222    584.1958    446.3853 307.6700904  +6.4972551     2475.382     4426.787     6122.655     92.77598     185.5519     371.6962      1.906     6.32     1248.764     65.55009     319.0874        19     1.705     0.815  34.10   3
       223    932.7364    437.3066 307.5253831  +6.5124894     689.2944     1602.554     2344.927     93.21953     186.0699     371.9551      3.060     4.56     1242.889     65.55009      127.124         6     0.971     0.607  25.45   2
       224     85.1909    435.3652 307.8780710  +6.4852950     932.4319     1730.122     2237.577     92.62766     185.7741     371.6592      2.102     5.82      1260.05     65.55009     135.3572        11     1.629     0.585  33.80   3
       225     87.0688    431.9142 307.8774072  +6.4867830     1602.904     4182.188      5691.64     93.36691     186.2915     371.9181      2.786     9.86     1259.961     65.55009     191.5388        33     2.216     1.224  36.64   2
       226    987.6517    429.9536 307.5027826  +6.5173328     1961.262     5450.481     6389.792     93.36691     185.9221     371.9551      2.619     7.70     1239.871     65.55009     220.2965        41     1.895     1.627  33.96   0
       227    722.5772    433.0303 307.6129678  +6.5073369     841.1973     1465.715      2014.34     92.47909     185.7001     371.6592      2.086     4.97     1245.724     65.55009     114.4888         8     1.136     0.615  -3.60   3
       228    722.6055    429.7385 307.6130674  +6.5086978     799.0319     1558.475     2323.554      92.4791     185.7741     371.6223      2.299     6.32     1245.449     65.55009      103.976        10     1.998     0.561  -8.20   2
       229    320.4915    427.8884 307.7804317  +6.4961810     931.1459     2504.753      3680.19     93.21953     186.5128      372.029      2.842     7.49     1250.367     65.55009     114.3746        15     2.001     0.786  89.91   2
       230    324.3458    427.0168 307.7788577  +6.4966686     968.4478     2193.302     3357.075     92.62765      185.996     371.5482      2.693     6.82     1250.227     65.55009     155.1219        14     1.674     0.779  81.30   2
       231    685.5365    414.0107 307.6290227  +6.5139736     4176.669     6763.689     7987.099     92.62765     185.7741     371.7332      1.792     5.37     1244.869     65.55009      534.061        18     1.484     0.807  53.38   3
       232    687.2503    410.9241 307.6284141  +6.5153053     4942.569     13514.37      18489.9     93.07191     186.0699     371.8811      2.862     8.20     1244.545     65.55009     513.8944        60     2.389     1.747  34.55   3
       233    609.3949    407.6058 307.6609196  +6.5141081     788.6519     2282.164     3900.373      92.4791     185.7001     371.6962      3.539     7.39     1244.682     65.55009      107.614        10     2.200     0.695  21.02   2
       234    580.4099    403.4265 307.6731209  +6.5148781     5519.369     18176.35     28650.39     92.77598     185.7741     371.7332      3.383     8.68      1244.19     65.55009     661.8324       110     2.924     2.230  38.12   0
       235    911.8004    401.6862 307.5352967  +6.5265172     1581.898     4069.134     4659.547     92.33029     185.4037     371.4742      2.525    10.19     1240.843     65.55009     171.8923        32     1.929     1.501  61.85   0
       236    351.5215    398.3121 307.7685260  +6.5094267     7852.443      31526.3     43609.98     92.92406     186.2915      372.029      3.200     8.78     1247.571     65.55009     946.1842        99     2.393     2.314 -81.67   0
       237     97.6009    396.4364 307.8742331  +6.5017892     773.3248     1861.899     2297.618     92.18125     185.7741     371.6592      2.329     5.39     1258.104     65.55009     96.83325         9     1.379     0.594 -45.22   0
       238    879.2759    393.2263 307.5491153  +6.5289423      1850.39     4073.632     5315.512     92.92406     185.9221     371.8442      2.891    11.59     1240.818     65.55009     215.3231        28     2.599     1.438  -5.64   2
       239    880.0000    390.0821 307.5489202  +6.5302651     1536.175     2860.137     3554.428     92.33029     185.4037     371.4742      2.048     6.50     1240.472     65.55009     208.2004        15     1.293     1.048  19.54   3
       240    209.1084    389.0275 307.8280930  +6.5085469     3968.108     15217.13     21080.17     93.36691     185.7001     371.7332      3.177     8.39       1251.3     65.55009     517.9053        84     2.370     2.213 -86.68   0
       241   1013.5519    378.7195 307.4937344  +6.5393512     4581.602     11701.19     13323.63     93.21953      185.996     371.9181      2.459     6.03     1235.869     65.55009     487.0778        50     1.866     1.660 -68.42  16
       242    109.1002    377.8992 307.8700799  +6.5098288     1416.562       5548.4     7346.555     93.21953     186.4391     371.6962      3.075     9.09     1256.207     65.55009     209.2334        52     2.285     1.868 -76.76   0
       243    133.3378    373.9904 307.8601289  +6.5122475     936.1201       2224.7     3240.685     92.47909     185.7741     371.6592      3.049     5.48     1254.475     65.55009     122.2894        10     1.003     0.846 -65.76   0
       244    866.8521    397.7537 307.5541316  +6.5266629      648.722     1894.897     2759.888     93.36691     185.9221     371.9551      2.835     7.40     1241.677     65.55009     108.0702         9     2.139     0.716  39.96   0
       245    408.5841    361.7017 307.7460271  +6.5264392     2064.969     8158.193     11148.09     93.21953     185.7001     371.6223      3.177    10.09     1243.587     65.55009     252.3175        66     2.249     2.103  70.91   0
       246      3.9828    365.4956 307.9142360  +6.5114643     791.2902      1523.37     2604.057     93.07191     183.1653     325.6778      1.850     3.46     1261.349     65.55009     111.1531         5     1.094     0.315  21.68  18
       247      6.0895    361.8655 307.9134832  +6.5130340     1137.095     3165.979     4595.884     93.21953     186.1438     353.8054      3.076     9.84     1261.277     65.55009     134.8824        22     1.869     1.444  55.64  18
       248    748.9792    358.7811 307.6044942  +6.5388824     4342.182      14998.3        19750     92.92406     185.9221     371.7702      3.050     8.13      1239.31     65.55009      501.509        74     2.223     2.048 -46.73   0
       249    740.4484    358.0162 307.6080696  +6.5389173     673.8986     1817.341     3751.664     92.62765      185.996     371.5852      4.094     5.63      1239.25     65.55009     95.03784         5     1.212     0.737   8.35   3
       250    993.0037    353.5146 307.5031348  +6.5490892     1755.885     4536.974     5244.076     92.62765     185.5519     371.5482      2.465     7.02     1234.844     65.55009     236.0917        34     1.665     1.512 -82.21   0
       251    456.4670    347.1963 307.7265964  +6.5340149     1027.878     2590.537     3464.877      92.4791      185.626     371.6223      2.862     8.59      1240.58     65.55009     140.2563        14     2.183     0.945  24.38   2
       252    457.5380    343.1851 307.7262868  +6.5357075     955.9343       2259.1     3245.911     92.62766     185.9221     371.6592      2.510     6.13     1240.157     65.55009     154.6453        11     1.661     0.748  41.35   2
       253    430.9391    346.5648 307.7372394  +6.5334319     652.4543     1501.065     2276.127     93.21953      185.996     371.8442      2.043     4.78     1241.695     65.55009     89.74207         8     1.668     0.388 -61.22   0
       254    814.4150    341.5450 307.5778496  +6.5481589     12542.11     39959.28      50905.2      92.4791      185.996     371.5482      2.887     7.08      1237.45     65.55009     1196.363        98     2.292     2.080 -74.87   0
       255    585.6868    336.5378 307.6731914  +6.5426866     890.5976     1957.044     2921.561     93.21953     186.2177     371.8811      2.042     5.51     1237.756     65.55009     125.4259         9     1.913     0.447 -20.95   2
       256    587.6266    333.0771 307.6725015  +6.5441803     818.7609     2357.333     3142.052     93.07191      185.996     371.8442      2.956     6.89     1237.331     65.55009     122.9336        10     1.726     0.770  20.98   2
       257    669.7852    329.6108 307.6384333  +6.5483231     24583.38     55347.16     63119.12     92.92406     185.7001     371.8072      2.312     9.09     1236.933     65.55009     2614.592        58     2.182     1.308  46.85   3
       258    673.0056    327.2710 307.6371725  +6.5493960     23980.45     55492.34     73229.91     92.62765     185.5519     371.7702      2.615    11.72     1236.697     65.55009     2407.583        68     2.765     1.382  43.81   3
       259    533.5580    325.1050 307.6952691  +6.5456887     829.6069     3080.241     3658.507     93.21953     185.9221      372.029      2.968    10.70     1236.707     65.55009     109.7848        25     2.326     1.372 -22.16   0
       260     71.1375    323.8709 307.8877138  +6.5308896     1870.245      6680.03     9121.849     93.21953      185.996     371.9551      3.118     8.18     1256.826     65.55009      250.261        57     2.209     1.953 -77.36   0
       261    516.7465    320.9099 307.7024064  +6.5468665     2091.488     7798.906     10413.54     93.21953     185.7741      372.029      3.105     9.78     1236.681     65.55009     248.0918        63     2.217     2.037  79.89   0
       262    379.7574    316.0446 307.7595710  +6.5443482     7112.432     28291.38     40004.29     93.07191      185.996     371.7332      3.253     9.05     1241.187     65.55009     875.1016       102     2.458     2.304 -67.58   0
       263    246.6163    318.7838 307.8148755  +6.5388092     695.8109     2512.019     2962.469     92.92406      185.626     371.8072      2.888    10.69     1246.848     65.55009      113.895        16     2.322     1.370 -55.48   0
       264    466.8848    308.3175 307.7235805  +6.5504214      2330.96      4872.57     6464.416     92.92406     186.2915     371.9551      2.358     9.23     1236.943     65.55009     254.1058        30     2.118     1.124  61.11   3
       265    470.9144    305.9198 307.7219852  +6.5515452     2824.726     6534.042     8729.408     92.92406     186.3653     371.9921      2.564    10.83     1236.655     65.55009     312.7734        41     2.456     1.331  45.00   3
       266    737.8395    304.7741 307.6109563  +6.5608278     1086.683     3767.218     5022.714     92.77597     185.7741     371.6962      2.951    11.05     1235.027     65.55009     143.5592        36     1.974     1.724 -82.60   0
       267    357.6669    293.0375 307.7695438  +6.5531223      2020.56     3800.729     4475.448     93.07191     185.9221     371.9921      2.060     7.45     1241.268     65.55009     241.4449        25     1.897     0.947  33.41   3
       268    360.5202    290.2334 307.7684518  +6.5543752     2308.382     5221.396     7595.745     93.07191      185.996     371.8811      2.723    11.39     1240.915     65.55009     277.9396        41     2.781     1.300  31.19   3
       269    726.3707    286.1617 307.6163583  +6.5681393      17560.6     61397.06     79448.98     92.62766     185.7001     371.7332      2.980     7.91     1233.573     65.55009     1863.392       111     2.307     2.226 -81.05   0
       270    216.1202    290.8631 307.8285136  +6.5493337      841.793     1620.205     1866.646     93.51406     186.0699     371.8811      2.394     5.34     1247.315     65.55009     104.8438         7     1.001     0.804 -18.49   0
       271    399.9645    285.7866 307.7521903  +6.5575171     711.1583     1645.985       2835.2     92.62765     185.7741     371.6962      2.794     4.37     1237.865     65.55009     93.08032         5     0.941     0.578 -51.07   3
       272    396.7769    285.2438 307.7535350  +6.5576359     655.0807     1873.769     2774.615     92.62766     185.8481     371.6592      2.915     5.00     1238.039     65.55009      83.5708         7     1.698     0.417 -55.82   2
       273    960.5830    283.7558 307.5189798  +6.5768439     811.9711     2104.888     1412.649     92.77598     185.8481     371.6223      2.389     7.94     1230.325     65.55009     135.1942        12     1.673     1.054  55.62   0
       274    901.0920    282.9176 307.5437636  +6.5752335     1046.181     2234.634     2113.359     92.92406     186.3653     371.9551      2.112     7.21     1231.715     65.55009     133.0647        15     1.349     1.079  68.47   0
       275    383.0009    279.6945 307.7594556  +6.5594728     678.6314     1529.438     3275.508     92.62765     185.5519     371.4742      4.022     5.04     1238.775     65.55009     105.2561         7     1.069     0.672 -17.05   0
       276    724.5297    272.6658 307.6175810  +6.5736544       2158.4     4980.425     6508.207     93.21953     186.0699     371.8811      2.562     8.16       1232.8     65.55009     198.6677        27     1.685     1.269  21.62   3
       277    726.5151    269.7097 307.6168549  +6.5749411     1963.941     4448.812     5613.081     92.92406     186.3653      372.029      2.556     9.68     1232.642     65.55009     208.3118        29     2.245     1.163  19.49   3
       278    162.1696    272.3994 307.8515897  +6.5551733     783.9872     2095.798     2224.359     92.47909     185.7741     371.6592      2.409     6.77     1251.381     65.55009     114.7095        10     1.696     0.759  35.92   0
       279    740.2700    268.8665 307.6111598  +6.5757428     986.9133     2788.858      3996.95     93.21953     186.0699     371.8811      3.044     9.47     1232.692     65.55009     121.6125        20     2.117     1.278 -86.22   2
       280    331.0480    265.5922 307.7815520  +6.5635799     701.6031     1694.088     2250.112     92.62765     185.8481     371.4742      2.682     5.91     1240.936     65.55009     107.9038         7     1.135     0.865 -31.66   0
       281    979.2506    259.3592 307.5120352  +6.5875369     2956.028     7778.411     9151.457     93.21953      185.996     371.8442      2.551     6.26     1228.121     65.55009     355.0637        44     1.753     1.684  55.11   0
       282    456.7116    262.2779 307.7293755  +6.5691056     569.7518     1302.341     2263.566     92.92406     186.2915      372.029      1.764     3.45      1233.44     65.55009     93.82922         5     1.225     0.280  34.84   0
       283    220.3221    255.6322 307.8279633  +6.5640277     1550.024     6405.796     8978.301     93.07191      185.996     371.8442      3.235    10.17      1246.91     65.55009     232.9221        63     2.289     2.181  29.62   0
       284    532.4213    240.0082 307.6986269  +6.5808076      705.894     1307.123     2666.382     92.77597     185.7741     371.6223      2.493     4.05     1228.341     65.55009     105.1709         6     0.952     0.493 -12.09   0
       285    696.3655    237.5498 307.6304892  +6.5872336     1379.839     2078.877     2479.848     93.07191      185.996     371.7702      1.739     3.83     1229.915     65.55009      216.649         9     0.959     0.670  22.64   3
       286    699.0001    234.8195 307.6294853  +6.5884485     1646.829     3586.273      4420.27     92.77598     185.4778     371.5112      2.290     8.07     1229.778     65.55009     157.1505        24     1.502     1.213  60.79   3
       287    695.5012    233.9637 307.6309702  +6.5886867     1461.005     2768.565     3978.104     93.21953     185.8481     372.1029      2.290     5.81     1229.614     65.55009      166.973        13     1.501     0.633  81.84   3
       288    637.4247    236.3551 307.6550565  +6.5857832     654.7206     1571.323     2175.056     92.62766      185.996     371.7332      2.514     4.76     1228.737     65.55009     96.00867         7     1.394     0.462  82.29   0
       289    877.0220    236.4308 307.5553502  +6.5936470     747.8848     2129.998     2719.716     92.62765     185.7741     371.6962      2.715     9.21     1229.089     65.55009     109.6598        14     1.807     1.310 -23.01   0
       290    199.0562    220.7309 307.8379991  +6.5777416     770.0316     1570.798     2254.332     93.36691     185.8481     371.8442      2.293     6.69     1248.573     65.55009     113.8837         9     1.555     0.808 -88.81   0
       291    838.3513    219.8577 307.5720026  +6.5992211     646.3756     1484.394     2242.608     93.21953      185.996     371.9921      2.859     4.68     1229.007     65.55009     79.09448         6     0.954     0.651  60.19   0
       292    429.7975    212.6030 307.7422604  +6.5887381     6607.432     15548.98     19778.36      92.4791     185.4778     371.6223      2.588    10.97     1232.113     65.55009     633.4752        47     2.722     1.231  59.83   3
       293    433.3206    210.4933 307.7408660  +6.5897262     6877.659     15223.81     20507.32     92.92406     186.2177     371.9551      2.695    10.80     1231.488     65.55009     740.6176        57     2.875     1.447  55.51   3
       294    756.6354    209.1564 307.6063697  +6.6009507     4557.238      15783.2     21061.38     92.92406     185.9221     371.6962      3.057     7.75     1229.204     65.55009     473.2909        74     2.166     2.109 -83.88   0
       295    121.9204    203.9748 307.8706660  +6.5821062     712.2237     1399.666     2637.114     92.92406     185.7741     371.8442      2.189     4.39     1253.881     65.55009     110.0107         7     1.698     0.323 -68.56   2
       296    117.6598    203.6489 307.8724499  +6.5820995     631.8826      1680.71      2300.86     93.21953      185.996     371.9551      3.026     5.56     1254.137     65.55009     89.30542         6     1.365     0.638  36.21   3
       297    553.2310    194.0079 307.6915269  +6.6004992     1274.907     2475.886     3281.302     92.62766     185.7741     371.6223      2.455     7.41     1226.162     65.55009      132.754        18     1.561     0.984  57.36   3
       298    553.0356    197.5363 307.6914886  +6.5990350     1475.638      2800.55     3505.782     93.07191     185.9221     371.9181      2.225     6.64     1226.245     65.55009     181.3376        18     1.728     0.837  38.53   3
       299    556.6729    195.6498 307.6900389  +6.5999345     1653.775     3299.641     3999.863     93.21953     186.0699     371.9181      2.089     5.27     1226.245     65.55009     174.1334        16     1.348     0.893  81.39   3
       300    516.4484    196.9166 307.7067348  +6.5980826     790.7418     2004.306     2649.888     93.21953      185.996     371.9181      2.727     6.61     1226.434     65.55009     134.0483         9     1.531     0.800  53.70   2
       301    860.7203    192.9003 307.5636050  +6.6110947     4592.765     10257.24     12198.03     92.92406     186.3653     371.9181      2.351     6.70     1226.046     65.55009     511.6824        45     2.192     1.253  74.93   3
       302    915.7943    193.2738 307.5406734  +6.6127528     1114.978     2926.567     3774.176     92.77598     185.4778     371.7702      2.620     8.49     1224.981     65.55009     128.0782        19     1.731     1.164 -45.36   0
       303    948.2382    190.0110 307.5272819  +6.6151679     4452.165     12795.61     14928.53     92.47909     185.7741     371.5482      2.615     6.61      1224.22     65.55009     458.5209        59     2.019     1.785  60.64   0
       304    660.6617    189.5906 307.6469705  +6.6058699     921.6184     3028.439     4156.409      92.4791     185.8481     371.6592      3.001     8.69     1227.205     65.55009     136.5149        16     1.722     1.225  15.56   2
       305    469.9830    185.1610 307.7264693  +6.6014038     615.0688     1421.241     1990.203     92.77598     185.8481     371.6223      1.981     4.50     1226.957     65.55009     97.93201         6     1.394     0.414  72.65   0
       306    799.8934    182.3508 307.5892747  +6.6134503     875.8549     2158.612     2503.228     93.07191     185.8481      372.029      2.593     7.48     1225.832     65.55009     136.8188        16     1.573     1.302 -75.06   0
       307    480.8336    183.7935 307.7220004  +6.6023273     742.9375     2007.907     3248.928     92.47909     185.7741     371.6223      2.829     5.40     1226.419     65.55009     104.1115         8     1.323     0.621 -29.59   0
       308    710.6846    178.9064 307.6265154  +6.6119335     13203.84     32959.21     41193.41     93.07191     186.5128      372.029      2.606     8.15     1227.464     65.55009     1379.285        74     2.639     1.445  79.13   3
       309    713.7664    178.0432 307.6252621  +6.6123917     11671.94     22506.13     25143.99     92.92406      185.996     371.6592      2.035     5.56     1227.449     65.55009     1251.931        34     1.756     1.161 -89.34   3
       310    316.7174    178.8571 307.7904619  +6.5989382     2473.342     6008.752     8708.668     93.21953      185.996     371.9551      2.896     8.79     1240.453     65.55009     249.9362        44     2.471     1.279 -75.45   3
       311    313.3884    177.8969 307.7918798  +6.5992247     2187.253     5349.224     8094.989     92.92406     185.7001     371.6592      2.896    10.09     1240.919     65.55009     249.1075        36     2.773     1.061 -86.63   3
       312    863.7374    192.0153 307.5623794  +6.6115597     3486.257     6748.477     7606.859     92.62766     185.9221     371.6592      2.031     4.75      1225.91     65.55009     369.0781        21     1.524     0.951  80.65   3
       313    851.3043    182.6525 307.5678698  +6.6150186     756.6279     2000.104     2948.151     93.07191     185.9221     372.1768      2.928     4.03     1225.267     65.55009     93.44543         6     0.894     0.519  44.54   0
       314    945.2812    176.9456 307.5289537  +6.6204686     1419.465     3480.335     4244.622     93.21953      185.996     371.9551      2.520     8.57     1223.526     65.55009      166.145        26     1.669     1.321  49.02   0
       315    879.8330    175.2831 307.5562465  +6.6190022      2948.74     9383.941     11109.61     93.21953     185.7741     371.8072      2.766     7.63     1224.229     65.55009     326.9318        55     1.979     1.909  72.49   0
       316    425.2678    175.3616 307.7454094  +6.6039739     1610.331      4570.88     7222.146     93.07191      185.996     371.9921      3.335    13.21     1227.778     65.55009     205.6602        40     2.348     2.069  11.79   2
       317    983.7818    176.6201 307.5129423  +6.6218690     821.4189     1757.546     1996.087     92.92406     185.9221     371.7702      2.247     5.42     1222.692     65.55009     123.5139         8     1.209     0.686 -46.88   0
       318     79.0178    163.2413 307.8899052  +6.5975105     1055.864     2045.393     2600.864     92.62765     185.7741     371.6223      2.195     6.73     1256.322     65.55009      136.745        14     1.323     1.064  52.40   3
       319     82.6656    166.4799 307.8882770  +6.5962937     1731.714     3514.595     5037.093     93.51406     186.1438     371.8442      2.568     7.51     1256.135     65.55009     202.2389        23     1.827     1.006 -74.42   3
       320     79.3313    168.6934 307.8895891  +6.5952686     1191.987     2391.744     3693.136     93.07191     186.1438     371.9181      2.476     5.56     1256.322     65.55009       152.49        10     1.090     0.904  38.61   3
       321    251.1812    163.0372 307.8182711  +6.6033035     9314.408     37193.22     51827.16     92.77598     185.7741     371.6223      3.213     8.69       1248.2     65.55009     1108.607       107     2.457     2.329 -72.56   0
       322    226.6643    166.7028 307.8283486  +6.6009768     1927.351     3231.526     3186.274     93.21953     186.1438     371.9181      1.782     6.72     1250.446     65.55009     224.9915        14     1.550     0.817   9.21   3
       323    228.8383    164.1437 307.8275309  +6.6021061     1997.023     4289.901     6554.773     93.21953     186.0699     371.8811      3.026    13.53     1250.446     65.55009     211.2133        48     3.330     1.652  23.45   2
       324    375.1756    158.3816 307.7668311  +6.6093319     13532.55     54486.94     76439.43     92.77598     185.7741     371.7702      3.219     8.51     1232.971     65.55009     1578.145       123     2.474     2.401 -80.75   0
       325    129.0868    157.9297 307.8692514  +6.6013661     1104.177     2381.752     2672.477     93.36691     186.2915     371.9181      2.277     8.70     1253.706     65.55009     139.9688        19     1.635     1.293 -17.09   3
       326    129.7385    162.0270 307.8688407  +6.5996951     1128.698     1509.656     3003.217     92.77598     186.0699     371.7702      1.635     3.77     1253.688     65.55009     152.0304         8     0.906     0.728 -19.40   3
       327    133.1905    160.0346 307.8674721  +6.6006327     1307.934     3034.355     4360.853     92.62766     185.7741     371.6592      2.753     8.49      1253.52     65.55009     171.5004        22     2.260     0.892 -71.07   3
       328    279.8957    156.1939 307.8065547  +6.6070818     5507.074     19709.61     30015.83     92.92406      185.626     371.6592      3.442     9.10     1245.552     65.55009     640.0824       114     3.012     2.300   0.24   0
       329    714.3090    154.2747 307.6258408  +6.6222293     10816.46     38219.67     49043.77     93.21953     186.2177     371.9181      2.979     8.09     1226.198     65.55009      1259.76        99     2.261     2.213  74.27   0
       330     31.3758    152.3311 307.9101016  +6.6004362     2717.789     10460.31     13994.34     92.77598     185.8481     371.8072      3.087     8.26     1258.327     65.55009     362.8478        67     2.238     2.053 -71.75   0
       331    973.3950    134.4590 307.5186883  +6.6389459     1006.679     2834.863     3672.128     92.62766     185.8481     371.6223      2.872     9.54     1220.252     65.55009     129.6921        26     1.846     1.375  74.78   0
       332    249.5054    131.5180 307.8200401  +6.6162693     9324.306     23173.09     29319.46     92.92406     186.3653      372.029      2.682    10.80     1249.279     65.55009     962.5051        46     2.576     1.393  50.71   3
       333    252.3350    129.4757 307.8189321  +6.6172068     9987.575     20665.55     28895.71     93.36691      185.996     371.8442      2.642    10.88     1249.227     65.55009     1064.431        59     2.906     1.491  56.56   3
       334    564.0075    132.9888 307.6891108  +6.6260640     578.7604     1529.583     2923.948     92.77598     185.7741     371.7702      3.326     5.49     1224.942     65.55009     89.65662         9     1.465     0.581  16.16   0
       335    681.5638    125.6421 307.6404374  +6.6329787     2711.084     9187.761     11717.02     92.92406      185.996     371.7332      2.969     8.35     1224.509     65.55009     297.0708        62     2.174     1.971  67.12   0
       336     92.0268    126.3479 307.8857484  +6.6131836     1082.288     1441.606     1682.147     92.77597     186.1438     371.8072      1.583     5.02     1255.026     65.55009     158.1229         8     1.322     0.539  29.71   3
       337     93.8357    122.5503 307.8851250  +6.6148125     1779.891     4711.981     6281.642     93.07191      185.996     371.8072      2.867     9.75     1254.882     65.55009     225.3722        40     2.129     1.706  29.72   2
       338    364.8066    119.2827 307.7724740  +6.6251417     1345.234     3838.669     5906.878     92.77598      185.626     371.6962      3.377    13.10     1236.746     65.55009     178.0981        40     2.634     1.812  41.43   2
       339    327.9302    118.4733 307.7878476  +6.6242556     894.1667     3315.662     4793.068     93.36691     186.1438     371.9181      3.318    10.47     1242.289     65.55009     146.4625        22     2.129     1.435 -44.82   2
       340    973.0288    111.1820 307.5196265  +6.6485506      714.916     1510.055     1647.533     92.77598     185.7741     371.8072      2.152     5.04     1218.852     65.55009     96.40649         6     1.256     0.572  59.32   0
       341    179.9289    107.8801 307.8497978  +6.6237287     1797.979     5338.322     7172.886     93.51406     186.2915     371.9181      3.033    10.98     1251.392     65.55009     213.3214        44     2.421     1.638 -50.72   2
       342    178.0408    104.9155 307.8506844  +6.6248909     1412.948     2487.405     3894.384     93.21953     185.9221     371.8442      2.247     5.98     1251.381     65.55009     172.1527        15     1.374     0.941 -57.33   3
       343    640.1609    103.4648 307.6584190  +6.6407751     1601.641     3329.925      4276.31     93.21953     185.9221     371.9921      2.277     7.72     1223.776     65.55009     198.1686        18     1.627     1.024  26.80   3
       344    639.8270    107.3141 307.6584276  +6.6391738     1886.189      3179.74     4206.869     93.36691     185.7001     371.7332      1.874     5.86     1223.945     65.55009     214.3925        19     1.528     0.873  45.66   3
       345    643.3835    105.2118 307.6570187  +6.6401596     1895.322     3708.841     4214.985     93.07191      185.626     371.7702      2.089     6.19     1223.811     65.55009     244.1882        19     1.509     0.999 -73.22   3
       346     63.0000    108.8976 307.8984218  +6.6194293     611.7911     1150.255     2035.313     92.62766     185.5519     371.4742      2.080     3.91     1255.876     65.55009     90.01465         5     1.214     0.360 -65.16   3
       347     64.2975    105.2245 307.8980069  +6.6209897      617.785     1637.542     2576.453     93.36691     185.7001     371.7332      2.992     3.52     1255.744     65.55009     109.1508         5     0.775     0.461  15.25   2
       348     60.2153    108.3206 307.8996002  +6.6195752     637.1368     1296.222      2389.57     92.77598     185.7001     371.6592      2.860     4.59     1255.975     65.55009     97.14124         6     0.942     0.636  73.86   0
       349    596.3519     95.3029 307.6769275  +6.6427012     18420.02     56397.92      87194.7     93.21953     185.8481      372.066      3.519     9.83      1224.13     65.55009     1888.444       181     3.904     2.295 -68.55   0
       350    321.5347     99.0722 307.7911683  +6.6320589     1374.135     3992.512     6563.607     93.21953     186.0699     371.9181      3.479    10.63     1244.348     65.55009     152.8566        36     2.123     1.482 -50.90   2
       351    274.5266     85.7801 307.8111828  +6.6359936      973.228     2150.434     3587.101     92.77598     185.9221     371.8072      2.920     6.14     1249.438     65.55009     133.0209        10     1.415     0.749 -31.77   3
       352    275.4874     90.1034 307.8106359  +6.6342393      1183.99     2607.354     3219.171     93.21953     186.4391     371.9181      2.300     7.75     1249.438     65.55009     128.4288        21     1.810     0.929  12.30   3
       353    278.3185     87.5017 307.8095462  +6.6354079     1005.281     2047.304     3050.667     93.07191     186.4391     371.9921      2.262     5.61     1249.333     65.55009     131.8113        11     1.374     0.672  75.60   3
       354    660.6384     79.6938 307.6507019  +6.6512713     1351.913     3239.026     4648.219     93.36691     185.8481     371.9921      3.089     7.59     1222.407     65.55009     197.9565        19     1.780     1.012 -17.18   2
       355    403.0096     69.5068 307.7582658  +6.6469694     1275.375     4769.854     5792.246     92.77597     185.5519     371.6962      2.921    10.50     1231.875     65.55009     195.1825        46     2.074     1.898  67.22   0
       356    875.0366     64.3063 307.5619931  +6.6646931     1688.208     4759.696     5362.125     93.36691     185.8481     371.9921      2.572     9.05     1217.696     65.55009     187.7382        38     1.871     1.500  59.94   0
       357    857.5750     66.0259 307.5692023  +6.6634079     879.8127     2343.638     2311.214     92.62765     185.7741     371.7702      2.555     7.35     1217.923     65.55009     101.0968        14     1.614     0.937  -6.36   0
       358    113.6365     60.2365 307.8790071  +6.6412125     1094.763     3026.195     5261.251     92.92406     185.8481     371.6223      3.813    10.09      1252.24     65.55009      136.547        22     1.926     1.473  64.06   2
       359    797.7453     49.9342 307.5946471  +6.6680857     2381.123     7390.167     8601.755     93.21953     185.9221     371.8442      2.764     7.63     1217.648     65.55009     247.4292        52     1.945     1.879  60.73   0
       360    742.8491     50.4103 307.6174784  +6.6660801     1191.365     4121.492     5349.766     92.62766     185.7741     371.5112      3.019    11.66      1219.42     65.55009     163.6877        37     2.035     1.861 -18.88   0
       361     34.8469     49.4064 307.9121645  +6.6430713     958.2613     2216.371     3545.922     92.62766     185.7741     371.4742      2.979     7.03     1254.803     65.55009     123.0917        12     1.933     0.717  81.27   2
       362     38.4734     48.7229 307.9106786  +6.6434741     1091.171     2368.682     3481.028     93.51406     186.2915     371.9181      2.459     6.09     1254.672     65.55009      161.178        13     1.615     0.646 -68.40   2
       363    735.9169     38.1741 307.6207778  +6.6709068     908.4884     2199.143     3429.889     93.07191     185.7001     371.8072      3.172     6.79     1219.045     65.55009     116.4952        13     1.325     0.974 -50.75   2
       364     64.4915     32.2848 307.9004112  +6.6511287     3034.614     10749.81     14131.18     92.92406     186.5128     371.9921      3.044     7.75      1252.82     65.55009     344.0531        72     2.222     2.125  80.83   0
       365    391.6350     33.3279 307.7642283  +6.6615395     794.9471     2000.699     3314.323     93.07191      185.996     371.8811      3.030     6.73     1235.286     65.55009      108.114         9     1.705     0.744  43.41   0
       366    396.0469     31.1858 307.7624649  +6.6625704     888.5164     2016.969     3015.746     92.47909     185.7741     371.6223      2.738     4.52     1234.776     65.55009      116.459         8     0.841     0.691 -39.21   2
       367    554.5148   1014.8876 307.6631847  +6.2614044     94207.99     219819.4       258113     92.92406     186.2177     371.9551      2.419     5.78     1284.223     65.55009     9601.963       126     2.108     1.914 -75.63  19
       368    556.2844   1007.6667 307.6626932  +6.2644461     43729.82     98009.25     110365.4     93.36691     186.2915     371.9551      2.295     5.46     1283.888     65.55009     4379.624        76     1.847     1.701   3.77   3
       369    188.6192   1018.2115 307.8152300  +6.2479337     2244.451     4996.268     6025.735     92.77598     185.7001     360.8853      2.402     5.73     1283.214     65.55009     234.8573        33     1.559     1.466  71.09  16
       370    765.4584   1011.6395 307.5755702  +6.2697008      4562.83      9650.13     10715.06     93.21953     186.0699     371.9921      2.180     4.98     1283.026     65.55009     450.1367        41     1.629     1.474 -35.74   0
       371    863.4507   1007.8817 307.5349447  +6.2744790     1185.974     2279.649     2386.712     93.21953     186.0699     371.9181      2.013     6.62     1280.995     65.55009     140.5027        14     1.450     0.848 -61.80   0
       372    186.5899   1007.2790 307.8164453  +6.2523830     1292.491     2845.377      3531.29     92.77598     185.7001     371.6962      2.343     8.14     1282.959     65.55009     154.1871        23     1.594     1.163  39.35   0
       373    403.9387   1004.5170 307.7261545  +6.2607157       2290.3      5673.52     6542.902     93.36691      185.996     371.9181      2.463     6.62     1283.783     65.55009     239.7029        44     1.821     1.690  16.71   0
       374    689.1354   1004.1198 307.6075649  +6.2702930     4801.695     10368.04     12107.69     93.51406     186.0699     371.8442      2.285     4.95     1283.214     65.55009     474.0208        46     1.693     1.572 -53.87   0
       375    545.4182   1003.2383 307.6673620  +6.2659170     2518.836     5914.925     8110.639     92.77598     185.8481     371.5852      2.757     6.19     1283.649     65.55009     251.9801        37     1.663     1.560 -12.31   0
