#   1 NUMBER                 Running object number                                     
#   2 X_IMAGE                Object position along x                                    [pixel]
#   3 Y_IMAGE                Object position along y                                    [pixel]
#   4 ALPHA_J2000            Right ascension of barycenter (J2000)                      [deg]
#   5 DELTA_J2000            Declination of barycenter (J2000)                          [deg]
#   6 FLUX_APER              Flux vector within fixed circular aperture(s)              [count]
#   9 FLUXERR_APER           RMS error vector for aperture flux(es)                     [count]
#  12 FLUX_RADIUS            Fraction-of-light radii                                    [pixel]
#  13 FWHM_IMAGE             FWHM assuming a gaussian core                              [pixel]
#  14 BACKGROUND             Background at centroid position                            [count]
#  15 THRESHOLD              Detection threshold above background                       [count]
#  16 FLUX_MAX               Peak flux above background                                 [count]
#  17 ISOAREA_IMAGE          Isophotal area above Analysis threshold                    [pixel**2]
#  18 A_IMAGE                Profile RMS along major axis                               [pixel]
#  19 B_IMAGE                Profile RMS along minor axis                               [pixel]
#  20 THETA_IMAGE            Position angle (CCW/x)                                     [deg]
#  21 FLAGS                  Extraction flags                                          
         1    172.4670     20.8817 307.8649313  +6.6682317     9809.731     16220.88     16826.83     78.50647      156.641     312.7541      1.802     4.27     828.5707     55.11703     1097.973        41     1.652     1.089 -35.99   0
         2    918.0806     18.7627 307.5552077  +6.6941113     3612.262      6086.96     6226.277     78.25842     156.4547     312.6608      1.778     4.62     821.2613     55.11703     440.2496        28     1.574     0.994 -36.24   0
         3    719.0237     17.2463 307.6379679  +6.6880808      1740.15     3087.839     3015.798     78.00959     156.3926     312.5675      1.899     5.57     822.4066     55.11703     215.1318        19     1.476     0.923 -31.18   0
         4    454.6215     17.4733 307.7478177  +6.6791238     1576.018     2937.861     2779.759     78.00959      156.206     312.6297      1.936     5.27     823.0614     55.11703     187.0708        21     1.461     1.062 -35.68   0
         5    982.9095     14.7996 307.5284039  +6.6979124     1687.787     3089.843     3225.531     77.63484     155.8945     312.4431      1.923     5.19     816.7859     55.11703     215.1021        27     1.688     1.086 -42.39   0
         6    702.2529     11.4179 307.6451326  +6.6899254     6663.798     10834.53     11407.88     77.88487     156.4547     312.4431      1.747     4.51     822.4203     55.11703     799.5737        36     1.612     1.040 -29.88   0
         7    622.4836     10.7047 307.6783007  +6.6875480     3484.752      5866.31     6041.529     78.25842     156.7651     312.7852      1.783     4.30     822.4012     55.11703     398.2968        27     1.558     1.019 -31.03   0
         8    324.4021     10.1755 307.8021686  +6.6777624        822.8     1427.081     1769.646     78.00959     156.0815     312.5053      1.667     5.36     830.2724     55.11703     143.2703        10     1.425     0.569 -20.58   0
         9    422.6592      6.8708 307.7614559  +6.6824277      5708.56     9765.578     10771.52     78.50647     156.3926      304.278      1.845     4.40     823.1403     55.11703     671.6137        35     1.629     1.068 -35.70  16
        10     23.5308      6.4546 307.9272982  +6.6691695     7815.624     13008.63     13688.83     78.38255     156.2682     300.8077      1.828     4.37     826.6359     55.11703     903.5804        40     1.693     1.094 -32.10  16
        11    378.7846      8.3378 307.7796357  +6.6803485     611.2269     984.5677     833.6309     77.88487     156.3304     312.1941      1.856     5.32     827.4108     55.11703     79.00037         7     1.135     0.704 -34.64   0
        12    669.6708      5.6054 307.6588664  +6.6912339     769.6216     1328.829     1586.919     77.88487     156.0192      292.783      1.970     6.21     822.6314     55.11703     113.5157        13     1.603     0.677 -39.31  16
        13    319.0523      2.2342 307.8046599  +6.6808609     11238.53     17084.21     18176.33     77.25827     137.1163     249.5091      1.652     4.70     830.2724     55.11703     1352.439        36     1.650     1.001 -20.45  24
        14    498.6674      3.6986 307.7299823  +6.6862886     872.9333     1472.668     1222.927     78.38255     152.3625     270.3051      1.725     5.51     822.5087     55.11703     105.4623        12     1.200     0.712 -39.57  16
        15    413.9854      3.0261 307.7651897  +6.6837236     680.9442     1261.014     2466.206      78.1341     145.9759     261.0849      2.313     5.46     823.4368     55.11703     96.18427        11     1.450     0.580 -47.18  24
        16     92.7529      2.2598 307.8986811  +6.6732343     2325.557     3638.374      4028.55     77.50952     137.3288     250.0929      1.712     4.45     827.7604     55.11703      283.384        23     1.492     0.943 -23.32  24
        17     83.8542      1.6259 307.9023997  +6.6731962      1024.93      1630.21     1835.577     71.50784     128.9314     239.9358      1.659     5.10     827.5596     55.11703     193.4502        11     1.457     0.712   0.81  25
        18    787.1502      1.2354 307.6102003  +6.6969703      502.267     662.4091     456.1267     66.87129     122.9097      233.613      1.413     3.58     821.2267     55.11703     109.7434         5     1.111     0.332 -14.40  24
        19    384.6993      1.1010 307.7774229  +6.6835347     729.9886     1010.683     968.6055     65.10345     120.9163      231.313      1.247     3.49     826.6609     55.11703     184.1643         6     1.194     0.295  -3.03  24
        20    591.3542    992.6674 307.6581312  +6.2811144     1173.574     2123.195     2546.971     78.38255     156.3304      312.723      2.019     5.15     852.7954     55.11703     150.5995        17     1.482     0.806 -40.03   0
        21    742.7185   1023.1121 307.5942650  +6.2736119     1220.259     1908.864     2285.385      74.3079     132.4278     244.3519      1.722     5.03     851.5641     55.11703     153.7306        14     1.341     0.722 -15.40  24
        22    522.6470    991.1298 307.6867080  +6.2794469     3701.753     6513.825     7448.922     78.38255     156.3304     312.6919      1.967     4.52     854.2126     55.11703     443.4785        34     1.734     1.139 -22.15   0
        23    632.0438    990.3582 307.6413159  +6.2834304     1173.168     2138.022     2495.025      78.1341     156.3926     312.5364      1.883     6.82     852.2336     55.11703     151.2218        17     1.565     0.833 -25.50   0
        24     57.3669    989.5328 307.8799242  +6.2644751     731.7542     1582.562     1782.993     78.25842     156.4547     312.6919      2.373     6.57     849.8906     55.11703     106.8451        12     1.457     0.830 -44.97   0
        25    475.7040    987.5403 307.7063181  +6.2793549     1904.573     2995.055      3013.57     78.25842     156.3926     312.7852      1.755     4.45     854.2177     55.11703     263.9024        19     1.447     0.841 -37.86   0
        26    910.1907    979.6191 307.5261962  +6.2971645     36995.17     67236.87     73383.96      78.1341     156.0815     312.5364      1.948     4.38     850.2941     55.11703     3973.262        85     1.863     1.389 -36.38   0
        27    217.7572    977.9128 307.8137321  +6.2746685     1494.349     2466.402     2995.978     78.38255     156.2682      312.723      1.983     4.10     852.1508     55.11703     191.2701        18     1.272     0.917 -39.55   0
        28    616.3162    975.9073 307.6483322  +6.2888696     835.6179     1163.192     1146.958      78.1341     156.7651     312.8162      1.631     6.62     852.2282     55.11703     127.1823        12     1.412     0.871 -32.89   0
        29    808.1723    973.4560 307.5687598  +6.2963006     2068.167     3672.903     4099.591     78.00959     156.4547     312.5675      1.952     4.71     850.7575     55.11703     250.1008        24     1.419     1.117 -39.92   0
        30    756.2812    971.4241 307.5903725  +6.2954045     5908.903     10416.76     11954.27      78.1341     156.1437     312.5986      1.967     4.63     851.3234     55.11703     668.6388        48     1.882     1.285 -49.57   0
        31    542.7579    970.4810 307.6790546  +6.2886455     966.1935     1690.581     2322.874     78.38255     156.3926     312.6608      2.170     5.62     853.9687     55.11703     135.3359        13     1.365     0.801 -48.67   0
        32    225.4837    970.3076 307.8107815  +6.2780679      1218.27     1906.135     2097.392      78.1341     156.7651     312.8162      1.826     4.40      852.195     55.11703     210.5984        15     1.389     0.840 -31.74   0
        33    189.9337    969.6194 307.8255636  +6.2771567     710.3657      1360.97     1334.464     78.00959     156.3926     312.5986      1.974     4.31     851.8437     55.11703     108.0331         7     0.882     0.601 -30.86   0
        34     50.4750    968.4620 307.8834989  +6.2729416     2521.218     4452.859     4704.569      78.6302     156.3926     312.6919      1.876     4.83     849.7339     55.11703     275.8255        28     1.692     0.986 -37.95   0
        35    944.5361    966.4008 307.5123802  +6.3037683     5709.817     10232.74     10563.58     77.63484     156.1437     312.4431      1.906     4.30     848.7867     55.11703     658.1533        40     1.686     1.221 -41.61   0
        36    917.9635    957.8408 307.5237003  +6.3064151     1757.835      3242.18     1969.892      78.1341     156.3926     312.5675      1.919     4.73     849.4444     55.11703     216.4342        26     1.416     1.244 -45.39   0
        37    777.6392    954.8234 307.5820632  +6.3029722     1055.392      1723.57     1439.987     78.00959     156.1437     312.4742      1.642     5.74     851.0457     55.11703     127.7034        13     1.342     0.693 -46.04   0
        38    638.8912    953.9238 307.6396998  +6.2987012     4234.826      7141.97     7539.349     78.25842      156.641     312.6919      1.775     4.24     852.1162     55.11703      516.302        33     1.638     1.033 -37.69   0
        39    251.2020    954.0460 307.8006541  +6.2856456     3874.009     6546.574     6909.714     77.75996     156.0815     312.3186      1.797     4.41     852.6823     55.11703     480.5962        31     1.613     1.059 -35.58   0
        40    460.8916    952.4022 307.7136529  +6.2933644     856.7656     1593.825     1902.934     77.88487     156.0815      312.412      1.799     5.74     853.7748     55.11703     119.6879        12     1.592     0.583 -33.60   0
        41     19.8217    951.4543 307.8968006  +6.2789303     2030.512     3594.009     3399.092     77.88487     156.3926     312.5053      1.838     4.58     849.5388     55.11703     252.2214        26     1.585     1.025 -39.03   0
        42    870.7469    950.4594 307.5435523  +6.3078855     644.1206     1068.555     939.2717     78.38255     156.3304     312.6919      1.787     5.67     850.5148     55.11703     105.1244         6     1.242     0.730 -36.42   0
        43    287.0518    947.8779 307.7859790  +6.2893966     743.8617     1267.796     1238.137     78.38255     156.4547     312.6919      1.759     6.37       853.33     55.11703      116.838        12     1.383     1.044 -52.78   0
        44    995.2513    946.5840 307.4919885  +6.3136420     713.8578      1359.13     1666.059     77.88487     156.4547      312.412      2.185     6.24     846.3627     55.11703     94.24158        11     1.261     0.867 -54.22   0
        45    942.7272    947.2579 307.5137739  +6.3116109     644.2607     902.9022     1255.423     78.50647     156.3926     312.6608      1.634     2.92     848.2209     55.11703     96.57648         5     0.815     0.630 -39.38   0
        46    563.6888    946.4912 307.6711729  +6.2992508     1534.697     2462.659     2686.527     78.38255     156.8891     312.7852      1.813     4.92     853.2749     55.11703      218.083        17     1.316     0.886 -32.53   0
        47    602.6010    943.1149 307.6551310  +6.3019483     1153.605      1983.96     2388.049     77.63484     155.9568      312.412      1.839     5.94     852.3758     55.11703     145.8251        14     1.235     0.803 -43.63   0
        48     52.9695    943.4645 307.8833099  +6.2833451     674.9601     1142.023     1894.203      78.1341     156.4547     312.6297      2.322     5.19     849.6618     55.11703     92.52075         9     1.308     0.583 -29.52   0
        49    282.8276    940.4879 307.7879824  +6.2923055     1299.065     2245.924     2253.263     78.50647     156.1437     312.5986      1.892     4.76     853.1477     55.11703     168.6763        14     1.282     0.786 -33.27   0
        50    550.5264    938.5038 307.6769069  +6.3021072     643.7812     955.3284     300.6971     78.13411     156.5168     312.6919      1.641     5.59      853.506     55.11703      94.7077         8     1.271     0.694 -36.46   0
        51    749.8138    936.6149 307.5942284  +6.3095589     822.1937      1434.85     1497.676      78.1341     156.0815     312.6297      1.798     4.96     851.3553     55.11703     123.0906         8     1.257     0.554 -24.56   0
        52    887.2065    933.2783 307.5372955  +6.3155285     5923.595     10496.35     11220.87     78.00959     155.8945     312.4742      1.901     4.36     849.7927     55.11703     669.5137        42     1.715     1.186 -36.37   0
        53     95.7719    932.1680 307.8659227  +6.2894496     419.4332     682.2502     444.6288     77.88487     156.1437     312.5053      1.573     3.83     849.6631     55.11703     74.93225         5     0.834     0.637 -41.37   0
        54    423.0315    930.3205 307.7301166  +6.3012104     1986.653     3113.678     3041.039     78.25842     156.3926     312.6608      1.680     4.21      853.436     55.11703     285.5966        20     1.449     0.833 -36.88   0
        55    324.8133    928.6423 307.7709513  +6.2986061      8555.27     14293.81     15570.21     77.75996      156.206     312.4431      1.778     4.39     853.2582     55.11703     1061.701        42     1.675     1.115 -39.24   0
        56    244.9014    927.6794 307.8041611  +6.2963187     6329.217     10673.12     11298.09     78.25842     156.7651      312.723      1.806     4.41     852.3938     55.11703     758.7321        38     1.612     1.107 -34.97   0
        57    572.7154    922.1849 307.6682442  +6.3095878     1218.855     1890.432     2057.793     78.00959     156.1437     312.5986      1.634     5.70     852.8782     55.11703     173.2438        15     1.398     0.783 -22.32   0
        58    757.2401    921.6313 307.5916490  +6.3159931     675.6655     1127.939     1221.294     78.00959      156.206     312.5364      1.680     5.23      851.136     55.11703     104.4004         8     1.146     0.674  15.76   0
        59    902.8551    918.4975 307.5312945  +6.3221533     1039.622     1961.882     2418.709     78.25842     156.3926     312.8784      2.152     7.07     848.7749     55.11703     118.0748        17     1.548     0.906 -36.04   0
        60    206.6044    917.8521 307.8203932  +6.2990882     531.7635     796.8384     1206.036     77.75996      156.206     312.3186      1.642     5.16     851.6495     55.11703     81.86676         6     1.430     0.527 -42.73   0
        61    858.7471    916.6670 307.5496699  +6.3214357     686.4899     813.7737     418.1771     78.38255     156.3304     312.5986      1.336     4.18      850.172     55.11703     98.24792         6     0.964     0.517 -43.51   0
        62    970.5486    913.8039 307.5033452  +6.3263509     621.8322     1191.202     1617.836     77.75996     156.1437     312.2563      2.669     4.11     846.4439     55.11703     112.9983         5     1.142     0.423 -75.71   1
        63    739.2630    911.4839 307.5994544  +6.3195811     1653.161     2599.709      3247.55     78.50647     156.4547     312.6608      1.733     4.59     851.2543     55.11703     197.1467        21     1.401     0.976 -26.58   0
        64    970.1609    907.1605 307.5037292  +6.3290807     1214.801     2084.618     2854.592      78.1341     156.4547     312.5675      1.726     5.03       846.28     55.11703     179.5624        14     1.368     0.791 -50.26   0
        65    603.2302    907.8721 307.6560569  +6.3165189     751.5081     1191.345     988.5045     78.25842     156.3926     312.6608      1.597     4.47     852.1117     55.11703     107.7037         8     1.109     0.513 -33.23   0
        66    524.2226    907.4079 307.6888761  +6.3140632     1050.817     1706.281     1945.517     78.00959      156.206     312.5053      1.840     5.90     853.2402     55.11703     136.4479        13     1.392     0.703 -22.22   0
        67    657.9457    904.6957 307.6334460  +6.3196625     2173.627     3787.595     3552.405     78.25842     156.3304     312.9094      1.843     4.68     851.7493     55.11703     263.8721        23     1.480     0.981 -34.72   0
        68    818.4937    901.3666 307.5668976  +6.3264072     732.4183     1284.719     1532.198     78.50647     156.2682     312.7852      1.850     5.18      849.687     55.11703     98.23352         9     1.448     0.523 -42.79   0
        69     54.4383    900.8298 307.8841440  +6.3009952     2631.678     4468.324     4639.934     78.00959     156.1437     312.5675      1.815     4.50     849.0203     55.11703     336.8879        26     1.552     1.050 -27.11   0
        70    935.2950    900.4769 307.5184303  +6.3306762     729.6467     1016.313     1062.626      78.1341     156.5168     312.7541      1.481     4.96     847.3264     55.11703     105.6577         9     1.367     0.509 -54.49   0
        71    198.0914    899.7496 307.8245398  +6.3062752     1984.662     3321.512     3292.963     78.25842      156.206     312.8784      1.837     5.62     851.1749     55.11703     257.3611        21     1.648     0.816 -32.13   0
        72     71.9656    900.1027 307.8768919  +6.3018855     1842.754     2951.745     2777.823     78.38255     156.2682     312.8473      1.630     4.81     849.0945     55.11703     227.5291        18     1.412     0.914 -38.84   0
        73    652.5393    893.7979 307.6360577  +6.3239805       6275.5      10695.2     10822.96     77.75996     156.0815      312.412      1.813     4.41     851.6927     55.11703     750.1426        38     1.694     1.097 -35.54   0
        74    336.9796    895.9698 307.7670036  +6.3125030     880.1373     1403.262     1978.229     77.88487      156.206     312.5986      1.819     5.62     852.7759     55.11703      121.697        11     1.400     0.636 -47.78   0
        75    232.0216    896.2059 307.8105725  +6.3088790      732.423     1063.966     1162.691     78.00959     156.1437     312.5053      1.680     4.49     851.7705     55.11703     116.0179         6     1.518     0.377 -55.29   0
        76     12.3204    892.2241 307.9019215  +6.3031292     1110.677     1824.723     1556.846     78.00959     156.1437     312.6919      1.772     6.71     848.5529     55.11703     128.7766        14     1.336     0.945 -21.77   0
        77    890.2882    890.1566 307.5374643  +6.3334340     2455.319      4247.36     4334.115     78.38255     156.2682      312.723      1.829     4.36     848.3857     55.11703     284.4608        26     1.496     1.042 -34.71   0
        78     25.6780    890.5135 307.8964339  +6.3042853     971.8622      1619.04     1450.676     78.38255     156.7031     312.7852      1.765     5.66       848.62     55.11703      145.389        12     1.267     0.802 -24.18   0
        79    335.5214    886.9760 307.7679128  +6.3161670     14878.97     24850.63     26950.02     78.00959      156.206     312.6919      1.803     4.34     852.6356     55.11703     1753.359        53     1.748     1.182 -29.95   0
        80     69.8409    888.1066 307.8781802  +6.3067662     1253.756     1819.073     2088.263     78.50647     156.3304     312.7852      1.636     4.81      848.864     55.11703     178.1993        17     1.247     0.978 -37.14   0
        81    206.3736    886.1899 307.8215598  +6.3121515     1130.884     1719.384     1892.346     78.00959      156.206     312.5675      1.647     5.45      851.085     55.11703      155.696        14     1.380     0.724 -40.32   0
        82    413.1336    877.9139 307.7359947  +6.3225136     959.1881     1433.419     1300.804     78.38255     156.5789      312.723      1.703     4.86      852.838     55.11703     153.2778        11     1.200     0.691 -36.97   0
        83     98.8155    877.4736 307.8665107  +6.3121312     1568.629     2437.561     2358.772     77.88487     156.1437     312.5986      1.617     5.33     848.9406     55.11703     210.7212        17     1.491     0.759 -29.68   0
        84    666.7197    874.0758 307.6308338  +6.3325973     808.9141     1436.281     1780.518      78.6302      156.641     312.8162      2.388     5.66     851.5375     55.11703     115.0941        10     1.226     0.737 -39.68   0
        85    493.6058    875.0120 307.7026805  +6.3264110     629.7731     1027.976     1072.534     78.00959      156.206     312.5986      1.794     4.86     852.8182     55.11703     103.7984         7     1.202     0.556 -32.65   0
        86    851.2950    871.4518 307.5542834  +6.3398535     1984.749     3391.698     3657.129     78.25842     156.3304     312.9405      1.826     4.20     848.3209     55.11703     246.6963        23     1.487     1.011 -35.90   0
        87    814.6639    870.8282 307.5695144  +6.3388868      2803.19     4671.722      4921.14     78.00959     156.3926     312.6297      1.824     4.46     848.5648     55.11703     322.8746        23     1.457     0.957 -34.47   0
        88    880.7612    871.7762 307.5420376  +6.3407040     1833.803     2841.652     2522.041     78.00959     156.1437     312.5053      1.699     4.90     847.9833     55.11703     213.9592        19     1.447     0.886 -22.14   0
        89     82.3202    871.0020 307.8735784  +6.3142476     2205.408     3821.028     4227.931     77.75996     155.8945     312.4742      1.862     5.15      848.674     55.11703     278.1165        22     1.582     0.888 -36.00   0
        90    330.2933    869.2498 307.7706822  +6.3233093     687.4202     1118.213     1402.146     78.25842     156.2682     312.8473      1.911     5.01       852.41     55.11703     90.36212         9     1.341     0.529 -37.49   0
        91    550.5958    862.1749 307.6794507  +6.3336211     308883.3     509524.2     543168.9     77.88487     156.1437     312.5364      1.778     4.37     852.4111     55.11703     38227.12       183     1.855     1.377 -34.41   0
        92    394.8405    864.7120 307.7440356  +6.3273498     7224.422        11821     12167.07     78.38255     156.3304      312.723      1.762     4.42     852.5117     55.11703     825.8883        35     1.636     1.008 -34.41   0
        93    638.5583    864.8813 307.6428364  +6.3354504     1089.991     1733.925     1812.838     78.38255     156.3926     312.6297      1.682     5.82     851.4872     55.11703     136.9894        13     1.424     0.765 -27.01   0
        94    338.0692    863.1003 307.7676614  +6.3261092     11596.46     19298.88     20394.65     78.38255     156.5168     312.6919      1.772     4.41     852.2167     55.11703     1398.162        46     1.633     1.141 -33.90   0
        95    656.3444    859.5728 307.6356301  +6.3382375     3159.405     5171.112     5435.809     78.00959     156.4547     312.5364      1.755     4.38     851.3053     55.11703      417.986        29     1.594     1.020 -40.72   0
        96    888.7783    858.3829 307.5391586  +6.3465012      4481.04     7988.969     9012.702      78.1341      156.206     312.6297      1.940     4.40     847.4691     55.11703     532.3748        39     1.859     1.151 -22.86   0
        97    728.0771    856.7535 307.6059402  +6.3418020     829.6115     1294.097     1317.258     78.25842     156.4547     312.6919      1.882     4.45     850.5917     55.11703     102.7136         8     1.095     0.515 -51.91   0
        98    819.6325    852.5948 307.5680642  +6.3465804     1564.917     2704.026      2854.29     77.75996     156.2682     312.5053      1.785     5.20     848.1874     55.11703     184.3998        20     1.534     0.908 -44.75   0
        99    631.1669    853.4460 307.6462905  +6.3399238     3101.856     5174.911     5411.192      78.1341     156.3926     312.6297      1.743     4.63     851.0762     55.11703     378.9004        26     1.562     0.923 -33.25   0
       100   1022.0583    852.5590 307.4840124  +6.3533543     4046.251     6950.281      7594.48     78.38255     145.1745     259.9655      1.877     4.49     842.7411     55.11703     459.6656        34     1.558     1.220 -44.91  24
       101    621.5196    852.2319 307.6503372  +6.3401020     1000.524     1913.497     2429.864     78.25842     156.3304     312.6608      2.183     5.36     851.0519     55.11703     133.7193         9     1.556     0.521 -26.49   3
       102    624.3513    847.9395 307.6493059  +6.3419689     2055.842     3792.903     4400.956     78.38255     156.3304     312.7541      2.038     7.95      850.915     55.11703     261.4591        22     1.807     1.024 -48.18   2
       103    946.9252    851.4088 307.5152486  +6.3513220      731.761      1201.09     1520.446     78.00959     156.0192     312.5364      1.813     4.93     845.8321     55.11703     119.4714         9     1.455     0.473 -41.71   0
       104    907.7729    846.2359 307.5316796  +6.3521504     2746.656       4834.7     5255.294     77.88487     156.0815     312.5053      1.882     4.47     846.8304     55.11703     359.1963        29     1.596     1.121 -34.48   0
       105    318.2558    846.9818 307.7764324  +6.3320980     974.7803      1588.56     1820.416     77.88487     156.3304     312.4742      1.746     4.04     852.0631     55.11703     151.3895         9     0.944     0.661 -29.32   0
       106    366.0377    841.9847 307.7567619  +6.3357655     2395.239     4113.015     4268.767      78.1341      156.206     312.4431      1.878     4.83     851.6855     55.11703     310.5538        23     1.571     0.907 -33.80   0
       107    333.5579    834.1695 307.7705118  +6.3379013     536.1409     850.4804     777.3247     78.00959     156.3304     312.5364      1.462     3.61     851.6122     55.11703     81.28369         5     1.025     0.367   4.71   0
       108    502.3193    831.7863 307.7005203  +6.3445484     2691.393     4132.687      4111.91     78.00959     156.1437     312.5053      1.698     4.63     851.1114     55.11703     319.5479        23     1.551     0.872 -35.26   0
       109    847.1600    830.7461 307.5573684  +6.3565205     940.1824     1299.659     1486.393     78.25842     156.3926     312.6919      1.535     5.32      847.674     55.11703     124.8699        13     1.281     0.813   7.77   0
       110    567.4175    829.6151 307.6735634  +6.3476267     722.8464     1218.481     1034.277      78.1341     156.0815     312.6297      1.663     5.71     850.5856     55.11703     104.6168        11     1.595     0.576 -32.35   0
       111    548.9435    827.9299 307.6812910  +6.3477034     5589.069     9325.365     9575.095     78.50647     156.3304     312.6608      1.787     4.45     850.5748     55.11703     694.6207        36     1.661     1.038 -33.63   0
       112    556.0849    827.3553 307.6783451  +6.3481799     1180.425     1893.055     1743.516     78.38255     156.3304     312.6919      1.715     4.86     850.4891     55.11703     189.1293        16     1.460     0.743 -35.51   1
       113    466.8941    826.7983 307.7153977  +6.3454196     1468.772     2190.417     1875.387     77.88487     156.0815     312.3497      1.618     4.71     851.1377     55.11703     209.4988        17     1.404     0.789 -33.34   0
       114    884.7477    825.8950 307.5419237  +6.3597791     1218.506     2104.694     2123.155     78.25842     156.3304     312.9405      1.787     5.46     846.8851     55.11703     139.9156        19     1.466     0.940 -51.89   0
       115    108.5512    825.9064 307.8642144  +6.3337472     1319.283     2326.931      2229.68     78.25842     156.2682     312.8162      1.970     4.81     848.1675     55.11703     169.1181        16     1.386     0.814 -38.09   0
       116    519.7028    821.8159 307.6936385  +6.3492473        18092     29586.79     31419.65     78.25842     156.1437     312.5364      1.765     4.18     850.4752     55.11703     2158.652        55     1.716     1.160 -33.08   0
       117    684.8285    824.4632 307.6249849  +6.3536856     612.9536     1081.236     1213.955     78.00959     156.3926     312.6297      1.627     4.14     849.8143     55.11703     97.37146         7     1.243     0.393 -15.08   0
       118    361.1642    823.3779 307.7594138  +6.3432834     682.0048      1122.88     811.3986     77.88487     156.1437     312.4742      1.624     5.50     851.2312     55.11703     90.09235         9     1.340     0.637 -35.90   0
       119    933.2726    820.3129 307.5219617  +6.3637041     3345.014     5698.565     6328.406     78.50647      156.641     312.6919      1.847     4.47     845.4495     55.11703      400.248        28     1.649     0.981 -40.88   0
       120    166.2597    821.5723 307.8404006  +6.3374783     537.3439     611.2947     616.3239     78.00959     156.4547     312.5986      1.437     3.42     849.1942     55.11703     81.82538         5     0.778     0.435 -21.40   0
       121     30.1809    812.4649 307.8972086  +6.3366572     1264.587     2227.556     2288.779     78.00959     156.3926     312.5364      1.759     4.97     847.0071     55.11703     178.1928        15     1.442     0.758 -34.98   0
       122    312.3760    810.5821 307.7801036  +6.3469274     3106.197     5059.848     5341.965     78.00959     156.2682     312.6297      1.777     4.62     851.2556     55.11703      389.636        24     1.487     0.953 -39.00   0
       123    777.8697    806.4430 307.5869573  +6.3642377     50134.54     83081.52     88119.37     78.25842     156.3926     312.7541      1.796     4.31     848.2309     55.11703     6088.719        78     1.755     1.205 -33.91   0
       124     12.3351    808.6758 307.9047465  +6.3376202     1986.557     3251.146     3450.944     78.50647     156.3926     312.6608      1.758     4.30     846.7737     55.11703     243.7091        19     1.428     0.829 -30.46   0
       125    234.6959    782.7875 307.8132971  +6.3557913       764426      1882226      2131291      78.1341     156.1437     312.4742      2.408     7.82     850.0938     55.11703     63573.65       608     2.686     2.257 -64.63   4
       126    903.1666    801.7314 307.5350871  +6.3703701     7716.324     13110.67     14131.61     78.25842     156.3926      312.723      1.815     4.48     845.8167     55.11703     913.7924        42     1.716     1.124 -30.10   0
       127    706.1628    800.9978 307.6169160  +6.3640871     19419.64     33253.77      36860.2     77.50952      156.206     312.5053      1.829     4.33     848.7434     55.11703     2390.921        58     1.787     1.176 -27.85   3
       128    699.8318    797.5220 307.6196619  +6.3653102      81242.7     133054.8     142023.8     78.25842     156.3926     312.6608      1.776     4.39     848.6992     55.11703     9947.967        90     1.781     1.214 -34.28   3
       129    344.6984    798.3982 307.7670944  +6.3530430     19036.81     31501.41     33434.68     77.88487     156.1437     312.3809      1.781     4.30     850.6697     55.11703     2345.345        52     1.701     1.125 -36.20   0
       130    393.9390    798.7556 307.7466365  +6.3545487     1214.463       1884.9      1737.71     78.25842     156.3926     312.8162      1.700     5.13      850.606     55.11703     154.4961        16     1.346     0.909 -35.36   0
       131    406.6217    796.1947 307.7414569  +6.3560316     20113.38      33609.5     35886.19     78.00959     156.1437     312.5053      1.800     4.42     850.4627     55.11703     2480.395        54     1.709     1.165 -32.45   0
       132    633.5773    797.6969 307.6471673  +6.3630200     848.0892     1347.164     1219.896     78.38255     156.1437     312.5053      1.723     6.16     849.1656     55.11703     100.3899        11     1.278     0.834 -55.30   0
       133    943.7571    795.1792 307.5184521  +6.3744305     1919.164     3206.309     3498.515     77.88487     156.2682     312.5364      1.811     4.62     844.6049     55.11703     249.4005        22     1.488     0.921 -29.65   0
       134    872.3060    794.7427 307.5481366  +6.3722245     669.5997     1196.587     892.5378     78.25842     156.3926     312.8473      1.803     4.90     846.6404     55.11703     98.15967         7     1.353     0.503 -64.89   0
       135    900.1174    793.1205 307.5366426  +6.3738232     6016.555     10282.13     11359.94     78.50647      156.641     312.8162      1.857     4.31     845.7676     55.11703     718.4321        38     1.644     1.101 -33.83   0
       136    640.5521    792.2147 307.6444558  +6.3655169     5946.253     9818.088     10234.31     77.75996     156.3304      312.412      1.780     4.32     848.9066     55.11703     733.0557        35     1.628     1.025 -36.97   0
       137    429.2040    790.2021 307.7322823  +6.3592633     1683.621     2773.289     2580.043     77.75996     155.9568     312.4431      1.768     4.47     850.0857     55.11703     222.9935        20     1.400     0.978 -34.93   0
       138    154.2266    789.2199 307.8464916  +6.3504294     699.9256     1290.557     1245.593     77.88487     156.1437     312.5675      1.710     7.54     848.2706     55.11703     108.0883        12     1.822     0.874 -27.93   0
       139    602.2001    785.1562 307.6606187  +6.3671464     4223.823     4578.346      4761.89     77.63484     156.0192     312.3186      0.817     2.00     848.7485     55.11703     1796.274        10     0.980     0.448 -61.16   0
       140    593.8164    784.1707 307.6641332  +6.3672724     908.3232     1472.969     1259.232     78.00959     156.1437     312.6297      1.630     5.74     848.6773     55.11703     113.3078        12     1.311     0.708 -34.87   0
       141    868.3608    783.8979 307.5501393  +6.3765699     643.1664      996.999     845.0471     78.38255     156.2682     312.9094      1.788     4.86     846.4522     55.11703     105.2357         6     1.255     0.534 -62.02   0
       142    409.4987    778.8768 307.7408469  +6.3632776     49526.79     81489.19     86881.49     78.00959     156.5789     312.6919      1.795     4.20     849.7565     55.11703     6078.766        81     1.774     1.216 -34.45   0
       143    119.4634    782.9017 307.8611395  +6.3518679     1043.434     1710.054     1456.389     78.25842     156.4547      312.723      1.752     5.70     847.5875     55.11703     130.6057        16     1.379     0.916 -35.85   0
       144    675.8241    782.2161 307.6301461  +6.3708256     2172.406     3752.935     3699.829      78.1341     156.2682     312.6297      1.815     5.20     848.3837     55.11703     259.3565        23     1.676     0.820 -29.95   0
       145    144.5605    782.9308 307.8507179  +6.3527005     857.6384     1449.761     1372.931     78.25842     156.3926     312.7852      1.935     6.13     847.9719     55.11703     105.1462        13     1.372     0.770 -23.92   0
       146    527.2886    777.9209 307.6919687  +6.3676232     6615.773     11077.09     11450.16      78.1341      156.641     312.8162      1.769     4.40     848.5435     55.11703      782.314        36     1.603     1.076 -23.98   0
       147    444.0577    776.5695 307.7265747  +6.3653897     3979.222     6876.245     7273.243      78.1341     156.3926     312.5986      1.849     4.78     849.4692     55.11703     481.2523        30     1.596     1.000 -32.61   0
       148    772.4654    774.6009 307.5902724  +6.3772028        10560     17557.64     18494.84     77.63484     156.0815     312.4431      1.793     4.31     847.3044     55.11703     1333.126        45     1.661     1.117 -33.32   0
       149      2.2846    770.7212 307.9102058  +6.3529501     965.5328      1530.51     1350.069     77.63484     137.6823     250.4425      1.618     5.49     845.1509     55.11703     151.0976        11     1.290     0.824 -23.66  24
       150    793.9471    768.7457 307.5815490  +6.3803384     1193.251     2059.394     1841.635      78.6302     156.3304     312.6608      1.817     6.30     846.9488     55.11703     170.3812        17     1.644     0.891 -64.66   0
       151    440.7473    769.8439 307.7281763  +6.3680552     1948.925     3366.822     3380.115     78.38255     156.3926     312.6919      1.845     4.77     849.2334     55.11703     244.4017        23     1.592     0.941 -41.86   0
       152    138.2994    766.8303 307.8538626  +6.3591366     2778.994     4479.688     4241.237     78.38255     156.1437     312.7541      1.742     4.43      847.504     55.11703     327.3816        23     1.497     0.939 -36.91   0
       153    130.2324    766.4526 307.8572249  +6.3590210     10517.08     17543.31     19056.71     78.25842     156.3926     312.5986      1.817     4.35      847.404     55.11703      1251.01        45     1.646     1.153 -31.43   1
       154    421.3329    805.0276 307.7350502  +6.3528787     748.7332     1233.061     1326.066     78.00959     156.3304     312.5986      1.877     5.61     850.7407     55.11703     122.1161        11     1.238     0.716 -32.83   0
       155    918.0221    763.2300 307.5302116  +6.3867613     5652.828     9845.971     10787.79     77.88487      156.206     312.5364      1.851     4.44      845.003     55.11703     717.2928        37     1.662     1.093 -29.48   0
       156    122.4274    763.8714 307.8605531  +6.3598239     2684.541     4780.507     5776.704      78.1341     156.3304     312.6297      1.939     4.56     847.2908     55.11703     349.2661        26     1.602     0.990 -32.73   3
       157    122.6423    757.4624 307.8606808  +6.3624769      1818.74     3141.419     2969.474     78.38255     156.3304     312.7852      1.761     4.58     847.1722     55.11703     240.6675        22     1.604     0.902 -34.70   2
       158    967.1368    763.3524 307.5098121  +6.3883505     1415.752     2397.929     2808.857     78.25842     156.2682      312.723      1.980     5.24     843.9171     55.11703     194.3114        17     1.472     0.792 -31.93   0
       159    673.3997    760.7407 307.6318759  +6.3796104     1547.332     2489.836     3313.817     77.63484     156.0815     312.3809      1.870     4.54     847.6901     55.11703     206.3747        16     1.303     0.794 -43.24   0
       160    560.4431    759.8764 307.6788099  +6.3761839     2215.632     3603.324     3828.091     78.25842     156.3926      312.723      1.750     4.89     847.6849     55.11703     309.8801        24     1.503     0.989 -36.84   0
       161    408.1509    759.6560 307.7420554  +6.3711673      1080.28     1663.112     1267.692     78.38255     156.3926     312.7541      1.541     5.05     848.9708     55.11703     130.3495        10     1.130     0.639 -44.69   0
       162    912.2239    755.1337 307.5328913  +6.3899102     2741.825     4618.582     4787.677     78.00959     156.3926     312.6297      1.791     4.63     845.0236     55.11703     316.9009        25     1.602     0.947 -40.83   0
       163    941.6808    754.6189 307.5206762  +6.3911064     2847.406      4718.41     4691.259     78.00959     156.0815     312.6297      1.783     4.28     844.4719     55.11703      326.588        27     1.517     1.014 -35.51   0
       164    664.4400    754.5351 307.6358054  +6.3818724     1275.383     2098.172     2573.567     78.38255     156.3304     312.8162      1.766     6.11     847.4973     55.11703     169.9136        14     1.286     0.853 -50.96   0
       165    972.4995    754.4686 307.5078835  +6.3921972     1855.402     2969.104     2930.103     78.38255     156.5168     312.6608      1.775     4.12     843.7407     55.11703     229.2202        18     1.237     0.965 -36.33   0
       166    811.7316    752.5453 307.5747087  +6.3876212     936.6752     1359.698     1364.724     78.38255     156.3304     312.6608      1.728     4.81     846.2358     55.11703     134.2396         9     1.116     0.588 -35.64   0
       167    887.4118    750.4024 307.5433538  +6.3910348     781.9655     1302.216     1639.898     78.00959     156.0815     312.5053      2.024     5.37      845.271     55.11703     127.2634        10     1.276     0.793 -30.51   0
       168    237.1276    749.3959 307.8134166  +6.3696581     1648.326      3058.88     4028.122     78.00959     155.9568     312.5364      2.095     4.63     848.2628     55.11703     211.3839        22     1.502     1.057 -35.93   0
       169    930.2999    744.6566 307.5257369  +6.3948393     1048.959     1759.667     1599.668      78.1341     156.3926     312.9094      1.828     4.98     844.7262     55.11703     146.5569        12     1.251     0.760 -35.86   0
       170    956.5323    742.4990 307.5149159  +6.3966058     2218.444     3664.535     3817.656     78.38255     156.5168     312.6608      1.809     4.66     844.0389     55.11703     285.1456        22     1.597     0.840 -44.19   0
       171    903.7639    743.9191 307.5367812  +6.3942576     900.7098     1462.678     1812.475     78.25842     156.4547     312.6919      2.009     5.34     844.9863     55.11703     126.6237        11     1.204     0.723 -33.27   0
       172    152.2345    744.5574 307.8488303  +6.3688003     625.6148     973.3823     842.0271      78.1341     156.3926     312.5364      1.540     3.36     847.0496     55.11703     105.2318         5     0.795     0.412 -24.12   0
       173    676.1368    742.1193 307.6313663  +6.3873897     941.6453     1827.829     2466.475     78.50647     156.4547     312.6919      2.515     5.62     847.0071     55.11703     130.4833        13     1.283     0.755 -27.91   0
       174    998.3499    735.8550 307.4977734  +6.4007443     1588.413     2339.138     2093.009     78.38255     156.3926      312.723      1.619     4.79     842.9653     55.11703       194.96        20     1.496     0.838 -36.95   0
       175    623.7737    735.6512 307.6533282  +6.3883067     516.5573     959.2006     1377.709     78.00959     156.5168     312.5986      1.139     3.39     846.8433     55.11703     100.3821         5     1.141     0.292 -55.05   0
       176    799.8032    734.1932 307.5802793  +6.3947990     1165.396     1786.735     2038.235     77.75996     156.0815     312.5675      1.697     5.44     845.7911     55.11703     168.2976        11     1.262     0.661 -39.68   0
       177    885.7844    731.6749 307.5446588  +6.3987121     1258.063      2322.71      3070.31     77.88487     156.1437     312.5675      1.927     5.92       844.96     55.11703     161.9128        15     1.303     0.991   4.51   0
       178    860.2772    726.8143 307.5554145  +6.3998666     905.5294     1397.651     1879.597     78.00959     156.0815     312.5364      1.924     6.33     845.1335     55.11703     118.1179        13     1.308     0.860 -42.69   0
       179    842.6982    723.1325 307.5628383  +6.4007992      1292.44     2152.511     2174.052     78.38255     156.5168      312.723      1.709     5.00     845.2569     55.11703     168.7922        17     1.464     0.876 -26.58   0
       180     42.2008    721.6588 307.8952946  +6.3745490     2102.309     3464.755     3865.826     77.63484     156.0815     312.3809      1.760     5.42     844.8619     55.11703     260.4276        24     1.689     0.894 -31.15   0
       181    105.7453    720.6793 307.8689423  +6.3770932     731.3229     1880.662     1807.193     78.50647     156.3926      312.723      2.383     8.01      846.247     55.11703     101.4893        11     1.504     1.193  61.81   0
       182    560.0829    716.4178 307.6804245  +6.3941132     504.2756     596.7558     261.7108     78.00959     156.0815     312.6297      1.419     3.95     846.4875     55.11703     75.97705         5     0.906     0.493  -1.31   0
       183    654.6467    710.4622 307.6413563  +6.3997396     5848.707     9304.503     9853.117     78.25842     156.2682     312.7541      1.739     4.22     846.1494     55.11703     781.1621        33     1.583     1.014 -32.19   0
       184    600.9052    709.9430 307.6636908  +6.3981541     1226.083     2198.055     2283.151     78.25842     156.3926     312.8784      1.774     5.40     846.3799     55.11703     178.4267        17     1.521     0.855 -26.43   0
       185    512.0009    710.4393 307.7005925  +6.3949696     670.5928      975.282     1128.868     77.50952     156.1437      312.412      1.485     5.68     846.9242     55.11703      93.7229         8     1.374     0.662 -37.02   0
       186    117.5754    706.2222 307.8645195  +6.3834596     3405.408     5320.464     5846.505     77.88487      156.206     312.6608      1.725     4.24     845.7311     55.11703     421.4228        25     1.439     0.947 -36.97   0
       187    991.6810    705.5712 307.5015593  +6.4130244     2244.063     3864.674     3875.982     78.25842      156.206     312.6608      1.859     4.59     842.9481     55.11703     270.1777        25     1.538     1.014 -37.49   0
       188    628.2028    706.2045 307.6524810  +6.4006118      1849.94     3201.217     3203.638     77.75996     155.9568     312.5364      1.810     4.73     846.1989     55.11703     274.8767        23     1.659     0.865 -27.69   0
       189    239.5397    705.7578 307.8138907  +6.3877543     726.8471      1374.68     1617.453     78.38255     156.3926     312.7852      2.230     6.55     846.1694     55.11703     99.15039        12     1.584     0.760 -23.14   0
       190    771.4750    702.5829 307.5931063  +6.4069019     18466.58     30084.37     31974.66     77.88487     156.1437     312.5675      1.784     4.30     845.4477     55.11703     2300.886        53     1.668     1.155 -36.58   0
       191    901.5345    702.2516 307.5391068  +6.4113854     3385.727     5673.242     5520.642     78.38255     156.3304     312.6919      1.781     4.43     844.4368     55.11703     445.4147        28     1.551     0.976 -29.47   0
       192    470.5734    702.7394 307.7180554  +6.3967590     1195.779     1861.177      1686.73     78.00959     156.3926     312.5675      1.732     5.12      847.301     55.11703     161.6356        13     1.373     0.867 -39.72   0
       193    498.7858    702.4041 307.7063513  +6.3978437     728.3735     937.4457     444.7292     78.00959     156.0815     312.5675      1.658     5.95     846.9741     55.11703     89.12885        10     1.240     0.803 -26.23   0
       194    272.0732    702.9750 307.8004754  +6.3899967     433.5922      822.159       722.72     78.00959     156.2682     312.6297      1.245     3.58     846.1661     55.11703     88.52118         5     1.458     0.253 -22.41   0
       195    542.6760    701.1255 307.6881685  +6.3998430     580.3606     822.5687     625.7684      78.6302      156.641     312.7852      1.575     6.03     846.2505     55.11703     69.55194         7     1.302     0.786 -51.09   0
       196    652.0575    695.3651 307.6429400  +6.4058856     6307.564     10667.58     11612.49     78.25842     156.3926      312.723      1.833     4.49     845.7758     55.11703     758.7194        37     1.641     1.070 -31.02   0
       197    244.9888    696.1793 307.8119519  +6.3918918     5562.571     9245.469     9524.688     78.00959     156.0815     312.5675      1.746     4.48     845.7286     55.11703     679.7952        35     1.617     1.042 -33.73   0
       198    634.6422    696.6771 307.6501279  +6.4047608     948.4543     1517.756     1765.319     78.25842     156.3926      312.723      1.871     5.50     845.9539     55.11703      122.447        11     1.281     0.666 -32.45   0
       199    346.9441    695.1880 307.7696483  +6.3957270     647.7482     926.9283      343.732     77.75996     156.3304     312.3809      1.573     3.99     847.1198     55.11703     96.69604         6     0.944     0.482 -36.41   0
       200    911.8500    688.0106 307.5353014  +6.4176093     1084.572     1825.385     1723.365     77.75996     156.2682     312.3809      1.766     6.39     844.0942     55.11703     140.5786        16     1.413     0.863 -20.61   0
       201    723.8783    683.8023 307.6135040  +6.4130632     3220.533     5570.902     6070.154     77.75996     155.8945     312.4742      1.890     4.54     845.1838     55.11703     430.1101        32     1.732     1.075 -32.66   0
       202    678.7656    684.3693 307.6322192  +6.4113193     1012.023     1497.268     1508.382     77.88487     156.1437     312.4431      1.680     5.41     845.2724     55.11703     149.0604        15     1.379     0.764 -31.91   0
       203    928.4360    680.9075 307.5286521  +6.4210957     2220.864     3358.461     3189.758     78.50647     156.2682      312.723      1.639     4.94     843.7194     55.11703     264.9533        21     1.581     0.836 -38.54   0
       204    990.0505    680.4065 307.5030812  +6.4233592     7920.642     13390.82     14214.95     77.88487     156.1437     312.3186      1.802     4.48     842.8301     55.11703     973.9349        40     1.669     1.077 -31.22   0
       205      9.1158    679.8740 307.9104486  +6.3906840     1741.433     3165.389     4134.784     78.50647     156.7031     312.7541      2.171     4.79     844.5417     55.11703     210.2494        25     1.513     1.127 -15.40  16
       206    543.1976    678.2460 307.6887233  +6.4093060     429.0864     716.5964     901.2312     77.75996     156.0815     312.3186      1.598     5.26     845.8356     55.11703     74.91577         7     1.284     0.609 -31.42   0
       207    528.5991    676.1380 307.6948567  +6.4096869     1743.343     3150.478     3260.871     77.63484      156.206     312.3809      1.884     4.51     846.0031     55.11703     234.9987        21     1.439     1.043 -38.37   0
       208     67.3694    675.1085 307.8864208  +6.3946137     23402.81     39235.96     41812.23     78.50647      156.206     312.6608      1.800     4.25     844.6658     55.11703     2816.191        63     1.753     1.193 -31.86   0
       209    497.6317    673.1884 307.7078161  +6.4098663     1185.752     1936.275     1751.037     77.88487     156.1437     312.5675      1.687     5.96      846.392     55.11703     165.5273        14     1.401     0.713 -26.59   0
       210    918.4434    672.3383 307.5330897  +6.4242997     989.6528     1667.896     1744.536     78.38255     156.3304     312.8162      1.786     5.30      843.736     55.11703     146.4985        16     1.615     0.835 -29.87   0
       211    537.5317    669.9075 307.6913574  +6.4125586     902.1718     1494.732       1423.6     78.25842     156.5168     312.6919      1.617     4.50      845.737     55.11703     125.5479         9     1.094     0.578 -26.36   0
       212    713.3638    667.5329 307.6184181  +6.4194280     3183.998     5206.092     5857.934     78.25842     156.3926     312.7541      1.774     4.41     844.8607     55.11703     398.9265        27     1.536     0.928 -35.48   0
       213    735.4066    665.7148 307.6093253  +6.4209162     3748.089     6118.047     6542.071     78.00959     156.0815     312.4742      1.757     4.41      844.821     55.11703     466.3587        26     1.518     0.947 -23.28   0
       214    566.9404    663.5392 307.6793594  +6.4161733     2932.554     5042.982     5228.424     78.38255     156.3926      312.723      1.780     4.28     845.4805     55.11703     401.8727        27     1.580     0.926 -34.20   0
       215    402.8320    664.2053 307.7474867  +6.4103942     1198.437     2132.389     2553.348     77.75996     156.2682     312.4742      1.995     5.76     846.4368     55.11703     173.3029        16     1.402     0.883 -30.95   0
       216   1008.3114    661.8972 307.4961188  +6.4316101      4342.79      7242.48     7743.636     78.38255     156.8271      312.723      1.761     4.49      842.099     55.11703     488.2625        29     1.547     1.049 -38.59   0
       217    227.7684    663.0587 307.8202229  +6.4049860     1480.446     2539.796     2717.672      78.1341     156.4547     312.6297      1.886     5.39     844.3718     55.11703     204.0898        17     1.504     0.889 -31.09   0
       218    973.7435    660.7760 307.5105123  +6.4309194      7433.14     12273.13     12764.33     78.00959     156.3926     312.5053      1.772     4.17     842.5952     55.11703     873.4003        39     1.592     1.129 -29.11   0
       219    311.1245    662.6239 307.7856231  +6.4079672     1391.796     2159.588     1970.706     78.00959     156.2682     312.6297      1.717     4.49     845.3121     55.11703     187.0238        14     1.271     0.771 -47.77   0
       220   1023.1413    659.5739 307.4900380  +6.4330640      742.503     954.7836     663.3519     74.04579     131.9866     243.5549      1.332     4.68     841.7734     55.11703     121.2895         7     1.216     0.510 -36.81  24
       221    693.5000    659.0973 307.6269512  +6.4222458     990.8615     1470.841     1697.461     78.38255     156.8891     312.5364      1.637     4.69     844.7212     55.11703     163.8059        11     1.295     0.769 -37.22   0
       222    132.1820    654.0350 307.8602211  +6.4054955      21550.8     36410.82     38867.47     77.88487      156.206     312.4742      1.792     4.33     844.3091     55.11703     2663.864        56     1.755     1.135 -35.21   0
       223     85.3900    656.9985 307.8795513  +6.4026968     765.4932     1369.701     1091.171     77.88487     156.0815     312.4742      1.813     5.68     844.4412     55.11703     96.51788         9     1.240     0.732 -50.69   0
       224    800.4486    654.9158 307.5826774  +6.4275498      1169.69     2002.347     2306.445     78.38255     156.3926      312.723      1.812     5.57     844.5669     55.11703     147.5049        13     1.212     0.767 -40.89   0
       225    418.8978    654.9943 307.7411260  +6.4147361     2662.637     4687.752     5065.546      78.1341     156.0815     312.4742      1.874     4.56     846.0679     55.11703     334.1495        25     1.547     0.989 -29.61   0
       226    351.2590    649.2499 307.7694085  +6.4148367     646.6893     1012.555     1022.576     78.38255     156.3926      312.723      1.527     4.03     845.5511     55.11703     104.5112         7     1.320     0.352 -46.45   0
       227    968.6133    643.7880 307.5132133  +6.4377616     6088.911     10956.85     12357.01     78.25842     156.0815     312.6297      2.010     4.16     842.1382     55.11703     717.3616        42     1.625     1.316 -17.32   0
       228     13.2471    642.8834 307.9099869  +6.4060937      1245.31     1906.252     1933.082     78.38255     156.3926     312.6919      1.738     4.94     844.7521     55.11703     154.6835        17     1.372     0.879 -38.74   0
       229   1022.9387    639.1577 307.4908073  +6.4414860     68293.48     90650.01     93667.31      76.1174     134.8285     247.0817      1.436     3.77     840.8063     55.11703     9544.882        61     1.503     1.019 -76.30  24
       230    562.1671    638.9403 307.6821709  +6.4261688     43608.57     72191.45     76803.21     78.25842     156.4547     312.6297      1.771     4.30     844.8326     55.11703     5302.453        78     1.757     1.213 -32.73   0
       231    926.6163    640.7429 307.5307569  +6.4376167     582.7387     738.4396      878.579     77.75996     156.3304     312.4431      1.309     3.41      842.925     55.11703     83.96643         5     0.737     0.455  72.85   0
       232    204.9752    640.4031 307.8304544  +6.4135724     643.4294     1075.213     2052.662     78.00959     156.0815     312.5053      2.014     4.34     844.0218     55.11703      101.915         7     1.100     0.487 -47.87   0
       233    169.5829    635.5760 307.8453149  +6.4143745     2551.497     4370.486     4688.755     78.13411     156.2682     312.6297      1.842     4.29     844.0278     55.11703     315.5273        29     1.597     1.081 -28.72   0
       234    492.4082    635.7347 307.7112488  +6.4251534      588.944     942.1816     1084.303     77.88487     156.1437     312.5675      1.772     3.54     845.1104     55.11703     93.98987         5     0.795     0.454 -73.31   0
       235     62.3025    629.6447 307.8900651  +6.4132116     1225.454      2025.68     2595.406     78.38255     156.3304     312.8784      1.945     4.21     844.3406     55.11703     189.3029        14     1.375     0.836 -36.97   0
       236    459.4099    622.6918 307.7253926  +6.4294311     56393.88     92902.41     99126.44      78.1341     156.0192     312.4431      1.790     4.34     844.6808     55.11703     6776.928        83     1.774     1.222 -32.27   0
       237    645.1180    619.7645 307.6483684  +6.4368642     735.3498     1211.756     989.8428     78.38255     156.3926     312.6608      1.673     5.54     844.1469     55.11703     99.90143         9     1.277     0.679 -48.43   0
       238    133.7404    617.6385 307.8608063  +6.4205734     1646.305     2528.587     2217.463     78.38255     156.4547      312.723      1.688     5.47     843.8257     55.11703     226.2924        16     1.372     0.811 -34.63   0
       239    413.2452    615.2792 307.7448143  +6.4309421     838.2563     1286.903     771.4503     78.38255     156.3926     312.6919      1.715     5.61     844.3345     55.11703     132.1357        11     1.537     0.577 -31.72   0
       240    605.1638    614.2876 307.6651458  +6.4377871     800.4717     1272.544     1330.439     78.38255     156.2682     312.6919      1.571     5.21     844.0621     55.11703     118.5353         9     1.213     0.633 -41.77   0
       241    304.9903    612.1341 307.7898770  +6.4286049     1948.194     3589.335     3645.022     77.88487     156.2682     312.5986      1.870     5.00     843.5922     55.11703     233.4066        24     1.593     1.030 -27.39   0
       242      5.9241    613.8264 307.9140128  +6.4178423     675.4194     1346.149     1592.172      78.1341     156.3304     295.8547      2.458     4.98     844.9611     55.11703     90.92072         7     1.258     0.558 -14.77  16
       243      2.9256    624.3810 307.9149001  +6.4133841      1501.58     2426.797     2639.415     78.00959     144.9064     259.6662      1.745     4.40     844.9374     55.11703      189.734        17     1.321     0.858 -28.37  24
       244    731.4120    606.2880 307.6129843  +6.4453165     5004.511     8024.826     8328.452     78.00959     156.0815     312.5675      1.743     4.46     843.8004     55.11703     664.9675        30     1.544     1.006 -37.82   0
       245    785.0152    601.5308 307.5908827  +6.4490734     12701.99     20965.54     22256.87     77.88487     156.2682     312.5986      1.745     4.33     843.4383     55.11703     1585.333        42     1.649     1.049 -33.75   0
       246   1002.1915    602.1227 307.5006668  +6.4560836     872.3918     1584.909      736.955     78.00959     155.8945     312.5364      1.722     5.93     839.8472     55.11703     139.8807        12     1.475     0.670 -28.71   0
       247    527.5041    601.3940 307.6978322  +6.4405074      1187.49     2007.227      2512.96      78.1341     156.0815     312.5053      1.838     5.28     843.8298     55.11703     156.3545        12     1.335     0.683 -27.34   0
       248     29.4636    600.9457 307.9046744  +6.4239529     524.7371     1147.741     1416.568     78.38255     156.3304     312.6608      2.484     5.85     844.5471     55.11703     78.78711         7     1.543     0.625 -43.94   0
       249   1023.5319    600.8709 307.4918459  +6.4573124     1046.184     1319.493     1379.474     69.85744     126.4957     237.5742      1.254     3.72     839.1863     55.11703     200.3029         8     0.961     0.599 -75.10  24
       250    608.8121    599.5182 307.6641284  +6.4440067     2586.949     4611.609      4650.69     78.00959     156.1437     312.5364      1.853     4.87     843.5824     55.11703     338.8218        23     1.519     0.925 -32.06   0
       251    926.1351    595.7888 307.5324670  +6.4561598     1082.142     2152.381     3207.531     77.88487      156.206     312.5364      2.325     5.91     841.7576     55.11703     150.2364        14     1.600     0.694 -23.32   0
       252    367.0368    593.0825 307.7647537  +6.4385543     816.5814     1162.232      851.283     78.38255     156.3304     312.6608      1.554     5.62     843.0625     55.11703     104.5325        10     1.205     0.739 -55.78   0
       253    221.2675    592.9857 307.8252929  +6.4336956      1156.14     1904.243      1821.58     77.88487     156.2682     312.5986      1.645     4.79     843.1791     55.11703     169.3769        14     1.456     0.782 -49.32   0
       254    184.9705    593.7482 307.8403405  +6.4321599     587.2676     1044.988     2112.908      78.1341     156.5168     312.5986      3.109     5.98     843.2919     55.11703     88.92719         9     1.522     0.662 -30.59   0
       255    861.0526    584.8771 307.5598635  +6.4584906     2429.142     3922.888     3962.861     78.50647     156.3926     312.6919      1.685     4.50     842.0713     55.11703     295.5085        23     1.473     0.975 -39.46   0
       256    156.3510    584.5127 307.8525382  +6.4350096     873.4552     1294.561      1425.74     78.38255     156.2682     312.7541      1.758     4.89     843.1478     55.11703     129.6128        10     1.085     0.738 -32.84   0
       257    819.7453    582.1542 307.5771106  +6.4582341      2238.05     3788.938     3951.479     78.38255     156.3926     312.6919      1.833     5.01     842.4677     55.11703     285.1232        22     1.484     0.907 -33.32   0
       258    800.4262    573.4283 307.5854276  +6.4611907     146460.2     236328.2     251922.9     77.88487      156.206     312.5675      1.770     4.45     842.4277     55.11703     18842.13       137     1.811     1.324 -34.79   0
       259    790.6362    578.1439 307.5893349  +6.4589165     2087.769     3708.991     4633.208     78.25842     156.3926      312.723      1.882     4.84     842.6176     55.11703     293.4378        22     1.625     0.847 -33.14   1
       260    247.7958    577.0751 307.8148143  +6.4411559     6795.576     11564.78     12704.36     78.00959     155.8945     312.5986      1.802     4.37     842.6796     55.11703     816.2443        36     1.662     1.043 -37.51   0
       261    734.5123    577.5519 307.6126640  +6.4572837     637.9351     1098.445     1749.541     78.38255     156.2682     312.7541      1.928     5.17     842.7812     55.11703     85.26306         9     1.225     0.616 -14.64   0
       262    182.0269    571.6656 307.8423103  +6.4411772     51709.91     87881.08     95547.53     78.00959     156.3304     312.5986      1.836     4.28     842.8032     55.11703     6005.076        96     1.854     1.314 -35.89   0
       263    105.9616    567.9013 307.8740264  +6.4401710     5580.067     9388.498     10350.01     78.38255     156.2682     312.9094      1.814     4.28     842.8586     55.11703     693.7437        38     1.655     1.094 -37.05   0
       264    992.0850    564.7259 307.5061198  +6.4711855     752.1848     1174.282     669.0875     78.50647     156.7031      312.723      1.643     5.19     839.0085     55.11703     119.3603         9     1.268     0.675 -76.33   0
       265    971.1403    565.2916 307.5147997  +6.4702530     1251.926     1911.429     2180.612     78.25842     156.3304     312.7541      1.659     5.21     839.5077     55.11703     154.7803        13     1.379     0.653 -36.23   0
       266    220.0462    563.9158 307.8267835  +6.4456554     683.5928     1225.653     1756.684     78.38255     156.3926      312.723      1.891     4.01     842.5764     55.11703     109.7183         7     1.010     0.612 -61.15   0
       267    836.9344    560.7892 307.5706901  +6.4676291     4068.242     6493.309     6782.488     77.88487      156.206     312.5364      1.684     4.26     841.3774     55.11703      508.801        26     1.520     0.914 -31.89   0
       268    355.4425    558.8101 307.7707267  +6.4523137     15271.96     25904.58     27587.86     77.88487      156.206     312.4431      1.822     4.33     841.7855     55.11703     1810.531        52     1.729     1.152 -35.34   0
       269    445.2678    559.0552 307.7334137  +6.4552281     569.5952     1046.845     1357.174     78.38255     156.2682     312.6297      1.788     4.34      842.227     55.11703     102.8049         6     1.278     0.419 -28.82   0
       270    158.2003    557.2974 307.8526915  +6.4463070      1452.73     2946.137     3780.681     77.88487     156.0192     312.2875      2.560     8.78     842.4919     55.11703     207.6378        27     2.581     0.835 -30.99   0
       271    790.8837    554.0189 307.5900438  +6.4688847     5236.689     8682.685     9271.354     78.00959     156.0815     312.6608      1.772     4.26     841.8241     55.11703     627.4652        30     1.564     1.002 -29.66   0
       272    521.7997    553.7247 307.7018092  +6.4599958     5773.847     9618.268     9833.382     77.63484     155.7697     312.4742      1.750     4.33     842.2028     55.11703     702.7614        35     1.615     1.055 -36.89   0
       273    232.0887    555.4899 307.8220674  +6.4495388     779.2651     1320.666     1291.254     78.25842     156.8891     312.7852      1.599     5.28     842.3027     55.11703     100.6564        10     1.247     0.631 -22.85   0
       274     94.7452    554.8073 307.8791279  +6.4451989     902.5288     1534.381     1395.733     77.88487      156.206      312.412      1.733     6.23     842.6522     55.11703     127.2915        14     1.562     0.715 -42.68   0
       275    379.8855    550.4570 307.7608576  +6.4565830     1373.523     2200.462     2099.236     78.38255     156.3926     312.8473      1.754     5.59     841.5848     55.11703     162.7295        19     1.411     1.005 -42.42   0
       276    168.8153    546.8275 307.8486376  +6.4509865     5999.729     10214.51     10856.05     78.00959      156.206     312.5986      1.840     4.33     842.2452     55.11703     709.2785        41     1.719     1.125 -31.52   0
       277    566.4686    546.8436 307.6834896  +6.4643340     2263.265     3892.185     4326.083     78.38255     156.3304     312.7541      1.833     5.10     841.8599     55.11703     274.4602        25     1.691     0.914 -25.32   0
       278     40.3603    545.5342 307.9020273  +6.4471952     4613.378      7649.76     8034.717     78.38255     156.3304     312.8162      1.811     4.17     843.5277     55.11703     555.5455        30     1.585     1.020 -40.92   0
       279    849.9139    547.1439 307.5657582  +6.4736963     526.0833     567.6214     174.6669     78.38255     156.3926     312.8473      1.433     5.23     840.5168     55.11703     86.25787         7     1.453     0.532 -28.40   0
       280    807.4435    546.4194 307.5834217  +6.4725757     1398.858     2080.111     2489.888     77.88487     156.2682     312.5053      1.689     4.72     841.4169     55.11703     191.2302        16     1.356     0.776 -31.71   0
       281    264.0268    543.2651 307.8092171  +6.4556594     76422.83     130363.3     138892.8     78.00959     156.3304     312.5986      1.828     4.30     841.5261     55.11703     9309.901       102     1.831     1.295 -35.96   0
       282    553.4463    540.8253 307.6891009  +6.4663821      871.862     1328.833     1283.665     78.00959     156.4547     312.5675      1.616     5.49     841.6656     55.11703     133.2941        11     1.213     0.734 -33.56   0
       283    247.7099    538.2710 307.8161624  +6.4571725     1131.488     1891.101     1691.441     78.25842      156.641     312.6919      1.764     3.86     841.4435     55.11703     180.5414        11     1.291     0.668 -48.73   0
       284    963.5693    537.1327 307.5188898  +6.4816256     1467.609     2326.856     2622.461      78.1341     156.3926     312.6608      1.729     4.93     838.8138     55.11703     216.0358        19     1.564     0.831 -35.21   0
       285    787.1463    535.8229 307.5922082  +6.4762718     14400.29     23735.57     25194.55     77.88487     156.3926     312.5053      1.750     4.38     841.3015     55.11703     1760.931        50     1.675     1.103 -31.89   0
       286    490.7826    534.1457 307.7153516  +6.4670385     35736.18     65370.66     71267.05     77.88487     156.3926     312.4431      1.955     4.44     841.4496     55.11703     4184.679        80     1.899     1.329 -26.42   0
       287    641.0009    532.7713 307.6530091  +6.4726407     961.3475     1415.666     1673.505     77.88487      156.206     312.5053      1.699     5.82     841.1819     55.11703     133.4182        12     1.472     0.648 -44.07   0
       288     38.8360    530.8152 307.9031592  +6.4532201     1074.237     1967.881     2093.853     78.00959      156.206     312.5053      1.841     6.08     842.9542     55.11703      143.037        12     1.518     0.684 -42.99   0
       289    650.7515    529.0993 307.6490832  +6.4744832     2676.081     4733.869     5128.915     78.38255     156.3304     312.8784      1.948     4.57      841.065     55.11703     373.7291        28     1.705     0.963 -33.06   0
       290    203.1383    530.3656 307.8349405  +6.4589371     1437.013     2361.637     2492.527     78.25842     156.4547     312.6608      1.735     4.97     841.3638     55.11703     190.0576        15     1.406     0.714 -42.61   0
       291     89.3554    530.3036 307.8821963  +6.4551331      768.854     890.9045     858.4451     78.38255     156.3304     312.8473      1.522     5.42      842.175     55.11703     95.02045        10     1.233     0.673 -32.67   0
       292    660.9155    529.2524 307.6448567  +6.4747603     1153.102     1884.316     2497.164     78.38255     156.3304     312.8162      1.891     5.77     841.0705     55.11703     162.9568        14     1.505     0.747 -31.31   0
       293    712.9537    528.0703 307.6232835  +6.4769903     1142.794     1856.191     2348.838     78.38255     156.3304     312.6919      1.653     4.57     841.1033     55.11703     159.2582        14     1.253     0.790 -33.17   0
       294     69.5749    526.4854 307.8905404  +6.4560431     682.3141     1116.446     1082.682     78.50647     156.1437     312.5364      1.747     5.73     842.3279     55.11703      74.3045         8     1.119     0.827 -45.21   0
       295    388.6826    524.8992 307.7580674  +6.4674295     1430.198     2240.319     2202.672     78.38255     156.8891     312.7852      1.715     4.54     840.5071     55.11703     177.3238        16     1.366     0.795 -35.58   0
       296    320.0425    523.0510 307.7866369  +6.4658870      3497.08     5696.757     6107.329     78.50647     156.3926     312.6919      1.749     4.44     840.1768     55.11703     437.0554        27     1.572     0.954 -34.04   0
       297    135.1409    521.6027 307.8634764  +6.4602666     22703.95     38866.43        41454     77.75996      156.206      312.412      1.839     4.43     841.5653     55.11703     2638.211        61     1.753     1.208 -35.48   0
       298    863.1685    521.7549 307.5611067  +6.4846210     1230.506     2041.274     2286.611     78.00959     156.4547     312.5364      1.759     6.36     839.9302     55.11703     172.3508        16     1.576     0.721 -38.39   0
       299    500.0656    522.4636 307.7118903  +6.4721727     1802.208     2900.096     3467.348     78.38255     156.3926     312.6919      1.812     5.71     840.9358     55.11703     235.2982        17     1.500     0.779 -33.78   0
       300    100.3665    519.8287 307.8779783  +6.4598282     2314.136      4077.13     4598.928     77.88487     156.1437     312.4742      1.893     4.77     841.7944     55.11703      282.139        22     1.478     1.004 -36.63   0
       301    337.0034    518.3300 307.7797524  +6.4684058      940.213     1634.376     1843.092     77.88487     156.0192     312.5364      1.770     5.80     839.9233     55.11703     127.4119        14     1.421     0.756 -38.01   0
       302    960.7082    516.3759 307.5207753  +6.4900994     4582.865     7556.059     7785.503     78.50647      156.206     312.5364      1.779     4.60     838.4104     55.11703     566.0795        31     1.613     0.988 -35.34   0
       303    125.3908    511.2409 307.8678766  +6.4642160     482.4943      805.096     391.0859     77.75996      156.206      312.412      1.724     5.35     841.3213     55.11703     70.72803         5     1.445     0.560 -51.04   0
       304    533.8657    508.8729 307.6983109  +6.4789169      1323.14     2323.167     2539.026     78.50647     156.4547     312.6919      1.847     4.91     840.2052     55.11703     182.0603        17     1.382     0.903 -33.69   0
       305      1.4736    505.3153 307.9195400  +6.4624880     8145.453     10105.24     10859.08     69.99646     126.6493     237.6561      1.136     2.65      842.157     55.11703     1934.963        21     1.276     0.688 -88.38  24
       306    432.1458    502.8021 307.7407626  +6.4780109     37258.77     63357.55     67645.88     77.75996      156.206     312.3186      1.821     4.37     839.8604     55.11703     4392.482        75     1.777     1.257 -33.67   0
       307    408.4757    505.3416 307.7505076  +6.4761680      523.706     696.7457     425.6801     78.50647     156.4547     312.6608      1.650     5.09     839.7428     55.11703      68.5163         6     1.171     0.626 -43.64   0
       308    640.1575    502.5462 307.6543778  +6.4850906     10736.42     17755.78     18984.82     78.38255     156.3926     312.6919      1.794     4.27      840.261     55.11703     1293.355        44     1.691     1.067 -34.67   0
       309    279.7299    503.1773 307.8040512  +6.4727367     954.7286     1950.323     2510.548     78.00959     156.2682     312.6608      2.253     6.39     839.2068     55.11703     119.9189        15     1.397     0.821 -40.90   0
       310    197.3082    500.3757 307.8383767  +6.4711217     16841.96     30085.63     31559.29     78.50647      156.206     312.5364      1.903     4.31      839.838     55.11703       1834.7        60     1.755     1.316 -29.06   0
       311    973.9324    501.1263 307.5157949  +6.4968366     1111.024     1961.407     1817.143     78.50647     156.5168     312.6608      1.712     5.34     837.8694     55.11703     129.4577        14     1.279     0.826 -48.14   0
       312    162.9690    501.5129 307.8525996  +6.4694968     1493.527     2397.867     2460.598     78.50647     156.1437     312.6297      1.710     6.13      840.588     55.11703     188.7877        16     1.413     0.780 -32.12   0
       313    902.8812    500.4314 307.5453291  +6.4947510     669.2401     1057.455     1081.171     78.25842     156.2682     312.6608      1.560     4.66     839.0327     55.11703     126.1655         8     1.407     0.437 -47.06   0
       314    814.0553    500.5995 307.5822168  +6.4917133     717.5164     1260.138     1110.097     77.63484     156.0815     312.3497      1.838     5.15     840.2664     55.11703     96.84839         8     1.197     0.627 -60.09   0
       315    562.0517    499.2655 307.6869284  +6.4838280     2447.021     4144.873     3845.644     78.38255     156.3304     312.6919      1.767     4.56     839.7568     55.11703     288.1944        26     1.663     0.931 -29.39   0
       316    935.8862    496.4872 307.5317531  +6.4974816     4244.877       6726.3      7185.59      78.1341     156.5789     312.8162      1.678     4.46     838.3582     55.11703     527.6095        29     1.577     0.925 -32.85   0
       317    608.8679    495.0294 307.6676269  +6.4871457     5841.792     9794.262     10510.11      78.1341     156.3926     312.6608      1.788     4.36     839.8947     55.11703     688.4628        31     1.617     0.985 -35.02   0
       318     96.5877    495.7288 307.8803640  +6.4696500     900.6083     1663.645     1788.404     77.88487     156.0815     312.5053      1.950     6.18     841.2493     55.11703     126.8577        12     1.345     0.797 -25.59   0
       319    507.2383    494.4542 307.7098564  +6.4839766     589.0463     1041.105     1113.614     78.38255     156.4547     312.6919      2.036     4.52     839.7172     55.11703     95.19904         5     1.210     0.480  -6.77   0
       320    958.4734    488.8343 307.5226286  +6.5013952     3070.478     4960.318     5297.264     78.25842     156.3304     312.6919      1.706     4.19     837.8585     55.11703     389.2369        26     1.544     0.984 -34.98   0
       321    521.1733    486.1139 307.7043501  +6.4878870      6624.43     11356.87     12545.23     78.50647     156.1437     312.5675      1.845     4.43     839.2476     55.11703     799.2507        38     1.637     1.097 -36.30   0
       322    367.1226    486.3820 307.7683229  +6.4826066     2462.322     3899.293     4242.142     77.88487      156.206     312.6608      1.720     4.78      838.454     55.11703     310.3621        18     1.434     0.802 -26.18   0
       323     89.5948    485.9660 307.8835989  +6.4734448      477.551     806.9765     699.4217     77.63484      156.206     312.4742      1.990     4.19     841.0222     55.11703     75.43182         5     1.091     0.460 -27.43   0
       324    877.6075    481.9804 307.5564467  +6.5015241      2906.26     4775.785     5688.261     78.00959     156.1437     312.5053      1.793     4.55     839.2614     55.11703     360.5373        23     1.577     0.830 -32.71   0
       325    397.5189    487.3189 307.7556669  +6.4832405     681.2756     1365.285     1349.858     78.38255      156.641     312.7852      2.040     6.92     838.8381     55.11703     101.0399        10     1.498     0.896 -25.28   0
       326    885.0623    476.4944 307.5535348  +6.5040380     1756.908     2905.548     3443.118     78.38255     156.4547      312.723      1.926     5.01     838.8367     55.11703     242.4516        21     1.570     0.910 -41.22   0
       327    924.0927    475.8616 307.5373446  +6.5056030     1208.743      1969.35     1838.713     78.25842     156.3926     312.7541      1.704     5.60     837.9788     55.11703     190.7759        12     1.411     0.682 -31.01   0
       328    708.9984    472.2494 307.6268059  +6.4999031     2695.499     4389.597     4558.701     77.75996     156.0192     312.2875      1.715     4.61     839.4738     55.11703     369.5242        21     1.508     0.854 -40.68   0
       329    420.0884    470.9600 307.7468456  +6.4907517     839.4584     1548.477     1682.517     78.38255     156.3304      312.723      1.980     7.54     838.2063     55.11703     111.8052        14     1.600     0.995 -37.42   0
       330     70.7787    471.2883 307.8919108  +6.4788703     1878.113     3039.599       3056.5     78.38255      156.206     312.5675      1.702     5.12     840.6268     55.11703     205.6176        19     1.474     0.863 -37.41   0
       331    607.5773    467.1201 307.6691036  +6.4986245     9052.358     14942.65     16517.41     78.00959     156.0815     312.6608      1.815     4.20     838.8425     55.11703     1147.375        43     1.718     1.052 -36.77   0
       332    770.6005    463.4145 307.6015169  +6.5056117      14501.8     24262.32     27166.92     78.00959     156.0815     312.4742      1.874     5.30     838.9475     55.11703      1784.95        60     2.164     1.116 -42.69   0
       333    379.9776    470.5394 307.7635191  +6.4895787      3258.99     5539.804     5633.695     78.00959     156.3304     312.5986      1.781     4.32      837.807     55.11703     396.1185        26     1.542     0.983 -42.81   0
       334    290.0192    463.9972 307.8011027  +6.4892573     2337.939     3805.402     3673.732     78.00959     155.9568     312.4431      1.711     4.63     837.5757     55.11703     284.5493        23     1.530     0.915 -35.63   0
       335    799.2999    460.9708 307.5896786  +6.5075803     1143.246     1823.467     2267.236     78.38255     156.1437      312.723      1.790     5.78     838.7623     55.11703     151.3407        13     1.251     0.753 -41.02   0
       336    373.1908    460.3932 307.7666807  +6.4935395     1459.657      2496.01     2661.977     77.63484      156.206     312.5364      1.799     4.93     837.1406     55.11703     195.7034        19     1.497     0.905 -31.72   0
       337    955.6816    458.5629 307.5248050  +6.5137995     1716.745     2894.425     2451.325     78.38255     156.4547     312.6608      1.796     4.65     836.7167     55.11703     233.7084        21     1.504     0.921 -35.72   0
       338    389.4285    460.1800 307.7599438  +6.4941727     381.8235     680.4238     1100.871     78.00959      156.206     312.6297      1.428     3.60     837.2776     55.11703     80.17603         5     0.996     0.375  -5.22   0
       339    746.0713    454.5905 307.6120022  +6.5084340     2177.024      3464.27     3469.682     77.88487     156.0192     312.5364      1.644     4.46     838.6154     55.11703     289.3759        22     1.512     0.953 -33.17   0
       340    704.3138    457.4394 307.6292504  +6.5058605     514.1008     812.9202     864.0765     78.38255     156.3926     312.6919      1.501     3.47     838.8856     55.11703     83.00507         5     1.112     0.312 -21.20   0
       341    107.7213    455.4221 307.8771055  +6.4866644       3928.9      6751.15     6830.489     78.00959     156.0815     312.6608      1.832     4.54      839.965     55.11703     449.0615        34     1.632     1.111 -27.71   0
       342    362.3457    456.3701 307.7713210  +6.4948361     556.9788     1054.702     1404.452      78.1341     156.4547     312.5986      2.124     4.83     836.8359     55.11703     74.14819         8     1.431     0.463 -22.78   0
       343   1009.5392    453.4658 307.5026057  +6.5177014     3636.152     6614.616     6733.942     78.38255     156.3304     312.6919      1.936     4.46     835.5688     55.11703     418.6558        36     1.657     1.223 -16.09   0
       344    343.8408    450.3816 307.7792091  +6.4966867     2864.367     4707.755     4455.556     78.00959      156.206     312.4742      1.712     4.21     836.5602     55.11703     372.8309        27     1.610     0.964 -41.07   0
       345    265.6808    452.3153 307.8116062  +6.4932618     1381.022     2322.783     2669.076      78.1341     156.7031     312.7541      1.915     4.91     837.3734     55.11703     170.9632        16     1.280     0.930 -33.21   0
       346    699.7706    448.1423 307.6314505  +6.5095467     1460.975     2386.507      2367.87     78.00959     156.4547     312.5986      1.750     4.87     838.5588     55.11703     180.3856        19     1.327     0.980 -24.25   0
       347    974.1801    446.7879 307.5175169  +6.5192782     519.7101     751.7454     713.6788     78.00959     156.0815     312.5986      1.602     3.92      835.875     55.11703     79.84546         5     1.005     0.437 -45.68   0
       348    402.9052    446.8523 307.7547966  +6.5001273     566.5945     838.7019     223.9532     78.25842     156.3304     312.9405      1.439     3.87      836.639     55.11703     115.0023         5     0.819     0.525 -48.24   0
       349    231.6662    446.1136 307.8259433  +6.4946783     812.3641     1238.235     900.8174     78.38255     156.5789     312.7541      1.802     6.14     837.4453     55.11703     102.6881        11     1.154     0.920 -42.99   0
       350    441.8024    441.8516 307.7388098  +6.5034975     582.3417     883.5135     586.0595     77.75996     156.0815     312.2875      1.394     3.37     836.5291     55.11703     107.1066         5     0.976     0.336 -45.36   0
       351    540.8545    440.8209 307.6977036  +6.5072455     952.3063     1367.059     1722.405     77.88487     156.3926     312.5053      1.654     4.98     837.1442     55.11703     142.6094        10     1.211     0.579 -41.03   0
       352    689.8594    440.0005 307.6358414  +6.5125762     544.3054     737.0692     776.0385     77.63484     156.1437     312.3809      1.463     3.89     838.3418     55.11703     106.6562         5     0.856     0.507 -21.12   0
       353    463.1458    439.0599 307.7300392  +6.5053662     1197.776     2005.656     2009.265     78.50647     156.3304     312.6608      1.792     5.16     836.4084     55.11703      160.139        14     1.334     0.759 -23.94   0
       354    825.8847    438.1250 307.5794049  +6.5179009     1434.322     2354.091     2140.003     78.50647     156.7031     312.7541      1.710     4.59     837.3555     55.11703     245.9993        17     1.461     0.857 -30.59   0
       355    811.6110    437.2171 307.5853643  +6.5177985     1839.894     2801.892     3362.861      78.1341     156.0815     312.5986      1.710     4.41     837.3461     55.11703      264.353        18     1.413     0.813 -39.16   0
       356    708.7979    435.3700 307.6281311  +6.5151217     13319.49     22041.93     23377.96     77.88487      156.206     312.5053      1.761     4.49     837.9703     55.11703     1703.417        47     1.669     1.102 -32.49   0
       357    611.2171    437.3925 307.6685939  +6.5110191     686.4064     1263.586     1587.034     78.00959     156.1437     312.5364      2.119     6.00     837.6552     55.11703     96.76447         9     1.335     0.757 -45.91   0
       358    630.0636    431.4204 307.6609672  +6.5141160     2356.844     4135.651     4511.241     78.00959     156.3926     312.5675      1.816     5.07     837.6583     55.11703     279.7871        24     1.525     1.017 -37.34   0
       359    604.8362    428.3865 307.6715478  +6.5145233      4736.49     7940.459      9406.32     77.88487      156.206      312.412      1.831     4.74     837.2269     55.11703     567.6177        25     1.585     0.930 -28.53   3
       360    601.2639    425.8348 307.6731176  +6.5154571     13027.19     22335.38     24460.15     78.25842     156.3926     312.6919      1.837     4.26     837.1077     55.11703     1522.269        50     1.739     1.196 -31.11   3
       361    934.2368    425.3518 307.5348283  +6.5267945     3454.617     5660.699     5910.885      78.1341     156.3926     312.5986      1.767     4.51     835.5958     55.11703     435.0285        27     1.515     0.998 -31.23   0
       362    373.2240    421.1932 307.7679914  +6.5097236     25615.83     43513.01     46624.59     77.88487      156.206     312.5364      1.819     4.31     835.0287     55.11703     3073.668        62     1.727     1.223 -35.26   0
       363    889.4929    421.1000 307.5535566  +6.5270553     1413.119     2455.122     3230.434     78.38255     156.8891     312.6608      2.051     4.67     836.0099     55.11703     172.1456        20     1.379     1.033 -46.72   0
       364    119.1597    420.5079 307.8735376  +6.5014630      2145.27     3661.722     3601.059     78.50647     156.3304     312.7541      1.774     4.54     838.7603     55.11703     265.0255        24     1.537     0.978 -35.51   0
       365    902.8623    415.6967 307.5481849  +6.5297327     4432.331     7324.456     7490.826      78.1341     156.4547     312.7541      1.740     4.50     835.6205     55.11703     556.1644        31     1.588     0.986 -35.61   0
       366    584.6901    417.0262 307.6802987  +6.5185382      577.663      854.123     897.3353     78.50647     156.1437     312.5364      1.632     4.39      836.592     55.11703     94.81464         7     1.265     0.433 -32.77   0
       367     52.7746    415.8030 307.9012687  +6.5011693      1266.88     2290.609     2926.255     77.88487     156.0815     312.5053      2.093     6.13     839.2385     55.11703     166.3093        19     1.639     0.941 -56.82   0
       368    958.6105    413.9333 307.5250877  +6.5323224     547.5246      1032.98      805.627     77.88487     156.2682     312.5364      2.054     5.26     834.6861     55.11703     88.54395         8     1.219     0.641 -45.05   0
       369    230.8187    411.7301 307.8274587  +6.5088442     12130.74     20686.44     21453.01     78.00959     156.2682     312.6297      1.801     4.39     836.7618     55.11703     1407.719        44     1.656     1.128 -33.42   0
       370     65.8946    405.6829 307.8961626  +6.5057892     726.7084     1385.713     1218.495      78.1341     156.7031     312.8162      2.228     5.85     838.9808     55.11703     110.9001         9     1.339     0.719 -51.61   0
       371    725.4509    405.8260 307.6222089  +6.5278760     724.1812     1032.939     1553.559     78.00959     156.4547     312.5986      1.592     5.26     836.5742     55.11703     111.3148         8     1.214     0.644 -28.90   0
       372    954.0898    404.2773 307.5272899  +6.5361579     918.1079     1532.812     1654.419      78.1341      156.641     312.7541      1.860     5.86     834.4975     55.11703     131.9159        12     1.429     0.676 -30.85   0
       373    694.0164    404.3961 307.6353140  +6.5274142     621.2993     947.9334     1022.343     78.00959     156.0192     312.5364      1.515     4.09     836.8225     55.11703     98.74414         5     1.072     0.446 -63.21   0
       374    176.6622    401.7601 307.8502896  +6.5111381     707.5994     1303.785     1583.035     78.38255     156.3926     312.7541      2.107     6.07     837.2103     55.11703     99.86566        10     1.420     0.729 -39.04   0
       375    343.6458    401.5504 307.7809405  +6.5168392     1153.014     1852.018     2321.939     78.38255     156.2682      312.723      1.736     5.68     834.1667     55.11703     161.2731        13     1.231     0.739 -46.06   0
       376    131.0038    400.3450 307.8693013  +6.5101855       4431.9     7830.285     8588.276     77.75996      156.206     312.3809      1.882     4.36     837.9406     55.11703     540.5138        36     1.593     1.140 -37.26   0
       377    235.8699    399.3609 307.8257792  +6.5141204     1215.469     1876.957     2090.683     78.25842     156.3926     312.7541      1.742     4.68     836.1873     55.11703     148.6623        15     1.370     0.819 -31.10   0
       378    817.0243    396.9438 307.5844706  +6.5346060     615.6417     791.1064     408.2314     78.00959     156.3926     312.5053      1.544     4.82     835.7322     55.11703     102.5012         8     1.420     0.464 -37.55   0
       379    153.1253    396.2486 307.8602521  +6.5126213     2197.277     4083.641     3961.889     78.25842     156.4547      312.723      1.940     5.37     837.4585     55.11703     242.0234        26     1.711     0.956 -48.42   0
       380    548.5114    395.1724 307.6960630  +6.5263476     801.2205     1280.291     680.0443     78.50647     156.1437     312.5986      1.619     5.51     835.3004     55.11703     117.7997         9     1.214     0.708 -42.73   0
       381    964.7870    390.8974 307.5232959  +6.5420388     808.9404     1572.565     1638.226     78.25842     156.1437     312.4431      2.296     7.13     833.9612     55.11703     155.6744        16     2.064     0.690 -55.49   0
       382    376.4496    390.9713 307.7676728  +6.5223085     1882.274     3080.679     3143.883     78.00959     156.4547     312.5986      1.811     4.70     833.4088     55.11703     233.3948        22     1.460     0.976 -40.08   0
       383    264.8705    391.4687 307.8140009  +6.5183537     802.3494     1345.316     1161.974     78.38255     156.5168     312.6608      1.765     5.21     835.2773     55.11703      118.366         8     1.356     0.566 -27.34   0
       384     26.6467    385.3624 307.9131524  +6.5128554     2990.348     5240.726     6015.057      78.1341     156.3304     312.5675      1.938     4.77     839.1666     55.11703     355.2958        32     1.791     1.067 -43.62   0
       385    430.4026    384.5184 307.7454809  +6.5267839     6465.197     10941.72     11610.76     77.75996     156.0192     312.4431      1.834     4.54     833.3517     55.11703     749.9918        37     1.585     1.122 -32.45   0
       386    584.1752    386.6291 307.6815376  +6.5310700     516.8493     731.9716     579.0637     77.88487      156.206     312.5675      1.410     3.42     835.1276     55.11703     82.03473         5     0.785     0.431 -19.41   0
       387    770.9623    381.9933 307.6041069  +6.5392378     11459.14      19106.6     19930.98     77.63484     156.1437     312.4431      1.751     4.41     835.5004     55.11703     1411.863        44     1.647     1.102 -33.13   2
       388    763.2037    383.4679 307.6072800  +6.5383695     1652.112     2929.497     3085.175     77.75996     156.0192     312.4742      1.852     4.55     835.5579     55.11703     232.1506        21     1.548     0.925 -22.13   3
       389    334.4709    380.2292 307.7854721  +6.5253330      1033.06     1460.039     1464.339     78.25842     156.3926     312.6919      1.568     4.93       833.19     55.11703     149.9823        12     1.160     0.729 -38.31   0
       390   1014.9191    377.1697 307.5029327  +6.5493794     3109.498     4970.009     5297.578     78.25842     156.2682     312.6608      1.722     4.36     832.9275     55.11703      417.537        27     1.554     0.953 -34.58  16
       391    946.2095    373.9925 307.5315808  +6.5483977     602.1802     919.3819     942.5637     77.88487      156.206     312.5675      1.886     3.94     833.7516     55.11703     82.20172         6     0.937     0.473 -50.99   0
       392    179.3943    372.9262 307.8501310  +6.5231334     722.8499     1102.644     1422.348     78.00959     155.9568     312.5986      1.942     5.40     836.4442     55.11703      88.3255         8     1.148     0.715 -23.52   0
       393    478.5326    368.2527 307.7260385  +6.5351140     2843.753     4656.718     4825.045     78.25842     156.3304     312.5986      1.790     4.14     833.7664     55.11703     335.5181        26     1.517     0.978 -34.09   0
       394    450.7775    368.7424 307.7375506  +6.5339806     2086.617      3251.66     2908.989     78.00959     156.3926     312.5053      1.650     4.49     833.0904     55.11703     272.2142        23     1.592     0.898 -34.46   0
       395    836.3492    364.9171 307.5775207  +6.5484741     29710.08     51012.84     54814.44     78.38255     156.3304     312.7541      1.851     4.44     834.9744     55.11703     3494.887        68     1.784     1.224 -41.66   0
       396    907.2279    368.0842 307.5479719  +6.5495350     731.6602     1049.135     891.3854     78.38255     156.1437     312.5675      1.607     4.83     834.2063     55.11703     117.0443         8     1.033     0.640 -20.07   0
       397    328.4228    360.4792 307.7886519  +6.5332832     878.1298       1396.6     1582.525     78.00959     156.0815     312.6608      1.790     5.55     832.2126     55.11703     96.36096        11     1.017     0.855 -25.33   0
       398    608.1540    357.2294 307.6725686  +6.5440108     2277.117     4138.612     4618.763     77.88487     156.4547     312.5675      1.881     4.57     833.6867     55.11703     297.3231        26     1.505     1.084 -30.82   0
       399     16.0860    357.9680 307.9184676  +6.5238083     1027.294     1778.316     1397.677     78.38255      156.206     312.6608      1.756     6.55     839.3026     55.11703     132.3201        16     1.605     0.751 -36.16   0
       400    692.8271    350.8635 307.6376112  +6.5494748     70927.27     117908.8       125211     78.00959     156.3926     312.5986      1.778     4.30      834.228     55.11703     8518.484        89     1.771     1.222 -33.12   0
       401    851.2717    352.1624 307.5717511  +6.5542385     1021.773     1633.084     1869.124     78.25842     156.3926     312.7541      1.728     4.30     834.6469     55.11703     160.7512        13     1.161     0.988 -41.85   0
       402     72.0218    350.5416 307.8954866  +6.5287591      1292.82     2266.256     2268.848     78.00959     156.3304     312.5364      1.794     6.54     837.6766     55.11703     148.4975        19     1.616     0.913 -38.44   0
       403    934.0714    348.1672 307.5374907  +6.5586542      787.514     1343.753     1152.116     78.25842     156.3926     312.6608      1.784     5.93     833.0688     55.11703      107.639        11     1.393     0.710 -42.98   0
       404    555.2881    347.5525 307.6948545  +6.5462340       2534.6     4093.409     4552.778     78.38255     156.2682     312.7541      1.811     4.42     833.1865     55.11703     309.1495        24     1.544     0.949 -36.91   0
       405     92.5929    346.2688 307.8870871  +6.5312159     5563.671     9332.224     9887.094     77.88487     156.0815     312.5986      1.786     4.38     837.0363     55.11703     700.5494        36     1.649     1.072 -32.26   0
       406    538.5631    343.7212 307.7019310  +6.5472550     6339.303     10605.94     10691.16     78.25842     156.4547     312.6919      1.794     4.53     832.9432     55.11703     743.5176        35     1.615     1.083 -36.57   0
       407    267.6932    341.3770 307.8145229  +6.5391279     2367.716     4017.523     4228.134     78.38255      156.206     312.5364      1.842     4.80     832.9232     55.11703     280.4275        21     1.473     0.966 -39.52   0
       408    401.4532    338.8739 307.7590473  +6.5446555     23288.84     39247.08     41920.88     78.25842     156.3926     312.6608      1.820     4.26     831.0033     55.11703     2728.754        65     1.736     1.255 -33.84   0
       409    579.3946    338.1289 307.6851589  +6.5509325     566.0556     870.6695     661.6537     78.00959     156.0192     312.5986      1.563     3.31       832.64     55.11703     91.01135         5     0.743     0.444  69.92   0
       410    509.6609    337.4995 307.7141465  +6.5488542      1169.59     2142.659     2212.006      78.1341     156.3304     312.8162      1.911     4.43     832.5267     55.11703     173.3036        13     1.302     0.847 -16.93   0
       411    381.2072    337.0269 307.7675194  +6.5447381     996.8651     1741.129     2839.166     77.88487      156.206     312.5053      2.203     4.50     831.0208     55.11703     127.8759        14     1.233     0.904 -47.56   0
       412    480.7920    334.4124 307.7262423  +6.5491603     980.1625     1685.997     1657.108     78.00959      156.206     312.6297      1.970     4.65     832.3483     55.11703     164.1537        12     1.422     0.625 -35.16   0
       413    796.2328    331.3977 307.5953126  +6.5609710     667.9239     1268.392     1238.407     77.63484      156.206     312.4742      1.783     4.88     833.5231     55.11703     103.5994         8     1.305     0.517 -32.13   0
       414    490.6273    329.2602 307.7223308  +6.5516173     7775.527     13008.81     13793.54     78.00959     156.4547     312.6297      1.810     4.28     832.0508     55.11703     959.8736        38     1.648     1.071 -31.48   0
       415    378.4124    331.5704 307.7688648  +6.5468969     685.8595     1277.998     2053.629     77.88487     156.1437     312.5986      1.887     3.91     830.9321     55.11703     100.7141         5     1.129     0.387 -16.92   0
       416    914.7390    328.2895 307.5461894  +6.5662149     749.2484     1365.847     1638.791     78.38255     156.5168     312.7541      1.976     5.42     832.6076     55.11703     101.3267        10     1.431     0.580 -32.62   0
       417    759.7418    328.0168 307.6105847  +6.5611461      2881.76     4744.625     5823.589     77.88487     156.3304     312.4431      1.820     4.31      833.546     55.11703     328.1837        24     1.468     0.955 -27.66   0
       418    706.0000    327.9084 307.6329126  +6.5593925     484.9303     1083.976     1258.983     77.63484     155.8945     312.3497      2.323     3.84      833.522     55.11703     113.3208         5     0.802     0.529 -62.82   2
       419    316.9387    326.2167 307.7945805  +6.5470418     929.8924     1675.693     1630.863     77.88487     156.3304     312.5053      1.671     5.15     831.4385     55.11703     146.6563        13     1.445     0.747 -35.02   0
       420    152.4787    319.7362 307.8631118  +6.5441856     1010.087     1526.909     1884.249      78.6302     156.4547     312.6919      1.690     5.60     835.3485     55.11703     126.1074        14     1.416     0.762 -56.87   0
       421    380.3987    313.5180 307.7686497  +6.5544162     6658.098     11084.03     11785.07     77.63484     155.9568     312.4431      1.797     4.35     830.5605     55.11703     841.5391        34     1.629     1.017 -38.02   0
       422    236.2890    314.1275 307.8284893  +6.5493211     1901.176     2995.715     2990.037     78.38255      156.641      312.723      1.688     4.40     833.0334     55.11703     241.1526        22     1.455     0.970 -29.53   0
       423    734.0447    313.2090 307.6217578  +6.5663996     808.1086     1212.518     1022.943     77.88487     156.2682     312.3809      1.608     5.15     833.0787     55.11703     121.2177        10     1.175     0.664 -37.46   0
       424    748.3130    309.4068 307.6159588  +6.5684467     48593.14     79557.04     83943.48     77.88487     156.0815     312.4431      1.783     4.32     832.8249     55.11703     6014.544        79     1.739     1.205 -34.24   0
       425    419.8981    308.8224 307.7524009  +6.5576810     2144.944     3742.844     3871.305     78.38255     156.1437     312.5053      1.797     4.63     830.1556     55.11703     242.5379        23     1.506     0.946 -33.64   0
       426    983.0511    306.5263 307.5185432  +6.5774806      1497.11     2355.933     2220.538     78.38255     156.4547      312.723      1.741     5.28      831.075     55.11703     208.9634        17     1.470     0.889 -14.56   0
       427    924.0372    305.7224 307.5430854  +6.5758421     2058.996     3396.749     3476.343     78.25842     156.4547     312.6919      1.727     4.15     831.6591     55.11703     276.4406        20     1.482     0.844 -38.31   0
       428    565.8804    306.3394 307.6918448  +6.5636033     1080.048     1637.599     1464.329     78.50647     156.3926     312.6608      1.724     5.46     830.7864     55.11703     156.7739        12     1.379     0.611 -39.93   0
       429    456.4921    305.4770 307.7373131  +6.5602904     891.5801     1455.671     1667.136     78.13411     156.5789     312.6919      1.617     5.80     830.3834     55.11703     127.6866        12     1.595     0.593 -37.00   0
       430    406.2983    304.5187 307.7581954  +6.5590011     1500.002     2733.323     3144.213     78.25842     156.8271     312.7852      1.945     5.53     830.1194     55.11703     201.8699        19     1.503     0.881 -33.71   0
       431    455.8383    299.9871 307.7377701  +6.5625349     562.4218     1014.434     1202.694     78.00959      156.206      312.412      1.994     3.93     830.1476     55.11703     87.52808         5     0.842     0.525 -32.74   0
       432    827.8852    298.7164 307.5832637  +6.5755215     1025.593     1878.296     1899.805      78.1341     156.5168     312.7852      1.811     6.11     831.7537     55.11703     153.9781        12     1.305     0.804 -43.31   0
       433    183.0092    295.9138 307.8512370  +6.5550476     2141.356     3678.625     4595.318     78.00959     156.0815     312.5364      1.942     5.92     833.7024     55.11703     262.4918        23     1.726     0.931 -40.50   0
       434    746.7164    294.1087 307.6171371  +6.5747090     5690.789     9263.552     9672.156      78.1341     156.7031     312.8162      1.752     4.39     832.2212     55.11703     667.5513        31     1.618     0.959 -34.74   0
       435    436.6624    295.7389 307.7458791  +6.5636451      991.378     1692.086     1892.105     78.38255     156.3926      312.723      1.888     5.62     829.8615     55.11703     125.4589        12     1.290     0.689 -50.74   0
       436    218.4528    293.9759 307.8365801  +6.5570402     624.5448     847.7638     695.8006     77.88487     156.3926     312.5986      1.567     3.77     832.8009     55.11703     103.2968         6     1.217     0.336 -40.19   0
       437     79.5502    293.0923 307.8943067  +6.5527289     861.4744     1688.177     1882.788     78.25842     156.2682     312.8473      1.935     5.58     836.3922     55.11703     150.0413        13     1.582     0.876 -11.74   0
       438    763.2725    291.9078 307.6103337  +6.5761715     2355.678     3775.817     3858.298     78.25842     156.5168      312.723      1.728     4.98     831.9127     55.11703      270.063        19     1.462     0.827 -27.09   0
       439    352.5566    286.6482 307.7811231  +6.5645736      1618.14     3282.635     3514.574     78.38255     156.3304     312.6297      2.084     7.54     830.3847     55.11703     188.7627        27     2.009     0.910 -15.10   0
       440     66.4725    286.8611 307.8999501  +6.5548607     1145.526     2101.892     1590.808     78.50647     156.3926     312.7541      1.857     6.97     836.3248     55.11703     142.3207        17     1.683     0.809 -33.73   0
       441   1001.4436    282.8994 307.5116963  +6.5878487     5495.006     8738.265     8903.022     78.38255     156.2682     312.9094      1.732     4.31     830.0445     55.11703     638.8353        34     1.571     1.061 -30.61   0
       442    479.4333    282.6241 307.7285550  +6.5704946     1826.265       3066.7     3244.219     77.88487      156.206     312.5053      1.805     4.91     829.4432     55.11703     243.1545        20     1.580     0.889 -28.53   0
       443    241.9826    278.1646 307.8273413  +6.5643590     5168.224     8844.237     9488.531     77.88487      156.206     312.4742      1.845     4.38     831.8172     55.11703     619.5667        36     1.607     1.103 -33.12   0
       444    250.1734    279.4220 307.8238964  +6.5641154     529.8482     775.1742     956.7505     77.88487      156.206     312.6297      1.765     4.55     831.6194     55.11703     90.60364         5     0.863     0.681 -40.51   0
       445    806.3286    277.1568 307.5929441  +6.5837014      528.829     837.3813     877.2365     78.25842     156.3926      312.723      1.777     3.99     831.1516     55.11703      78.5647         6     1.102     0.414 -77.43   0
       446    375.9937    269.2695 307.7719749  +6.5725354       1368.9     2459.348     2342.783     77.88487     155.9568     312.5364      1.853     5.01     829.8203     55.11703     189.5688        19     1.405     1.016 -48.68   0
       447    218.6353    270.9986 307.8372820  +6.5665320     559.8972     946.0306     1412.652     77.50952      156.206     312.5053      1.952     4.82     832.2901     55.11703     112.8325         5     1.189     0.554 -38.25   0
       448    962.4771    268.0930 307.5283813  +6.5926607     849.8473      1396.29     1315.956      78.1341      156.641      312.723      1.757     4.04     830.0507     55.11703     146.2782        11     1.196     0.693 -47.83   0
       449    298.3320    265.1601 307.8043742  +6.5716223     1037.921      1926.57     1381.334     78.25842     156.3304     312.7852      1.816     5.73      830.248     55.11703     153.4029        15     1.451     0.830 -31.69   0
       450    145.8854    264.9586 307.8677058  +6.5665771     1516.845     2607.578     1999.067     78.38255     156.3304     312.6919      1.757     4.49     833.9691     55.11703     242.0951        17     1.482     0.726 -33.76   0
       451    555.5190    260.5986 307.6976919  +6.5821393     2060.068     3671.477     4090.632     77.63484     155.8945     312.4431      1.868     4.81     828.8422     55.11703     250.5153        23     1.655     0.866 -30.83   0
       452    898.8702    259.4947 307.5550943  +6.5940862     1602.231     2894.242     2932.793     78.25842     156.4547     312.6919      1.989     7.10     830.4757     55.11703     217.3403        21     1.669     1.260  31.54   0
       453    719.1667    258.1279 307.6297934  +6.5886412     4643.112     7837.813      8065.93     78.25842     156.3926     312.6919      1.784     4.41     831.2378     55.11703      582.854        29     1.660     0.946 -34.84   0
       454    659.9850    258.1606 307.6543775  +6.5866463     1795.097     3316.796     3313.271      78.1341      156.206     312.4431      1.951     4.77     830.6315     55.11703     268.2329        25     1.641     1.016 -25.75   0
       455    374.8062    252.7951 307.7730249  +6.5792966     544.4094     892.0026      770.795     77.75996     156.1437     312.5364      1.564     3.53     829.5999     55.11703      87.4696         5     1.041     0.346 -44.97   0
       456    915.1804    250.4304 307.5486233  +6.5983731     970.8437     1538.605     1189.662     77.88487      156.206     312.5675      1.752     4.48     830.0687     55.11703     138.3729        11     1.181     0.733 -16.60   0
       457    218.5380    243.4449 307.8382551  +6.5779035     2157.714     3661.502     3930.367     78.25842     156.3304     312.7852      1.869     4.97     831.8139     55.11703     276.5298        22     1.584     0.890 -34.16   0
       458    751.7325    241.8715 307.6168123  +6.5964423     1388.831     2443.938     2217.335     78.38255     156.5168     312.6608      1.780     5.82      830.938     55.11703     164.4653        18     1.603     0.773 -33.71   0
       459    452.6371    233.2190 307.7413546  +6.5899914     20424.86      34688.7     36648.91     78.00959      156.206     312.4742      1.831     4.45     828.1223     55.11703     2407.663        61     1.778     1.197 -33.62   2
       460    458.6902    227.7321 307.7390254  +6.5924597     1291.723     2131.719     2346.585     78.50647     156.5168     312.6608      1.822     5.29     827.8488     55.11703     185.3638        15     1.489     0.701 -22.33   3
       461    861.6620    242.4103 307.5711262  +6.5998960     1419.484     2332.095     2409.549     77.75996      156.206     312.5053      1.853     5.25     830.6772     55.11703     194.4743        16     1.327     0.815 -33.34   0
       462    778.6993    232.4494 307.6059267  +6.6012343     11995.44     19857.67     21360.46     78.38255     156.3926     312.8784      1.823     4.59     830.8569     55.11703     1478.625        49     1.799     1.094 -28.92   0
       463    313.2081    234.5353 307.7992304  +6.5847650     688.6811     1219.846     1122.077     77.88487     156.0815     312.5675      1.951     6.05     829.6277     55.11703     106.6517         9     1.282     0.802 -61.94   0
       464    716.8098    228.9698 307.6317547  +6.6005999     603.3607      947.886     680.0797     77.88487      156.206     312.5053      1.788     5.43     830.3472     55.11703     85.32306         7     1.119     0.744 -11.47   0
       465    141.1208    226.5064 307.8709876  +6.5822906     1898.756     3101.845     3217.677      78.1341     156.5789     312.7541      1.803     4.81     833.3385     55.11703     235.4877        22     1.518     0.910 -35.86   0
       466    115.3822    225.2906 307.8817205  +6.5819258     998.7374     1482.953     1864.832      78.1341     156.1437     312.5986      1.962     4.21      834.387     55.11703     132.6913        12     1.228     0.796 -33.19   0
       467    915.0854    222.7515 307.5495933  +6.6097969     1404.275       2235.1     2685.724     78.38255     156.3304     312.6919      1.649     4.81     829.3182     55.11703     176.9897        16     1.343     0.767 -31.37   0
       468    576.6782    219.0116 307.6903049  +6.6000172     4214.396     7052.398     7476.176     78.00959     156.0192     312.5675      1.780     4.39     827.8654     55.11703     509.4908        29     1.559     1.015 -40.64   0
       469    297.0848    219.9130 307.8064227  +6.5902596     983.5232     1658.682     1560.649      78.1341     156.5789     312.7541      1.730     5.31     829.4542     55.11703     165.2885        14     1.472     0.704 -22.86   0
       470    539.4219    218.8879 307.7057863  +6.5988192     1900.633     3338.569     3963.336     78.38255      156.206     312.5986      1.970     4.49     827.3898     55.11703     240.0876        25     1.526     1.049 -28.45   0
       471    381.0705    218.0380 307.7715974  +6.5938557     1309.552      2279.85     2126.907     78.25842     156.3926     312.7541      1.813     5.20     829.0385     55.11703     165.3801        20     1.522     0.882 -36.08   0
       472    883.7203    215.6606 307.5628620  +6.6116765     10172.35     16391.09     17698.86     78.50647     156.3926     312.6919      1.763     4.17     829.5368     55.11703     1264.167        42     1.671     1.061 -34.79   0
       473    937.4999    216.2079 307.5405014  +6.6132470      2560.68     3884.408     4063.089      78.1341     156.0192     312.5364      1.709     3.95     828.5515     55.11703     361.8426        24     1.431     0.958 -28.88   0
       474    311.2650    215.6893 307.8006750  +6.5924799     685.9613     1234.367     1395.717     78.25842     156.5789      312.723      2.386     5.14     829.4419     55.11703     95.33881         8     1.302     0.573 -71.20   0
       475    970.3155    213.5015 307.5269593  +6.6154601     9020.827     14357.67     15109.27     78.38255     156.8271     312.7541      1.716     4.41     828.1768     55.11703     1099.517        38     1.566     1.075 -34.94   0
       476    558.8920    215.6331 307.6978078  +6.6008157     779.0637     1231.343     1289.228     78.50647     156.2682      312.723      1.736     5.37     827.5565     55.11703      108.161         9     1.068     0.762  -7.41   0
       477    203.1903    215.5795 307.8455739  +6.5888907      633.197     1095.935     1644.125     78.00959     156.0815     312.5053      2.044     4.59     831.4901     55.11703     122.7935         8     1.091     0.549 -24.65   0
       478      9.8961    212.0750 307.9259869  +6.5838269     22836.01     39253.62     42954.35     78.00959     156.5789      312.723      1.863     4.28     835.9892     55.11703     2721.229        71     1.782     1.300 -35.28  16
       479    681.5959    213.5223 307.6469040  +6.6057983     2815.756     4444.356     5118.832     78.00959     155.8945     312.5053      1.795     4.37      829.486     55.11703     330.8042        23     1.392     0.969 -35.17   0
       480    256.2119    212.9324 307.8236379  +6.5917670     1011.174      1712.42      1776.42     77.88487     156.2682     312.5986      1.783     5.90     830.3076     55.11703     146.0254        13     1.516     0.766 -18.14   0
       481    490.2952    208.3773 307.7265495  +6.6015105      1789.05     2981.088     3498.215     78.38255      156.206     312.5364      1.814     5.11     827.0258     55.11703     220.1296        22     1.611     0.852 -28.66   0
       482    822.3967    205.0337 307.5886959  +6.6140139     1817.143      3064.42     2821.721     77.63484      156.206     312.4431      1.695     4.90     829.6438     55.11703     216.4678        19     1.485     0.831 -31.12   0
       483    502.2761    204.3720 307.7217076  +6.6035659      2292.96     3650.119     3818.966     78.25842     156.3926     312.6608      1.728     4.11     827.0074     55.11703     284.2256        19     1.400     0.857 -33.97   0
       484    874.9278    203.8581 307.5669118  +6.6162552     1798.108      3191.02     3869.112     78.50647     156.3926     312.6608      2.089     5.53     829.0032     55.11703     246.9221        21     1.584     0.847 -39.99   0
       485    733.9071    201.5914 307.6255740  +6.6124750     35734.72     59195.53     62486.41     78.00959     156.0815     312.5053      1.787     4.47     829.7031     55.11703      4294.67        62     1.694     1.165 -31.89   0
       486    336.9806    200.7816 307.7904965  +6.5994984     5406.748     11702.76     13162.84      78.1341     156.3304     312.6297      2.248     6.11     829.4191     55.11703     548.0796        48     2.026     1.275 -61.74   0
       487    967.6395    200.5803 307.5285051  +6.6207051     2584.133     4255.554     4605.693     78.00959      156.206     312.4431      1.757     4.74     827.4982     55.11703     341.8809        23     1.553     0.902 -38.80   0
       488    901.7809    198.7644 307.5559270  +6.6192553     6831.642     10785.98     11114.23     77.88487      156.206     312.4742      1.693     4.30     828.1573     55.11703       848.12        32     1.546     0.967 -34.56   0
       489   1005.9195    199.0620 307.5126528  +6.6226097     1664.151     2663.818     2472.574     78.50647     156.4547     312.6608      1.715     4.45     827.1778     55.11703     203.7832        19     1.375     0.925 -36.83   0
       490    445.2265    197.7927 307.7456297  +6.6043677     4428.169     7692.401     8252.324     77.88487      156.206     312.5053      1.850     4.51     827.4656     55.11703     554.0222        29     1.596     0.993 -30.97   0
       491    102.6578    189.0952 307.8882328  +6.5964393     4285.861     7340.494      7057.11     78.25842     156.3926     312.8162      1.813     4.20     833.3813     55.11703     489.4767        36     1.686     1.123 -38.12   0
       492    922.1467    188.4513 307.5478128  +6.6241933     701.0639     1222.938     1752.473     78.50647     156.2682      312.723      1.774     5.26     827.1004     55.11703     97.71576         9     1.317     0.594 -28.15   0
       493    273.0180    185.6872 307.8175783  +6.6035797     30051.71     51616.46     55573.06      78.1341     156.1437     312.5675      1.838     4.36     829.6989     55.11703     3448.957        67     1.750     1.240 -33.34   0
       494    248.4001    186.7651 307.8277686  +6.6023068     5837.371     10254.45     11165.17       77.384     156.1437     312.5053      1.876     4.30     830.0867     55.11703     717.5983        38     1.689     1.093 -36.42   0
       495    598.8745    187.5029 307.6821466  +6.6137690     767.0339     1370.568     1810.205      78.1341     156.5789      312.723      2.288     5.75     827.5583     55.11703     93.89655        11     1.209     0.771 -60.57   0
       496    397.0893    181.2137 307.7661873  +6.6095958     44762.44     76610.76     81809.43      78.1341      156.206     312.5675      1.832     4.37     828.0267     55.11703     5370.187        79     1.801     1.243 -35.96   0
       497    702.1044    185.3613 307.6393329  +6.6181108     698.0665     998.6193     1016.565     78.38255     156.2682     312.8162      1.428     4.39     828.8402     55.11703     132.0917         8     1.076     0.621 -32.31   0
       498    152.9622    182.4610 307.8675607  +6.6008721     3584.895     6009.938     6217.654     78.38255     156.4547     312.6919      1.804     4.59     831.0089     55.11703     397.2297        31     1.693     1.030 -31.63   0
       499    414.4041    181.6888 307.7589782  +6.6099811     1220.425     2234.457     2737.124     77.88487     156.0815     312.3809      1.999     5.24     827.5242     55.11703     147.3427        17     1.492     0.892 -23.92   0
       500    301.0690    178.9049 307.8061548  +6.6073227     16038.34     27866.45     29952.83     78.25842     156.5168      312.723      1.854     4.31     829.4507     55.11703     1913.186        53     1.725     1.189 -34.90   3
       501    308.0704    179.0361 307.8032418  +6.6075039     1818.648     3780.315      4989.83     78.25842     156.3926      312.723      2.504     8.03     829.4445     55.11703     244.3883        31     2.231     1.175 -50.01   3
       502    736.3521    177.4836 307.6253702  +6.6225093     30349.72     49274.42     52184.83     78.38255     156.3926      312.723      1.783     4.35      828.934     55.11703     3828.148        64     1.700     1.187 -33.41   0
       503    784.7758    177.8833 307.6052392  +6.6239645     1096.546       1812.9     2161.126     78.25842     156.1437     312.6297      1.965     4.59     828.4947     55.11703     155.3723        11     1.266     0.631 -33.36   0
       504     23.4749    177.7197 307.9215116  +6.5984671     597.8574     970.4747     1000.048      78.6302      156.641     312.7541      1.874     4.86     836.3052     55.11703      81.6842         6     1.120     0.597 -31.00   0
       505     53.1102    174.5885 307.9093070  +6.6007586     8288.639     14278.54     15237.22      78.1341     156.0815     312.5053      1.841     4.24     835.0103     55.11703      955.377        45     1.662     1.198 -32.08   0
       506     86.8882    172.8383 307.8953347  +6.6026193     1405.084     2498.464     2285.538     78.38255     156.3304      312.723      1.867     5.59     833.4219     55.11703     165.6432        19     1.507     0.864 -44.26   0
       507    994.4342    171.9856 307.5183339  +6.6334046     1124.949     1711.242     1694.815     78.00959     156.1437     312.5675      1.564     4.20     825.9069     55.11703     155.5088        13     1.183     0.775 -26.61   0
       508    684.4264    179.0578 307.6468895  +6.6201213     838.6655     1360.831     1142.562     78.00959     156.4547     312.5053      1.662     5.18     828.4803     55.11703     121.2728        11     1.367     0.662 -49.65   0
       509    569.5110    162.4568 307.6951903  +6.6231246     558.6674     694.2982     737.7112     78.38255     156.3304     312.8162      1.447     3.95     826.6869     55.11703     109.8681         5     1.134     0.394 -53.35   0
       510    995.8591    158.0282 307.5182108  +6.6392144      1807.29     3161.195     3638.595     78.00959     156.4547     312.5986      1.809     4.89     825.2941     55.11703     245.6537        23     1.555     1.036 -31.12   0
       511    578.9148    155.6700 307.6915125  +6.6262416     907.6531     1482.792     1374.057     78.50647      156.641      312.723      1.730     6.10     826.6302     55.11703     106.1562        14     1.347     0.776 -31.58   0
       512    271.8946    151.9803 307.8191855  +6.6174569        26828     46364.84     50521.21     78.25842      156.206     312.5053      1.875     4.33     829.6276     55.11703     3110.237        75     1.823     1.294 -34.74   0
       513     17.2509    150.4930 307.9250206  +6.6094968     3969.052     6958.605     7028.361     78.25842      156.206     312.8784      1.878     4.75     836.8634     55.11703      447.385        30     1.627     1.067 -43.26   2
       514    587.3491    153.7315 307.6880739  +6.6273246     1884.973     3022.053     3448.636     78.25842     156.2682     312.6297      1.708     4.79     826.6757     55.11703     250.8693        19     1.474     0.820 -26.14   0
       515    331.2999    153.8200 307.7944444  +6.6186945     933.3264     1672.826     1520.339     78.38255     156.2682     312.4742      1.945     5.47     829.5171     55.11703     148.2239        15     1.491     0.697 -22.65   0
       516    703.5934    148.6143 307.6399524  +6.6333311     7554.698     12185.91     12722.31     78.00959     156.1437     312.5364      1.752     4.32     827.4647     55.11703     950.7178        37     1.667     1.006 -33.51   0
       517    181.4198    149.7907 307.8568454  +6.6153170     889.5366     1363.519     1754.718     78.00959     156.1437     312.5364      1.972     5.89     829.7437     55.11703     133.8342        12     1.598     0.610 -46.54   0
       518    114.3152    145.5853 307.8848648  +6.6147937     4458.496     7514.233     7664.585     78.00959     156.1437     312.5675      1.830     4.29     831.2625     55.11703     528.0083        35     1.581     1.121 -42.10   0
       519    257.6909    146.3309 307.8252774  +6.6193114     567.0085     1070.219     1390.089     78.38255     156.5168     312.6608      2.188     6.34       829.71     55.11703     85.94958         8     1.415     0.797 -59.94   0
       520    642.0411    143.1002 307.6657105  +6.6335462     769.0927     1170.591     1635.427     78.38255     156.2682     312.9094      1.569     5.66     826.7552     55.11703     108.2072        11     1.217     0.743 -56.30   0
       521    576.0737    143.5087 307.6931031  +6.6311670     637.5183     1091.717     444.3823     78.38255     156.5168      312.723      1.908     5.00     826.2339     55.11703     88.02795         7     1.165     0.607 -38.90   0
       522    384.9948    141.7830 307.7725444  +6.6254676     3492.111     6642.226     7225.229     78.00959     156.0815     312.5364      1.979     4.44     828.0283     55.11703     381.2042        36     1.568     1.300 -29.51   0
       523    453.4017    142.7856 307.7440914  +6.6273506      1177.49     2021.885     1679.483     78.00959     156.0815     312.4742      1.738     6.40     826.1427     55.11703     140.0543        17     1.555     0.853 -17.73   0
       524    349.5347    140.6635 307.7873139  +6.6247386     2990.381     4779.047     4836.628     78.38255     156.3926     312.6919      1.707     4.42     829.6779     55.11703     398.0253        26     1.470     0.995 -30.99   0
       525    103.5924    140.6052 307.8894881  +6.6164884     1545.051     2509.264     2322.946     77.75996     156.1437     312.5364      1.794     4.81     831.4038     55.11703     195.4687        18     1.422     0.919 -72.66   0
       526    561.5497    140.4252 307.6992412  +6.6319530     646.2488      860.528     870.8157     78.00959     156.3926     312.5986      1.587     4.89     825.9078     55.11703      91.8205         8     1.092     0.620 -48.30   0
       527    931.3038    140.1962 307.5456307  +6.6444207     613.5396     914.6222     1196.155      78.1341     156.0815     312.3809      1.495     3.44     824.8371     55.11703     111.7593         5     0.978     0.350 -48.21   0
       528    665.5776    138.0680 307.6561017  +6.6364121     618.8976     1025.267     905.1776     78.00959     156.3304     312.6608      1.548     5.84      826.543     55.11703     97.92999         9     1.723     0.557 -40.27   0
       529    996.1561    134.9157 307.5188639  +6.6487660     1380.197      2409.82     2244.872     78.38255     156.3304     312.6608      1.648     4.71      824.776     55.11703     209.0608        17     1.473     0.837 -34.02   0
       530    721.9221    134.4584 307.6328145  +6.6397887     615.7731     948.4668     379.5876     78.50647     156.3926     312.6297      1.681     5.29     826.8091     55.11703     93.74445         7     1.302     0.608 -35.57   0
       531    201.3627    129.3996 307.8492511  +6.6244061     5019.689     8487.847     8671.915     77.50952      156.206     312.5053      1.811     4.28      829.702     55.11703      603.996        33     1.574     1.081 -41.20   0
       532     83.8884    129.3016 307.8980567  +6.6204909     1963.706     3258.998     3305.816     78.38255     156.8271     312.6919      1.838     4.56     832.0367     55.11703     233.1631        21     1.346     1.021 -33.01   0
       533    663.1672    128.3066 307.6574322  +6.6403611     5736.185     9711.853     10149.33     78.50647     156.2682     312.7541      1.793     4.42     826.0231     55.11703     733.8356        36     1.625     1.096 -36.14   0
       534    811.4432    128.1173 307.5958352  +6.6454016     917.9476     1530.258      1209.24     78.38255     156.3926     312.6608      1.646     5.99     825.6413     55.11703     118.2332        13     1.381     0.730 -45.48   0
       535    615.3409    125.6226 307.6773926  +6.6398670     8582.367     14396.54     15974.84     78.00959     156.3304     312.5675      1.840     4.56     826.2055     55.11703     1001.942        42     1.728     1.055 -35.88   3
       536    618.8359    117.1736 307.6762255  +6.6434721     47801.74      80384.5     85688.12     77.88487      156.206     312.4742      1.802     4.45      825.906     55.11703     6011.301        81     1.769     1.230 -34.02   2
       537    250.1952    126.1536 307.8290742  +6.6273890     730.8928     1031.561     784.9252     77.75996     156.1437     312.3809      1.578     5.07     829.8242     55.11703     106.6472         9     1.166     0.622 -38.84   0
       538     14.1254    124.5797 307.9271981  +6.6200888     889.9932     1559.619     1229.052     78.00959     156.2682     312.6297      1.835     5.91     836.9974     55.11703     123.2527        13     1.267     0.776 -39.89   0
       539    342.4050    121.2563 307.7909321  +6.6325108     3350.476     6080.726     7083.126     77.75996     156.2682      312.412      1.985     4.97     829.9507     55.11703     400.7237        36     1.932     1.097 -44.71   0
       540    524.1992    120.4653 307.7154322  +6.6389405     1470.493     2551.181     2933.091     77.63484     156.0815     312.4431      1.853     4.25     825.1138     55.11703     195.0571        18     1.366     0.923 -35.04   0
       541    989.0844    120.0903 307.5223001  +6.6546505     787.4813     1294.383     1338.517      78.1341     156.7031     312.8162      1.929     5.61     824.4272     55.11703     116.3898        10     1.382     0.642 -33.81   0
       542    297.9374    110.8623 307.8097575  +6.6353070     3131.331     5426.165     6158.821     78.38255     156.3926      312.723      1.866     4.64     830.0932     55.11703     363.0615        29     1.761     0.963 -35.36   0
       543    493.3990    108.3486 307.7286374  +6.6429095     517.5334     918.4636      799.913     77.75996     156.0192     312.2563      1.639     5.82     824.9965     55.11703     108.6166         6     1.540     0.618 -14.57   0
       544    697.8042    105.5538 307.6438086  +6.6509142      865.858     1564.012     2054.872     77.75996     156.1437     312.3809      2.135     4.94     824.9982     55.11703     140.3745        11     1.402     0.679 -43.88   0
       545      2.5939     93.0068 307.9330598  +6.6327337      9343.26      21801.3     32452.82     77.75996     141.0996     254.6765      3.442     7.83     837.3821     55.11703     1866.151       143     4.128     1.949 -85.90  24
       546    669.3958    104.3222 307.6556529  +6.6504713     1263.992     2212.691     2302.814     78.00959     155.8945     312.5053      1.888     5.06     824.6745     55.11703     172.1917        17     1.426     0.811 -29.04   0
       547    683.2144    101.0816 307.6500209  +6.6522719      2911.37     4664.675     4995.105     78.00959     156.1437     312.5053      1.703     4.36     824.5495     55.11703     376.7724        25     1.512     0.923 -32.76   0
       548    424.9993     92.1398 307.7576022  +6.6473051     3669.415     6148.731      6039.62     77.63484      156.206     312.3809      1.727     4.35     825.2929     55.11703     443.3862        30     1.535     1.065 -27.80   0
       549    879.4228     88.5749 307.5689219  +6.6639987     1966.049      3191.85     3582.409     77.88487     156.2682     312.6608      1.826     5.32     823.5189     55.11703     256.8594        18     1.417     0.862 -34.99   0
       550    897.4825     87.5124 307.5614541  +6.6650408     3627.959      5871.98     6246.875     78.13411     156.5789     312.7541      1.748     4.55     823.4803     55.11703     471.4269        25     1.447     1.011 -38.61   0
       551    577.4514     87.9498 307.6944051  +6.6541496      632.255     1060.638     1287.241     78.50647     156.2682     312.6297      1.741     4.55     824.6094     55.11703     90.07672         7     0.983     0.598 -37.24   0
       552    589.6858     86.1588 307.6893825  +6.6552991     1680.391     2893.208     3228.826     78.38255     156.3304     312.6919      1.904     4.66     824.7717     55.11703     204.7922        18     1.458     0.851 -30.41   0
       553    235.5454     85.4576 307.8365379  +6.6436964     670.9747      1272.24     1766.917     78.50647     156.4547      312.723      2.271     5.01     829.8647     55.11703     86.10443        10     1.347     0.528 -44.81   0
       554    388.3781     83.9769 307.7730928  +6.6494452     1789.738     3189.424     3656.987      78.1341      156.206     312.6608      1.880     4.84     827.4835     55.11703     243.1864        22     1.558     0.879 -33.28   0
       555    136.1586     80.8643 307.8779836  +6.6422473     2898.303      4966.81     5275.028     78.38255     156.3304     312.7852      1.781     4.62     829.2608     55.11703     335.9594        28     1.631     1.008 -42.84   0
       556     18.1698     78.6136 307.9270773  +6.6392006     11097.83     19133.36     21334.96     78.00959     156.1437     312.6297      1.873     4.30      834.606     55.11703     1312.033        49     1.782     1.139 -33.89   0
       557    284.4063     79.5618 307.8164381  +6.6477736     1272.587     2100.485     2414.069     77.50952     156.1437     312.4431      1.790     4.49     830.2342     55.11703     202.6021        13     1.281     0.736 -43.50   0
       558    557.2537     78.4959 307.7031157  +6.6573753     690.3447     1141.715     1051.585     78.25842     156.3926     312.9405      1.715     5.65     824.0579     55.11703     110.0944         8     1.062     0.846 -48.24   0
       559    545.0957     78.6025 307.7081634  +6.6569236     616.8633     986.0128     1077.232     78.00959     156.0815     312.3809      1.758     5.79     823.9054     55.11703     85.91254        10     1.386     0.680 -24.24   0
       560    752.7591     77.8441 307.6219096  +6.6641931     714.4644     1280.778     1678.928      78.1341     156.3926     312.5986      1.779     4.42     824.1125     55.11703     95.74261         7     1.086     0.513 -21.96   0
       561    765.1274     73.7452 307.6169089  +6.6662991     3011.003     5107.352     5463.331     78.25842     156.2682     312.6297      1.820     4.39     823.8431     55.11703     372.7407        27     1.526     1.016 -38.88   0
       562    886.7191     74.4837 307.5663644  +6.6700599     542.4091     616.9882     194.4677     78.25842      156.641     312.7541      1.328     4.50     823.0605     55.11703     95.79419         6     1.230     0.467 -44.25   0
       563    819.8950     73.2911 307.5941691  +6.6683185     5802.764     9383.871     9777.866     78.38255     156.8891     312.6919      1.713     4.44     823.3006     55.11703     732.2262        32     1.560     1.001 -37.33   0
       564    410.3904     74.2431 307.7642765  +6.6542028     965.1639     1579.641     1964.744     77.88487      156.206     312.4431      1.812     5.87     825.5027     55.11703     136.2269        12     1.505     0.645 -26.66   0
       565     90.4941     73.7894 307.8971944  +6.6436298     630.5432     1041.414     1015.853     78.00959     156.0192     312.4742      1.957     4.55     829.7275     55.11703     97.70068         6     0.997     0.591 -27.70   0
       566    527.4845     71.5416 307.7157187  +6.6592479     1088.572     1735.942     2307.007     78.38255     156.3926     312.7852      1.978     4.19     823.9008     55.11703     163.3046        11     1.171     0.735 -48.20   0
       567     58.4984     70.3192 307.9106045  +6.6439842     2825.501     5178.522     5542.254     78.25842     156.7651     312.7541      1.950     4.78     831.3903     55.11703     327.0645        32     1.712     1.097 -34.34   0
       568     42.5896     71.6651 307.9171681  +6.6428923     744.2092     1284.374     1190.991     77.88487      156.206     312.5675      1.427     3.40     832.3868     55.11703     114.2698         5     1.007     0.333 -67.60   0
       569    419.6960     70.1603 307.7605483  +6.6562008     837.5778     1288.553     1686.082     78.38255     156.2682     312.8473      1.690     5.76      824.783     55.11703     112.0164        12     1.234     0.851 -32.66   0
       570    582.6240     67.2057 307.6929560  +6.6628868     1158.513     1883.816     2013.541     77.88487     156.1437     312.5364      1.867     4.42     824.1078     55.11703     162.4024        15     1.251     0.949 -37.17   0
       571      1.8679     65.4635 307.9342959  +6.6440795     1808.684     2256.906     2952.625      74.3079     132.0602     243.9537      1.316     2.85     833.8534     55.11703     304.2075        13     0.957     0.842 -43.56  24
       572    400.5684     61.4503 307.7687896  +6.6591541     913.5396      1651.74      1020.98     78.25842     156.4547     312.6297      1.691     5.58     826.0064     55.11703     113.9216        13     1.357     0.776 -49.16   0
       573    759.6091     60.8918 307.6196345  +6.6714208     1720.819     2889.832     2918.404     78.00959     156.0815     312.4431      1.720     4.65     823.4688     55.11703     220.6774        18     1.552     0.794 -37.04   0
       574     73.0520     62.2235 307.9048328  +6.6478166     765.8958     1274.554     1645.176     77.88487     156.3926     312.5675      1.905     5.00     830.1763     55.11703     90.59241         8     1.057     0.668 -36.28   0
       575     96.8845     60.1638 307.8950015  +6.6494699     741.0204     1045.796     1138.412     78.38255     156.3926     312.6608      1.538     5.04     829.0236     55.11703     125.9397        10     1.312     0.549 -38.18   0
       576     86.1979     54.7510 307.8996248  +6.6513444     8302.217     14633.24     15633.59     77.75996     156.0192     312.2875      1.881     4.36     829.3441     55.11703     960.6719        45     1.727     1.161 -37.67   0
       577    415.3642     54.6715 307.7628714  +6.6624494      2426.13     4131.836     4434.205     78.25842     156.3926     312.6919      1.848     4.42     824.6135     55.11703     298.8157        26     1.464     1.084 -23.11   0
       578    629.0181     46.8663 307.6743661  +6.6728383     16640.67     27908.22     29433.62     78.00959     156.3304     312.5986      1.786     4.35     823.5551     55.11703     2062.471        52     1.688     1.136 -34.15   0
       579    252.8923     48.9362 307.8305673  +6.6593567     1371.818     2258.475     3189.478     78.38255     156.5789     312.7541      1.990     4.23     830.0084     55.11703     178.2608        16     1.257     0.846 -25.49   0
       580    658.3851     47.6728 307.6621373  +6.6734892     492.3071     677.1624     710.1295     77.88487     156.1437     312.5986      1.468     4.58     823.4456     55.11703     74.44635         6     1.202     0.496 -60.50   0
       581    937.6518     46.8078 307.5461328  +6.6831870      497.887      728.814       732.96     77.88487      156.206     312.3497      1.400     4.53     821.6995     55.11703     72.97296         5     1.157     0.505 -33.11   0
       582    528.7916     42.9675 307.7161402  +6.6710879     4740.081     8116.692     8291.235     77.88487     156.2682     312.5053      1.798     4.32     823.3358     55.11703     586.3588        33     1.634     1.027 -33.38   0
       583    247.1325     43.1239 307.8331571  +6.6615624     1802.064     2944.188     4698.998     78.50647     156.5168     312.6608      1.969     4.67     829.9669     55.11703     214.2416        19     1.453     0.855 -30.36   1
       584    434.3232     38.5443 307.7555394  +6.6697438     20651.86     34652.21     37167.45     78.38255     156.3926     312.6608      1.821     4.32     823.8433     55.11703     2476.479        60     1.716     1.214 -37.62   0
       585    615.2488     36.6090 307.6804330  +6.6766114     2868.569     4959.288     6456.018     77.88487      156.206     312.3809      2.135     6.52     823.2673     55.11703     355.4688        29     1.697     1.234 -67.02   2
       586    254.9683     38.8743 307.8300454  +6.6635803     8170.648     14147.33     16312.39     78.25842     156.3926     312.6919      1.921     4.35     830.0265     55.11703     930.8404        40     1.658     1.121 -35.54   0
       587    912.0361     38.6423 307.5570507  +6.6857024     1709.016      2990.75      2608.66      78.1341     156.3926     312.5675      1.820     5.06     821.9203     55.11703     202.9876        19     1.386     0.876 -37.32   0
       588    314.7071     39.1407 307.8052167  +6.6654791     932.2582     1677.339     2047.002     78.25842     156.3304     312.8162      1.931     5.54     830.2724     55.11703     142.0834        13     1.414     0.769 -32.79   0
       589     20.3398     38.4009 307.9275401  +6.6558741     2115.522     3794.639     3524.109     77.63484      156.206     312.3809      1.849     4.79     830.0321     55.11703     251.4134        23     1.557     0.932 -37.75   0
       590    242.7979     35.4212 307.8352187  +6.6645964     2865.121     4858.455     5605.442     78.00959     156.0815     312.4431      1.822     4.20     829.9415     55.11703     335.2476        28     1.568     1.059 -36.50   0
       591    295.7235     33.6043 307.8132912  +6.6671264     961.4223     1737.403     2276.806     78.00959     155.8945     312.5364      2.100     4.94     830.2724     55.11703     147.7123        13     1.295     0.928 -35.37   0
       592    932.5154     28.9670 307.5488668  +6.6903808     794.3307     1280.837     791.4495     78.38255      156.206     312.6608      1.795     6.24     821.2785     55.11703     106.2789        13     1.265     0.865 -37.24   0
       593    684.0447     28.2442 307.6521309  +6.6823693     1601.317     2625.379      2735.22     78.38255     156.3926     312.6608      1.785     5.37     822.9587     55.11703     199.5835        18     1.400     0.863 -39.05   0
       594    194.9483     23.8820 307.8554894  +6.6677498     833.9857     1000.656     861.0901     78.38255     156.3926      312.723      1.372     4.47     829.1317     55.11703     112.7368         8     0.905     0.626 -39.68   0
       595    250.1337     22.8624 307.8325960  +6.6700277     704.0503     1281.046      1605.67     78.38255     156.3926     312.6919      2.023     5.58     829.9965     55.11703     98.80212        10     1.321     0.664 -35.40   0
       596    950.1953   1017.2939 307.5083223  +6.2829462     5397.368     10121.68     10758.13      78.1341     156.0815     309.5046      2.008     4.48     850.1321     55.11703     574.1407        42     1.726     1.272 -38.59  16
       597    703.6234   1018.2030 307.6106611  +6.2743308     954.4689     1559.788     2393.582     78.00959     156.0815     303.5102      1.892     3.50     852.0385     55.11703     135.1008         9     0.960     0.677 -14.27  19
       598    516.5319     19.0462 307.7220416  +6.6805520     2466.357     4175.962     4094.196     78.38255     156.3304     312.6919      1.753     4.20     822.8691     55.11703     344.3339        24     1.533     0.967 -28.54   0
       599    709.8710   1015.5346 307.6081571  +6.2756414     2465.323     4383.832     6027.186     78.38255     156.4547     312.6919      2.229     6.24     851.9586     55.11703     308.2338        30     2.051     0.949 -21.66  18
       600    234.4498   1017.2670 307.8054718  +6.2589831     1308.814     2300.192       2051.7     78.25842     156.2682     309.8499      1.748     4.00     852.6019     55.11703     173.5735        15     1.246     0.810 -30.30  16
       601    433.3904   1016.1103 307.7229213  +6.2661410     844.4518     1297.074     892.0113      78.1341     156.0815     312.5053      1.707     5.33      854.577     55.11703       105.88        11     1.238     0.649 -33.62  16
       602    725.6266   1014.2925 307.6016576  +6.2766813     946.9728     1717.164     1407.569     78.50647     156.1437     312.5364      1.916     5.73     851.7634     55.11703     139.9082        13     1.522     0.698 -28.73  16
       603    356.4443   1012.7134 307.7549802  +6.2649610     1734.835     2811.058     3040.538     78.38255     156.2682     312.6919      1.848     4.69     854.5554     55.11703     208.4128        20     1.481     0.880 -37.65   0
       604    509.2397   1004.7026 307.6918167  +6.2733941     976.1521     1611.166     2099.216     78.38255     156.2682     312.9094      2.303     6.55     854.3834     55.11703     142.4006        13     1.384     0.885 -32.13   0
       605    743.4661   1002.5066 307.5946477  +6.2821437     7071.697     12232.43     13073.71     78.25842     156.5789     312.6919      1.873     4.25     851.5338     55.11703      753.772        43     1.718     1.201 -30.35   0
       606    538.9927   1002.8142 307.6795280  +6.2751710      3774.31     6798.944     7900.733     78.00959     156.1437     312.5364      1.963     4.55     854.3262     55.11703     451.3646        36     1.657     1.201 -48.60   0
       607    289.2833   1001.5505 307.7832391  +6.2673139     13354.72     23114.43      26080.8     78.38255     156.3926     312.7541      1.922     4.87     854.1401     55.11703     1527.128        55     2.045     1.114 -35.34   0
       608    804.3209   1001.9116 307.5694024  +6.2844241     1137.228     1960.734     1920.809      78.1341      156.641     312.8162      1.799     5.47     850.7455     55.11703     139.7943        13     1.207     0.777 -47.14   0
       609    413.4609   1001.9941 307.7316714  +6.2713000     867.2062     1583.109     1624.108     77.75996      156.206     312.4742      1.954     5.27     854.3987     55.11703     121.1935        10     1.284     0.659 -11.91   0
       610    904.8531    995.9063 307.5278654  +6.2902621     7361.502     13678.49     14235.72     78.25842     156.3304     312.9405      1.962     4.51     850.7722     55.11703     805.2766        47     1.798     1.257 -36.46   0
       611    260.4660    999.2726 307.7952795  +6.2672860     762.2348      1211.93     1628.175     78.50647     156.4547     312.6919      1.663     4.90     853.2689     55.11703     135.8877        10     1.438     0.474 -22.93   0
       612    536.1437    995.1452 307.6809693  +6.2782416     7550.373     12757.21      13625.8     78.50647     156.4547      312.723      1.793     4.25     854.2432     55.11703     899.7659        43     1.668     1.161 -35.07   0
       613   1000.2592    991.5058 307.4884021  +6.2952633     4003.997     7757.556     8516.465     78.25842     156.3926     312.8162      2.046     4.73     846.3735     55.11703     425.4766        41     1.773     1.324 -43.70   0
       614    878.4730    992.0375 307.5389479  +6.2909783     10440.86     19084.31     20897.85     78.25842     156.3926     312.7541      1.964     4.51     850.7213     55.11703     1149.653        54     1.790     1.305 -31.38   0
