#   1 NUMBER                 Running object number                                     
#   2 X_IMAGE                Object position along x                                    [pixel]
#   3 Y_IMAGE                Object position along y                                    [pixel]
#   4 ALPHA_J2000            Right ascension of barycenter (J2000)                      [deg]
#   5 DELTA_J2000            Declination of barycenter (J2000)                          [deg]
#   6 FLUX_APER              Flux vector within fixed circular aperture(s)              [count]
#   9 FLUXERR_APER           RMS error vector for aperture flux(es)                     [count]
#  12 FLUX_RADIUS            Fraction-of-light radii                                    [pixel]
#  13 FWHM_IMAGE             FWHM assuming a gaussian core                              [pixel]
#  14 BACKGROUND             Background at centroid position                            [count]
#  15 THRESHOLD              Detection threshold above background                       [count]
#  16 FLUX_MAX               Peak flux above background                                 [count]
#  17 ISOAREA_IMAGE          Isophotal area above Analysis threshold                    [pixel**2]
#  18 A_IMAGE                Profile RMS along major axis                               [pixel]
#  19 B_IMAGE                Profile RMS along minor axis                               [pixel]
#  20 THETA_IMAGE            Position angle (CCW/x)                                     [deg]
#  21 FLAGS                  Extraction flags                                          
         1    195.6406     24.4207 307.8649717  +6.6680209     9441.924      16221.7     17295.98     82.68684     165.5717     331.2423      1.844     4.21      963.136     58.42171     1223.596        45     1.666     1.224  47.91   0
         2    941.1223     22.0525 307.5552375  +6.6939852     4117.779     6544.072     7232.305     83.21352     165.7695     331.4401      1.674     4.41     931.6407     58.42171     573.6703        28     1.581     0.943  48.72   0
         3    477.9892     20.9002 307.7477535  +6.6789605     1629.586     2636.589     2551.855     82.81882     165.3737     331.2094      1.651     4.67     941.0562     58.42171     215.6018        17     1.386     0.868  37.13   0
         4    725.3553     14.8574 307.6451533  +6.6897432     6957.374     11384.13     11929.01      82.9506     165.7695      331.506      1.738     4.31     936.5588     58.42171     910.2587        35     1.644     1.016  51.95   0
         5    645.5839     14.1201 307.6783311  +6.6873770     3514.638      5855.22     5950.995     82.68684     165.5057     331.2753      1.761     4.04     938.0336     58.42171     458.2156        25     1.442     0.994  45.77   0
         6    445.7337     10.3920 307.7615131  +6.6822158     5466.837     9620.381     10356.85     82.55465     165.5057     331.2753      1.881     4.36     943.7227     58.42171     663.5051        36     1.622     1.160  49.49  16
         7    692.8957      9.2927 307.6588310  +6.6909539     805.0422     1217.412     1180.049     83.08216     166.3614     331.4071      1.443     4.35      937.071     58.42171     135.5042         8     1.373     0.436  38.88   0
         8    521.9380      9.0000 307.7298903  +6.6853469     514.6134     1062.448     1530.304     82.28963     165.5057     331.0774      2.325     3.92     940.4722     58.42171     83.36896         5     0.816     0.539  26.89   3
         9    521.3337      6.6595 307.7302204  +6.6862927     581.8458     1202.245     1482.305     83.21352     165.7036     320.6878      2.377     4.35     940.4138     58.42171     82.13416         6     1.223     0.441  35.04  18
        10    342.3469      5.3115 307.8046506  +6.6808413     11455.99      19476.8     20740.16     83.08216     165.6376     307.1537      1.843     4.09     956.4277     58.42171     1432.007        43     1.650     1.188  47.17  16
        11     46.7381      9.9723 307.9273391  +6.6689708     7414.872      12777.7     13010.43     82.68684     165.7695     331.4071      1.822     4.32      965.611     58.42171     895.2921        39     1.640     1.137  49.83  16
        12    115.9208      5.5784 307.8987383  +6.6731150     2245.205     3623.499     4125.756     82.68684     165.4397     309.9501      1.728     3.93      963.815     58.42171     286.6183        24     1.411     1.020  50.18  16
        13    408.4091      3.2939 307.7772643  +6.6838929     1945.507     3314.779     3427.395     82.68684     157.3877      280.541      1.860     4.77     947.6891     58.42171     211.1922        24     1.554     0.995  48.37  24
        14    107.4123      4.4701 307.9023116  +6.6732860     1291.786     1854.714     2110.979     82.55465     165.5057     296.6258      1.665     5.17     964.0099     58.42171     198.8817        13     1.355     0.663  34.33  16
        15    810.0361      3.4739 307.6103426  +6.6972747     762.0239     1195.314     1101.759      82.9506     159.5244     283.4844      1.732     4.24     935.9742     58.42171     121.1436         7     0.940     0.619  57.35  16
        16   1005.9824     18.5290 307.5283992  +6.6976045     1990.516     3079.461     2937.242     82.55465     165.7036     331.3742      1.645     4.17     925.2157     58.42171     275.3851        20     1.395     0.872  41.81   0
        17   1003.9354      1.3922 307.5298252  +6.7046102     476.4137     530.2761     284.4944      72.5559     132.4409     250.3396      1.321     4.40     923.4006     58.42171     91.58496         5     1.152     0.478   5.49  24
        18    670.2434      1.1851 307.6685183  +6.6935423       1581.3      2030.43     2326.043     69.63711     129.1001     246.6476      1.214     3.50     937.2789     58.42171     421.7693         9     1.333     0.388   0.01  24
        19    559.4474    998.5344 307.6809652  +6.2781262      8410.56     12581.31        14075      82.9506     165.7036     331.4731      1.670     4.11     980.9727     58.42171      1220.54        30     1.478     0.965  45.26   0
        20    726.2082    998.8274 307.6117046  +6.2835861      322.502     530.9847     611.0589     82.68684     165.5717     331.2753      1.836     4.86     976.9987     58.42171     73.33588         5     1.294     0.518 -62.85   0
        21   1022.9169    994.6517 307.4886272  +6.2952171     4475.883      5845.75     5352.099     80.68121     142.9888     262.1879      1.400     3.51     968.2015     58.42171     628.7297        22     1.315     0.838  73.78  24
        22    901.6262    995.4185 307.5389717  +6.2908541     12610.16     19354.79     20453.53     82.68684     165.5717     331.3412      1.680     3.85     971.3326     58.42171     1866.653        41     1.530     1.092  37.49   0
        23    614.3232    995.7712 307.6582700  +6.2811043     1161.629      2119.88     2576.676      82.9506     165.8353     331.4731      2.003     4.52     978.4539     58.42171     184.9515        13     1.317     0.839  61.45   0
        24     10.8629    996.7005 307.9088260  +6.2604599     616.5737     1080.624     1443.142     82.81882     165.8353      331.506      1.697     5.76     985.0375     58.42171     127.7926        10     1.410     0.702  53.69   0
        25    546.0588    994.4674 307.6866619  +6.2793565     4026.431     6733.117     7357.805     83.21352     165.7036     331.4401      1.842     4.44     981.3671     58.42171      591.524        29     1.632     1.037  32.00   0
        26     80.8588    993.2998 307.8798765  +6.2642198     933.5319      1513.48     1621.291     82.81882     165.7695     331.6048      1.730     4.83     985.1414     58.42171     162.1287        11     1.190     0.681  34.69   0
        27    810.9344    992.4567 307.5767338  +6.2890480     548.5543     917.2547     451.4592     83.21352     165.7036     331.4401      1.644     3.80     975.1726     58.42171     82.45959         6     1.238     0.335  50.38   0
        28    498.8561    990.7560 307.7063885  +6.2793070      2115.97     3337.983     3177.844     83.08216     165.7695     331.4731      1.697     4.30     982.1063     58.42171     289.0261        17     1.372     0.867  52.66   0
        29    655.1664    993.7663 307.6413765  +6.2832989     1424.226     2333.927     2434.353     82.55465     165.5057     331.1764      1.653     4.33     977.6666     58.42171     209.4929        15     1.352     0.786  40.86   0
        30    933.4362    982.9214 307.5261807  +6.2970747     45687.39     69984.46     73720.09      82.9506     165.8353     331.4401      1.666     3.89     970.4291     58.42171     6545.151        64     1.609     1.152  47.01   0
        31      6.2654    982.7089 307.9112085  +6.2660806     3062.502     4748.024      4797.45      82.9506      165.967      317.126      1.677     4.18     985.0383     58.42171     473.3734        24     1.510     0.901  44.71  16
        32    240.5518    981.0784 307.8139779  +6.2746342     1751.617     2664.875      2441.71     83.08216     165.8353     331.3742      1.590     4.25     984.5998     58.42171     276.6927        15     1.283     0.829  69.37   0
        33    128.6967    980.7682 307.8604360  +6.2710020     636.6267      838.269     618.9971     83.21352     165.5717     331.5389      1.671     6.68     985.1066     58.42171     99.82605         7     1.337     0.937  30.04   0
        34    639.4826    979.7021 307.6483626  +6.2885798      966.698      1470.82     1787.035     83.08216     166.1643      331.506      1.468     5.15     977.6151     58.42171     177.6265        12     1.493     0.604  36.35   0
        35    831.5610    976.7570 307.5686950  +6.2962180     2399.634     3779.587     3969.516     82.81882     165.7036     331.3083      1.715     4.54     973.2781     58.42171     329.7594        22     1.567     0.890  45.46   0
        36    779.5483    974.5235 307.5903701  +6.2954021     6860.958     10367.09     11157.08     83.08216     165.8353     331.4401      1.683     4.06     975.2501     58.42171     984.9838        29     1.467     0.985  50.49   0
        37    566.2587    973.8041 307.6789691  +6.2885630     881.0333     1352.187     1558.819     82.42225     165.6376     331.1764      1.798     5.75     979.7332     58.42171     130.5269        11     1.390     0.671  47.58   0
        38    248.8774    973.6865 307.8107703  +6.2779652     1446.382     2497.721     2496.768     83.08216     166.0986     331.5389      1.782     4.72     984.5703     58.42171     224.1117        17     1.367     0.953  53.68   0
        39    213.1514    972.7339 307.8256378  +6.2771580     853.7108     1310.302     994.8687      82.9506     165.6376     331.4401      1.534     4.86     984.6663     58.42171     138.4838         9     0.985     0.680  75.13   0
        40     73.9766    971.5703 307.8834692  +6.2729578     2878.445     4536.996     4223.575     82.55465     165.6376     331.2753      1.677     3.90     985.1116     58.42171      372.002        24     1.439     0.972  48.69   0
        41    967.7827    969.6634 307.5123615  +6.3036938     6943.293     10862.52     11746.95     82.55465     165.7036     331.2753      1.675     3.91     968.4609     58.42171     970.9231        34     1.535     1.034  47.42   0
        42    224.1547    966.0775 307.8212935  +6.2802755     673.4245     1067.203     705.6135      82.9506     165.8353     331.4401      1.694     4.90      984.578     58.42171     95.11877         6     1.046     0.650  80.01   0
        43    649.8357    964.0703 307.6445890  +6.2953792     872.9849     1166.192     1149.634      82.9506     165.7695     331.4731      1.428     5.51     976.9549     58.42171     119.9187        10     1.293     0.662  39.44   0
        44    941.7316    961.3389 307.5234595  +6.3062611     2064.466      3188.06     3061.903     83.21352     165.7036     331.4401      1.643     4.11     969.2659     58.42171     318.7695        19     1.351     0.905  29.97   0
        45    274.5917    957.6033 307.8006353  +6.2854681     4395.142     6936.814     7139.283     82.42225     165.4397     331.3083      1.719     4.31     984.4706     58.42171     657.2622        30     1.641     0.958  49.23   0
        46    800.9133    957.7123 307.5820622  +6.3030559     1547.454     2532.993      2806.47     82.81882     166.0328     331.5389      1.711     4.38     973.6616     58.42171     207.1765        16     1.298     0.842  52.49   0
        47    662.2347    957.2577 307.6396690  +6.2986064     4632.703     7092.241     7281.385      82.9506     165.7695     331.4731      1.648     4.19     976.4585     58.42171     663.9306        23     1.450     0.904  47.68   0
        48   1011.7720    957.1747 307.4945115  +6.3103165     668.8678     1209.221     1760.766     82.55465     165.5717     331.3083      2.456     5.95     965.4786     58.42171     94.59717         7     1.158     0.861 -45.49   0
        49    484.4359    955.8097 307.7135541  +6.2932495     1102.493     1697.403     1456.545     82.55465     165.5057     331.2094      1.694     5.44     981.7308     58.42171     152.8807        12     1.213     0.877  42.59   0
        50     43.1373    954.8982 307.8968390  +6.2788018     2209.154     3297.191     3211.525     82.81882     165.9012      331.506      1.553     4.19     985.0775     58.42171     306.5883        19     1.367     0.883  65.55   0
        51    894.2855    953.9271 307.5434124  +6.3077371     957.7643     1199.112     1135.653     83.21352     166.0986     331.4731      1.350     4.36     970.5494     58.42171     141.5199         9     1.061     0.692  24.57   0
        52    986.2987    951.7480 307.5052725  +6.3117071     654.9349     1030.447     1051.438      82.9506     165.7695     331.6707      1.678     3.44     966.5066     58.42171      102.921         5     1.133     0.302  54.49   0
        53    965.3081    950.4986 307.5140318  +6.3115227     671.1134     1049.925     869.1965     83.08216     166.2957     331.4071      1.696     5.78     967.5566     58.42171     89.36951         8     1.259     0.747  21.02   2
        54    586.8005    949.8918 307.6712434  +6.2991220     1701.963     2593.102      2282.65     82.28963     165.2415     331.1104      1.577     4.44     978.2918     58.42171     262.1164        18     1.491     0.830  41.74   0
        55   1017.8837    949.3883 307.4922343  +6.3137346     732.4039     1551.442     2148.842     82.68684     165.5717     324.1768      2.512     7.11     964.4975     58.42171     132.1498        10     1.657     0.856  81.04  16
        56    625.9631    946.0469 307.6551091  +6.3020203     1263.884     1982.689      1669.45     82.81882     165.7695     331.3412      1.621     4.22     977.1447     58.42171     177.1838        15     1.281     0.857  48.57   0
        57     74.9291    946.5670 307.8839194  +6.2833109     807.8349     1432.906     1550.188      82.9506     165.7695     331.4401      2.437     6.71     985.0887     58.42171     170.6263        13     1.916     0.815   8.96   0
        58    306.1553    944.0285 307.7879862  +6.2921316      1386.41     2460.543     2765.959     82.68684     165.8353     331.3412      1.803     4.46     984.1592     58.42171     212.6414        15     1.385     0.768  46.02   0
        59    310.0801    950.5954 307.7861348  +6.2895527     844.1315     1275.555      1473.08     82.68684     165.3076     331.1764      1.544     4.10     984.1775     58.42171     123.6972         9     1.010     0.705  82.93   0
        60    772.5430    939.9335 307.5944413  +6.3094470     827.3799     1212.385     1483.324     83.21352     165.7036     331.4071      1.440     5.52     973.8253     58.42171     152.3528        11     1.510     0.624  40.29   0
        61    910.4166    936.5176 307.5372972  +6.3154624     7531.073     11245.37     11828.61     82.68684     165.4397     331.3412      1.650     4.06      969.723     58.42171     1073.162        34     1.557     0.987  49.47   0
        62    119.6168    935.3057 307.8657435  +6.2894630     500.2932      613.489     -39.5714     82.81882     165.5717     331.2753      1.504     4.93     984.9391     58.42171       72.172         6     1.183     0.581  63.90   0
        63    446.2606    933.8162 307.7301485  +6.3010486     2066.299     3101.071     2584.041     82.55465     165.7036     331.1764      1.635     4.19     981.9564     58.42171     299.9468        18     1.335     0.857  47.06   0
        64    348.0211    932.0593 307.7710044  +6.2984780     9453.524      15016.4     15661.52     82.68684     165.7036     331.2753      1.666     3.92     983.4245     58.42171     1269.318        38     1.552     1.091  48.38   0
        65    268.1716    931.0436 307.8041980  +6.2962161     6912.866     10881.42     11101.49     82.68684     165.8353     331.3412      1.658     4.00     984.3617     58.42171     994.8068        34     1.531     1.042  47.46   0
        66    596.3035    925.5676 307.6681155  +6.3094813     1327.259     1821.796     1799.355     83.21352     165.6376     331.5389      1.401     3.83     977.4482     58.42171     199.4199        12     1.128     0.732  50.75   0
        67    926.1308    921.7166 307.5312675  +6.3220969     1170.078     1788.862     1858.469     83.34467     166.0328     331.4731      1.639     4.61     968.6579     58.42171     168.2471        13     1.223     0.784  64.67   0
        68    230.2177    921.1923 307.8202918  +6.2990074     672.0609     827.9103     1068.424     82.68684     165.5057     331.2753      1.597     6.19     984.4418     58.42171     87.05969        10     1.448     0.744  43.75   0
        69    158.8651    921.9041 307.8498982  +6.2963150     653.6111      930.166     1061.041     83.08216     165.9012     331.4731      1.643     5.88     984.5839     58.42171     94.48804         7     1.427     0.682  43.91   0
        70    881.9700    919.9592 307.5496668  +6.3213482     794.2999     1283.644     1097.263     82.55465     165.6376     331.3083      1.693     5.69     970.0697     58.42171     112.4462        10     1.503     0.606  64.09   0
        71    424.7233    919.6911 307.7395687  +6.3061571     605.0187     697.5522      809.361      82.9506     166.0328     331.4401      1.462     4.83     982.1371     58.42171     108.9115         5     1.055     0.626  57.72   0
        72    993.5649    917.8266 307.5033919  +6.3259526     738.8546     1331.227     1783.733     82.42225     165.5717     331.2094      2.009     5.55     964.4667     58.42171     148.0698         8     1.608     0.539  50.71   0
        73    855.3519    915.4880 307.5608716  +6.3223051     685.0524     965.4614     1365.857     83.08216     165.6376      331.506      1.899     3.52      970.705     58.42171     107.4022         5     1.130     0.316  70.71   0
        74    762.6899    914.7701 307.5993787  +6.3195052     1602.304     2425.696     2592.362     83.21352     165.5057     331.4071      1.651     4.78     973.2562     58.42171     239.8823        16     1.487     0.704  45.85   0
        75    586.3326    914.8065 307.6726185  +6.3135896     642.5034     1051.502      1037.54     82.55465     165.5057     331.2423      1.979     3.41     977.2916     58.42171     99.57208         5     1.189     0.283  34.44   0
        76    994.2165    910.7198 307.5033595  +6.3289081      1382.41     2143.708     2760.466     82.68684     165.5057     331.2753      1.744     5.30      964.462     58.42171     189.2694        16     1.483     0.758  42.24   0
        77    627.0969    911.4910 307.6558009  +6.3163231     761.4245     1152.202     1193.237     83.08216     166.2957     331.4401      1.679     4.95     976.1038     58.42171     152.8062         9     1.620     0.429  37.19   0
        78    547.7551    910.5947 307.6887814  +6.3140361     1188.235     1931.711     2513.672     82.42225     165.4397     331.0774      1.799     5.84     977.9623     58.42171     176.9717        15     1.532     0.710  40.56   0
        79     13.4032    911.7070 307.9106478  +6.2956293      936.336     1439.395     1910.139     82.68684     165.4397     331.1434      1.769     5.04     984.9482     58.42171     166.1823        12     1.381     0.760  40.46   0
        80    638.1097    910.7688 307.6512516  +6.3169898     622.5327      856.246     398.6832     83.21352     165.5717     331.4071      1.454     3.50     975.7493     58.42171     108.7463         5     1.057     0.334  43.53   0
        81    681.0983    908.0613 307.6334895  +6.3195460     2562.936     4113.197      4045.41     82.81882     165.7695     331.5389      1.655     4.25     974.4387     58.42171      354.981        22     1.502     0.860  37.63   0
        82     77.6406    904.2651 307.8842243  +6.3008638     2870.932     4688.373     5018.477     83.08216     165.7036     331.5719      1.795     3.77     984.6456     58.42171     443.5969        22     1.398     0.903  52.68   0
        83    841.4835    904.2268 307.5670093  +6.3264906      737.062     1229.144     1005.299      82.9506     165.5057     331.3742      1.539     4.10      970.711     58.42171     117.0818         7     1.019     0.472  79.59   0
        84    958.8229    902.9564 307.5183193  +6.3309323     709.6091     998.9225     1397.318     82.55465     165.6376     331.2423      1.485     4.10     966.1003     58.42171     117.8856         6     1.343     0.358  84.16   0
        85    221.2391    903.0950 307.8246317  +6.3061761     2036.031     3083.673     3042.034     83.21352     165.6376     331.5719      1.616     4.65     984.4033     58.42171     317.1176        19     1.499     0.856  38.49   0
        86     95.1406    903.4301 307.8769854  +6.3017974     1853.239     2947.229     3302.503     82.81882     165.7695     331.4071      1.695     4.68      984.562     58.42171     228.6886        18     1.507     0.781  33.91   0
        87    360.4034    899.3531 307.7669656  +6.3123945     876.9976     1246.663     1479.687     82.42225     165.5057     331.0774      1.597     5.05     983.1292     58.42171     129.2505        10     1.329     0.542  45.50   0
        88    255.4389    899.7236 307.8105431  +6.3087170     788.2541      1233.88     366.7121      82.9506     165.8353     331.4731      1.650     4.63     984.2812     58.42171     121.6799         8     1.177     0.517  25.07   0
        89    813.1756    897.9705 307.5789760  +6.3281275      700.138     989.3603     1091.403     82.55465     165.6376     331.2753      1.754     6.03     971.1261     58.42171     106.6393         9     1.460     0.701  53.12   0
        90    675.7068    897.1648 307.6360950  +6.3238638     7078.057     10875.61     11482.62     83.21352     165.6376     331.5389      1.632     4.05     974.0587     58.42171      1056.94        31     1.497     0.995  40.02   0
        91     35.7503    895.4180 307.9019192  +6.3031056     1292.522     1854.339     1926.672     82.55465     165.8353     331.2094      1.543     4.44     984.7073     58.42171     179.8851        15     1.207     0.916  59.81   0
        92     48.8887    893.9876 307.8965117  +6.3041384     1201.717     1798.555     2037.878     82.81882     165.5057     331.3412      1.551     4.05      984.628     58.42171     165.4955        11     1.163     0.650  65.22   0
        93    913.4886    893.3449 307.5374698  +6.3333871     2976.192     4351.724     4611.101     83.08216     165.6376     331.6048      1.617     4.11     967.7175     58.42171     445.8683        19     1.371     0.845  48.67   0
        94    788.5152    894.1698 307.5893454  +6.3288724     555.5795     579.3658      1167.18     83.08216     165.5717     331.3083      1.380     4.13     971.6332     58.42171     90.85315         6     1.056     0.462  28.83   0
        95    358.7724    890.3115 307.7679480  +6.3160722     16125.58     25273.54     26772.33     83.21352     165.5057     331.3412      1.699     3.90     983.1291     58.42171     2320.613        43     1.562     1.090  45.95   0
        96     93.3599    891.2557 307.8781367  +6.3067628     1376.104     2158.366     2723.552     83.08216     165.8353     331.4731      1.703     4.92     984.3382     58.42171      221.511        15     1.286     0.895  48.14   0
        97    229.6000    889.6854 307.8216125  +6.3119925     1196.093      1907.62     1663.517     82.28963     165.2415     331.0774      1.764     4.71     984.3445     58.42171     205.9033        13     1.365     0.670  48.27   0
        98    687.4149    882.2486 307.6317342  +6.3304130     551.1561     730.7265     921.8082     82.42225     165.7036     331.1434      1.370     4.28     973.2798     58.42171     117.3228         5     1.165     0.449 -78.17   3
        99    689.8317    877.3541 307.6308950  +6.3325143      866.506     1253.951     1665.875     82.81882     165.7695     331.3412      1.479     5.44     973.0069     58.42171     107.7667        10     1.241     0.672  69.02   2
       100    436.5070    881.4137 307.7359653  +6.3223532     965.4724      1481.16     1410.998     82.81882     165.5057     331.2423      1.692     4.79     981.2944     58.42171     161.5913        11     1.341     0.596  38.34   0
       101    121.9814    881.0101 307.8665974  +6.3119551      1701.52      2574.25     2905.057     82.68684     165.4397     331.3083      1.561     4.33      984.145     58.42171     229.9738        18     1.301     0.993  67.80   0
       102    517.1955    877.7098 307.7025802  +6.3265872     728.1443      1225.26     1743.591     82.55465     165.4397     331.1764      1.917     3.96     978.3066     58.42171     142.4196         8     1.145     0.565  33.60   0
       103    903.8205    875.0371 307.5420994  +6.3406220     2010.472     3263.691     3413.008     82.68684     165.5057     331.1764      1.699     4.69     967.3684     58.42171     266.8198        18     1.496     0.860  55.92   0
       104    837.7683    874.1703 307.5695614  +6.3387741     3102.219     4893.736     5420.593     82.55465     165.5057     331.1764      1.604     3.93     970.1447     58.42171     426.3009        21     1.347     0.987  47.16   0
       105    105.5306    874.5534 307.8736474  +6.3140669     2419.944      3525.27     3665.663     83.08216     165.7036     331.4401      1.611     3.99     984.0162     58.42171     346.9666        20     1.381     0.891  56.57   0
       106    874.4460    874.7058 307.5543104  +6.3397780     2002.479     3002.089     2658.541      82.9506     165.7036     331.5719      1.631     4.84     969.0529     58.42171     288.0681        16     1.404     0.785  36.06   0
       107    352.6372    872.4850 307.7710973  +6.3232249     612.0456     771.3104     606.9772     83.08216     165.7695     331.4401      1.359     3.84     983.2195     58.42171     112.8802         5     1.034     0.409  74.59   0
       108    573.8265    865.5533 307.6794703  +6.3335026     332148.2     514988.2     538271.1     82.68684     165.8353     331.3412      1.681     4.07     976.0797     58.42171     48287.18       162     1.693     1.280  47.45   0
       109    661.4827    868.5701 307.6429641  +6.3351919     1260.435     1900.866     1909.021      82.9506     165.5717     331.4071      1.595     4.99     973.4577     58.42171     205.7094        13     1.272     0.758  60.52   0
       110    418.0603    868.1179 307.7440745  +6.3272229     7514.652     11927.21     11997.78     83.21352     165.7695     331.4731      1.670     3.98     981.7995     58.42171     1011.935        31     1.514     1.011  46.65   0
       111    361.2579    866.5482 307.7677174  +6.3259650     12359.17     19418.29     20146.71     83.08216     165.7695     331.4401      1.717     4.02     983.0399     58.42171     1783.846        47     1.564     1.191  46.91   0
       112    912.1293    861.7327 307.5390950  +6.3463916     5300.454     8531.829     10024.99     83.08216     165.9012     331.4071      1.776     4.41     966.3896     58.42171      745.421        33     1.615     0.985  48.40   0
       113    679.7042    862.7873 307.6355909  +6.3381887     3472.712     5460.971     5742.086     82.81882     165.5057     331.2423      1.696     4.40     972.6727     58.42171     499.1296        26     1.522     0.963  45.55   0
       114    751.4061    859.1862 307.6059328  +6.3420735     870.3574     1258.269     1431.049     82.68684     165.5717     331.2753      1.451     4.32     971.1515     58.42171     149.5314         9     1.076     0.763  42.14   0
       115    654.4232    856.9630 307.6462864  +6.3397471      3497.13      5338.16     5967.938     82.68684     165.5057     331.2094      1.658     3.74     973.2885     58.42171     537.8697        23     1.384     0.920  45.71   0
       116    842.9155    856.1928 307.5680273  +6.3463673     1525.407     2148.725     1791.517     82.68684     165.4397     331.2753      1.444     5.32     969.5274     58.42171     217.5173        15     1.494     0.682  45.45   0
       117    644.5872    855.3209 307.6504268  +6.3400957     1079.315     1797.213     2227.026     82.68684     165.4397     331.2094      1.867     6.57     973.5183     58.42171     148.5448        15     1.609     0.811  52.57   2
       118    647.1983    851.2719 307.6494785  +6.3418546     2105.258     3252.924     4010.691     82.55465     165.3076     331.2753      1.756     4.58     973.3178     58.42171     362.5334        20     1.632     0.892  58.63   3
       119    969.9706    854.8357 307.5153031  +6.3511690     810.4319     1250.832     1566.052     82.68684     165.5057     331.2423      1.527     5.42     964.6015     58.42171     136.3561         9     1.258     0.660  41.89   0
       120    931.0497    849.5262 307.5316463  +6.3520621     3332.776     5033.804     5307.928     83.08216     165.8353     331.4731      1.603     4.05     965.1747     58.42171     469.6104        22     1.447     0.865  50.39   0
       121    340.9705    850.1621 307.7766956  +6.3320481     1064.775     1353.468     1083.358     82.68684     165.5057     331.3083      1.423     5.60     983.0552     58.42171     135.8007        11     1.165     0.758  57.87   0
       122    389.1380    845.5137 307.7568483  +6.3355835     2617.345     4093.729     4392.938     83.21352      165.967     331.4401      1.759     4.39     981.8698     58.42171     366.5323        24     1.537     0.921  44.38   0
       123    525.3743    835.2784 307.7006126  +6.3443769      3111.05     4580.002     4932.365     82.81882     165.7036     331.4071      1.574     4.11     976.7012     58.42171     449.3723        23     1.416     0.920  41.87   0
       124    870.2218    834.2834 307.5574217  +6.3563237     1059.451     1645.482     1522.198     82.81882     165.4397     331.3083      1.631     5.05     967.9132     58.42171      188.168        12     1.384     0.700  46.97   0
       125    590.4745    833.1531 307.6736468  +6.3474351     841.0306     1241.587     1053.017      82.9506     165.8353     331.4401      1.521     4.59     974.4646     58.42171     154.1745         8     1.365     0.439  41.40   0
       126    572.2014    831.4240 307.6812943  +6.3475369     6116.425     9544.461     10069.21     82.68684     165.4397     331.2094      1.677     4.03      974.998     58.42171     837.1279        33     1.577     1.021  44.60   0
       127    283.2728    831.4366 307.8012896  +6.3378404     787.3806     1190.746     1661.933      82.9506     165.7695     331.4731      1.632     4.95     983.6031     58.42171      99.3114         9     0.952     0.728  73.67   0
       128    908.0625    829.6082 307.5418619  +6.3595172     1378.854     1880.611     1743.072     82.42224     165.5057     331.2423      1.585     5.03      965.946     58.42171     203.4684        14     1.333     0.731  47.18   0
       129    578.9620    830.5378 307.6785162  +6.3481291     1373.346     2138.914     2513.568     83.08216     165.8353     331.4401      1.684     5.42     974.7626     58.42171     188.7238        12     1.234     0.695  48.65   0
       130    489.9314    830.0056 307.7155104  +6.3453657     1615.868     2248.495     2242.733     82.55465     165.3737     331.2753      1.508     3.69     977.7177     58.42171     252.8064        16     1.237     0.821  55.07   0
       131    131.7978    829.5085 307.8642622  +6.3335446      1183.86     1915.977     1836.297     82.55465     165.4397     331.1764      1.731     4.34      983.501     58.42171     178.1169        15     1.261     0.899  41.18   0
       132    707.9267    828.1029 307.6250358  +6.3534508     638.8943     987.3887     1159.215     82.68684      165.967     331.4401      1.556     4.64     971.3864     58.42171     110.2236         7     1.530     0.399  39.92   0
       133    542.9099    825.2645 307.6936671  +6.3490983     19290.72     30398.38     31208.63      82.9506      165.967     331.4731      1.659     3.98     975.8055     58.42171     2511.025        44     1.540     1.101  45.90   0
       134    383.9413    826.4786 307.7596485  +6.3432668      675.151     1000.481      278.468     83.21352     165.7695     331.3742      1.500     3.29     981.4359     58.42171     135.4358         6     1.066     0.339  50.41   0
       135    956.4496    823.4233 307.5219723  +6.3636853     3948.672     5883.628     5616.222     82.68684     165.8353     331.3412      1.613     3.92     964.2783     58.42171     614.7237        26     1.469     0.941  37.56   0
       136    429.2211    821.4341 307.7410133  +6.3468683     498.4535     847.4635     878.2589     82.55465     165.5717     331.2094      1.725     4.92     979.7927     58.42171     79.17798         5     1.096     0.625  62.71   0
       137     76.8085    821.1779 307.8873807  +6.3351330     614.3587     791.3687     541.8148     82.68684     165.5717     331.2423      1.400     3.12     983.5496     58.42171     125.8053         5     0.923     0.340  43.07   0
       138     53.4672    815.9544 307.8972509  +6.3365035     1481.924      2134.45     2193.798     83.08216     165.7036     331.4731      1.717     4.52     983.7411     58.42171     201.1243        16     1.245     0.915  38.96   0
       139    335.5800    813.8989 307.7801580  +6.3468364     3131.876     4989.656     5573.053     83.08216     165.6376     331.2094      1.809     3.95     982.4333     58.42171     427.6216        25     1.439     0.988  41.26   0
       140    801.1035    809.7832 307.5869519  +6.3641286     55735.28     84516.97     87591.82      82.9506     165.5717     331.2094      1.619     4.02     969.2101     58.42171     7866.368        63     1.575     1.096  45.42   0
       141     35.4008    811.9612 307.9048889  +6.3375436     2184.497      3665.41     3779.178     82.15679     165.5717     331.1434      1.741     3.91     983.8837     58.42171     389.2174        20     1.337     0.994  49.21   0
       142    258.1386    807.4030 307.8125396  +6.3469170     5084.476     8602.145     11700.15     82.42225     165.5717     331.1434      2.253     4.45     983.4347     58.42171     746.2346        41     1.955     1.180  33.49   0
       143    444.6873    808.0870 307.7350398  +6.3528967     677.2683     1111.107     1344.355     82.81882     166.1643     331.5389      1.589     3.43     978.6713     58.42171      102.976         5     0.984     0.346  45.70   0
       144    926.3776    805.0345 307.5350794  +6.3702728     8861.911     13470.17     14233.25     82.55465     165.5057     331.1764      1.634     4.07     964.7136     58.42171     1385.754        33     1.561     0.967  47.44   0
       145    729.2535    804.2804 307.6169789  +6.3639982     21562.61     33932.78     36369.14     83.08216     165.7695      331.506      1.688     4.14     970.8903     58.42171     3157.572        44     1.612     1.051  51.89   3
       146    723.0751    800.8892 307.6196590  +6.3651915     87059.29     134815.9     141893.4     83.08216     166.0986     331.5389      1.651     4.08     970.8726     58.42171      12071.6        79     1.658     1.137  48.73   3
       147    367.9257    801.7544 307.7671341  +6.3529354     19795.41     31665.35     32886.93      82.9506     165.8353     331.4731      1.709     4.06     981.3142     58.42171     2616.069        49     1.589     1.137  46.70   0
       148    429.8338    799.5986 307.7414950  +6.3559025     21290.85     34485.08     36124.74     82.15679     165.5717     331.2094      1.721     4.03     979.0025     58.42171     3066.865        52     1.627     1.144  46.54   0
       149    417.1421    801.7928 307.7466922  +6.3545710     1466.647     2213.683     1884.193     82.42224     165.6376     331.1434      1.544     3.71     979.6204     58.42171     218.8704        14     1.164     0.817  28.86   0
       150    257.9284    786.1523 307.8133446  +6.3556820     776184.6      1842624      2035514     83.08216     165.8353     331.4731      2.320    10.48     982.5177     58.42171     63719.38       572     2.444     2.026  59.38   4
       151    966.8870    798.5256 307.5184722  +6.3743116     2027.672     3209.438     3313.436     83.08216     166.0986      331.506      1.708     4.56     963.5458     58.42171     311.1775        18     1.472     0.805  54.90   0
       152    923.3207    796.4767 307.5366362  +6.3737035     6788.588     9916.656     10431.07     83.34467     166.0328     331.5719      1.625     4.20      964.621     58.42171     994.3173        27     1.497     0.892  45.40   0
       153    663.8525    795.4933 307.6444379  +6.3654376     6422.661     9840.893      10415.6      82.9506     165.7036     331.6707      1.646     3.94     971.1072     58.42171     955.7392        32     1.508     1.013  49.14   0
       154    895.7504    797.2032 307.5480632  +6.3724833     860.5264     1192.525     787.8356     82.42225     165.4397     331.0114      1.433     5.41     965.6502     58.42171     122.6213         9     1.077     0.766   8.18   0
       155    452.5330    793.4841 307.7322736  +6.3591878     1684.919     2346.104     2418.893     83.34467     166.0328     331.4731      1.563     4.38     977.7665     58.42171     208.7947        16     1.167     0.956  53.89   0
       156    177.8160    792.5455 307.8464004  +6.3503502     542.4482     899.9936     597.2808     82.42225     165.7695     331.1434      1.527     3.47     982.9399     58.42171     105.5135         5     0.832     0.417  22.18   0
       157    616.2451    787.1274 307.6644926  +6.3672976     942.4749     1547.324     1831.448      82.9506     165.8353     331.4731      1.791     3.42     972.0663     58.42171     152.5347        10     1.098     0.660  64.46   2
       158    168.1601    786.2635 307.8506229  +6.3526186     1024.115     1680.215      1712.62     83.08216     165.7036     331.4731      1.738     7.38       982.67     58.42171     136.2491        16     1.544     1.047  26.57   0
       159    143.8098    786.2456 307.8607364  +6.3518070      1086.55     1680.808     1625.776     82.55465     165.6376     331.1104      1.719     6.53     982.6685     58.42171     152.9018        14     1.667     0.718  43.94   0
       160    891.3483    786.8805 307.5502380  +6.3765976      593.179     1094.698     669.9051     83.08216     165.7695     331.4401      1.716     4.66     965.5189     58.42171      88.2619         6     0.940     0.656  62.05   0
       161    698.8962    785.6668 307.6302134  +6.3706666     2432.129     3705.782     3840.203     83.08216     165.8353     331.4731      1.621     3.90     970.4863     58.42171     344.4946        19     1.371     0.853  53.46   0
       162    432.7434    782.2748 307.7408707  +6.3631513     51401.77     82513.95     86330.59      82.9506     165.7036     331.3742      1.727     4.01     978.1427     58.42171     6974.312        71     1.638     1.218  44.91   0
       163    975.6993    784.1587 307.5152938  +6.3805364     699.8835     1115.182     1434.664     83.08216     165.6376     331.6707      1.880     5.00     962.6014     58.42171     114.0971         7     1.005     0.705  70.07   0
       164    550.4932    781.3215 307.6919973  +6.3674921     6766.737     10474.01     10364.15     82.81882      165.967      331.506      1.706     4.18     974.1223     58.42171     910.6925        31     1.504     1.007  46.42   0
       165    467.3009    779.8881 307.7265983  +6.3652955     4268.536     6930.118     7193.826     83.08216       166.23     331.4731      1.738     4.32     976.6821     58.42171     537.8452        28     1.528     1.043  50.13   2
       166    463.6692    773.1997 307.7283321  +6.3679347     2130.558     3399.906     3404.962     82.55465     165.2415     331.2094      1.671     4.28     976.5297     58.42171     291.9094        21     1.460     0.922  40.16   2
       167    795.7119    777.9509 307.5902606  +6.3770891     11438.92      17684.8     17883.82     83.08216     165.6376     331.5389      1.643     4.08     967.9066     58.42171     1607.042        37     1.559     1.000  47.00   0
       168     25.2346    774.2142 307.9103885  +6.3527826     1165.021     1825.271     1611.616     82.68684     165.5057     331.3083      1.694     5.32     982.9202     58.42171     168.4632        14     1.228     0.900  65.93   0
       169    817.4184    772.2152 307.5814374  +6.3801822     1343.909     1943.244     1913.844     82.81882     165.4397     331.3412      1.520     4.08     967.0717     58.42171     205.7341        11     1.142     0.687  48.75   0
       170    985.2991    771.2755 307.5117384  +6.3861750     693.6992     761.1716     988.4861     82.55465     165.9012     331.3412      1.452     4.97     961.6492     58.42171     89.11475         7     1.049     0.668  73.21   0
       171    153.5032    769.8934 307.8572635  +6.3588831     11026.69     17717.52     18572.87     83.08216     166.3614     331.3412      1.719     4.10     982.1602     58.42171     1539.096        40     1.584     1.108  46.76   3
       172    145.8425    767.3785 307.8605301  +6.3596636     2766.022      4554.95      5559.92     82.55465     165.6376     331.2753      1.918     5.42     982.0648     58.42171     371.1072        26     1.817     0.898  43.69   3
       173    161.5454    770.1786 307.8539138  +6.3590359     2890.396     4524.672     4707.842     82.55465     165.7695     331.2423      1.663     3.88     982.1542     58.42171     393.7794        20     1.343     0.924  46.79   0
       174    941.2743    766.5333 307.5301837  +6.3866637     6799.404     9850.189     10310.88     83.21352     165.9012     331.4071      1.583     4.23     963.1115     58.42171     939.1923        30     1.528     0.939  50.81   0
       175    656.3607    800.8317 307.6473700  +6.3629832     819.0316      1277.97     1676.055     82.68684     165.5717     331.2753      1.640     4.89     971.4086     58.42171     136.3605         9     1.241     0.545  49.23   0
       176    990.1224    766.4327 307.5098974  +6.3883351     1537.167     2030.658     2309.943      82.9506     165.7695     331.3742      1.538     3.75     961.1983     58.42171     285.7483        14     1.213     0.783  42.46   0
       177    696.7790    764.3661 307.6318090  +6.3793888     1548.133     2606.888     2676.103     82.55465     165.5717     331.2423      1.711     4.75     969.8818     58.42171     284.8054        14     1.393     0.675  40.71   0
       178    583.6512    763.2632 307.6788335  +6.3760573     2186.118     3391.692     3480.023     83.08216     165.7036     331.4071      1.706     4.23     972.3969     58.42171     268.4625        19     1.364     0.888  48.47   0
       179    431.4671    762.8052 307.7420572  +6.3711455      1077.14     1740.273     1624.814     82.55465     165.3737     331.2423      1.578     5.47     977.4462     58.42171     146.3018        11     1.447     0.619  40.03   0
       180    714.8215    761.7468 307.6244031  +6.3810736     584.4922     610.6252     551.3928     82.55465     165.7695     331.2423      1.208     3.83     969.4197     58.42171     113.5267         5     1.012     0.415  46.43   0
       181    145.7126    760.8058 307.8608063  +6.3623723     1831.112     3197.371     3271.509     82.55465     165.4397     331.1434      1.790     4.84     981.8742     58.42171     272.0969        20     1.471     0.968  47.19   0
       182    935.4109    758.4728 307.5328896  +6.3897955     2988.709     4639.975     4563.833     82.55465     165.3737     331.3083      1.633     4.12     963.0586     58.42171     463.9423        20     1.513     0.811  45.75   0
       183    995.7846    757.8215 307.5078343  +6.3920787     2020.318     2999.922     3292.525     82.81882     165.5057     331.3742      1.577     4.17     960.5171     58.42171     332.6359        20     1.487     0.871  46.08   0
       184    964.8304    758.0085 307.5206853  +6.3909689     3017.076     4966.863     4933.306     82.55465     165.5717     331.2094      1.691     4.46     961.8087     58.42171     449.2572        23     1.487     0.872  40.31   0
       185    687.5994    757.7112 307.6358456  +6.3818289     1546.969      2123.24     2094.433     82.28963     165.2415     331.1104      1.493     4.42     969.9327     58.42171     226.6761        12     1.316     0.599  37.27   0
       186    834.7042    756.0430 307.5748008  +6.3874357     1016.776     1459.281     1399.653     83.08216     165.7036     331.5719      1.439     5.59     965.9796     58.42171     138.3126        13     1.403     0.790  27.64   0
       187    910.3206    753.5958 307.5434748  +6.3909713     847.7025     1225.042     1783.995     82.68684     165.2415     331.1764      1.476     4.10     963.8342     58.42171     154.4911         9     1.200     0.665  56.23   0
       188    260.2683    752.7221 307.8135019  +6.3695604     1796.504     3241.433     3910.199     83.21352     165.9012     331.4401      1.978     4.54      980.649     58.42171     250.3676        22     1.530     0.983  35.93   0
       189    175.9805    748.0088 307.8486681  +6.3686728     794.0817     1210.444     1588.823     82.81882     165.5057     331.2423      1.718     5.87     981.2477     58.42171     107.8074        11     1.369     0.709  42.94   0
       190    979.8138    745.8914 307.5148681  +6.3964709     2517.789      3855.29     4121.521     82.81882     165.5057     331.2094      1.586     4.51     960.5865     58.42171     376.1042        20     1.545     0.805  53.20   0
       191    952.8983    748.1188 307.5259732  +6.3946533     989.1844      1520.22     1397.476      82.9506       166.23     331.5389      1.469     4.92     961.9225     58.42171     164.6776         9     1.270     0.571  34.25   0
       192    280.3304    747.9543 307.8053305  +6.3722026     731.8919     715.5208     490.8763     83.08216     165.7036     331.4401      1.242     5.60     980.2626     58.42171     97.30066         9     0.963     0.917  46.67   0
       193    926.7999    746.6747 307.5368621  +6.3943785     1202.586     1949.466     2193.284     82.28963     165.1093     331.2094      1.671     4.97     963.0591     58.42171     203.4935        14     1.262     0.883  52.74   0
       194    699.0788    744.6044 307.6315184  +6.3876235     873.5591     1373.879     2194.374     82.68684     165.2415     331.1764      1.733     5.79     969.2797     58.42171     130.1882        11     1.223     0.772  57.16   0
       195    489.9511    740.0963 307.7185318  +6.3824809     623.0115     856.0644     362.4567      82.9506     165.6376     331.6048      1.550     5.17     974.3188     58.42171     99.26575         7     1.255     0.603  59.48   0
       196    420.5437    740.5772 307.7473437  +6.3799548     600.0156     801.5248     1133.897     82.68684     165.7036     331.2423      1.737     4.28       976.93     58.42171     94.23834         5     1.200     0.435  54.61   0
       197   1021.4970    739.2592 307.4977765  +6.4005990     1872.071     2670.013     2891.171     82.81882     159.7297     283.8309      1.546     4.29     958.2081     58.42171     234.6631        20     1.521     0.774  39.42  24
       198    647.6877    738.9691 307.6530536  +6.3882301     761.6379     865.6222     374.3052     83.21352     165.5717     331.3742      1.305     4.22     970.4042     58.42171     130.0046         6     1.142     0.444  60.28   0
       199    822.8449    737.5327 307.5803484  +6.3946807     1038.318     1629.531       1547.1     83.08216     165.7036     331.4731      1.674     5.46     965.3849     58.42171     166.0354        11     1.264     0.784  45.57   0
       200    909.1367    734.9725 307.5445915  +6.3986197     1503.588     2447.928     2557.162     82.68684     165.7036     331.3412      1.708     4.69     963.2617     58.42171     238.6876        17     1.482     0.763  45.67   0
       201    883.2831    730.2993 307.5554872  +6.3996856     993.3676     1221.705     1213.047     83.08216     166.2957     331.5389      1.362     4.76     963.9137     58.42171      158.116        11     1.166     0.690  52.49   0
       202    669.7171    729.4712 307.6442230  +6.3928881     425.9219     500.1665     119.7665     83.34467     166.0986     331.4731      0.959     4.40     969.6458     58.42171     95.35229         5     1.210     0.455  58.79   0
       203    866.2327    726.3113 307.5627033  +6.4007624      1693.38     2663.666     3005.158     83.21352     165.5717     331.4401      1.698     5.30      964.344     58.42171     218.4335        16     1.446     0.773  52.19   0
       204     65.0867    725.2603 307.8954943  +6.3743319     2383.448     3903.549     4678.879     83.21352     165.9012     331.5719      1.839     4.52     981.2207     58.42171     316.7719        23     1.542     0.936  31.33   0
       205    129.2347    723.4709 307.8689125  +6.3772294     876.4478     1665.473     2089.861      82.9506     165.7036     331.4401      2.257     6.51     980.7946     58.42171      171.584        12     1.794     0.664  62.44   0
       206    583.1846    720.7377 307.6804591  +6.3935963     586.5668     619.7634     365.2988     82.55465     165.7036     331.2423      1.413     4.22     971.0401     58.42171     102.2057         6     1.455     0.349  46.72   0
       207    677.8108    713.6639 307.6413930  +6.3996843     5981.282     9721.149     10257.35     82.55465     165.5717     331.3083      1.733     4.10     968.7565     58.42171     842.2202        36     1.578     1.097  46.83   0
       208    624.4924    713.2275 307.6635542  +6.3980798     1495.262     2421.942     3123.902     83.21352     165.5057     331.3083      1.896     4.19     969.5972     58.42171     217.3947        14     1.230     0.834  40.00   0
       209    546.9807    714.2113 307.6957165  +6.3950776     601.9383     796.4981     882.1413     82.68684     165.4397     331.3412      1.265     3.71     972.0426     58.42171      96.8902         5     1.122     0.352  11.15   0
       210    535.4492    713.5544 307.7005283  +6.3949624      701.502     1428.983     1423.825     83.08216     165.6376     331.4731      2.122     5.50     972.3719     58.42171     124.0154         8     1.195     0.714  55.84   0
       211   1014.9210    709.1819 307.5015164  +6.4127960     2621.289     4083.758     4501.518     82.68684     165.4397     331.3742      1.718     5.32     957.7281     58.42171     366.4656        22     1.560     0.905  48.11  16
       212    651.3961    709.4247 307.6525074  +6.4005503     2061.367     2986.305     2971.421     82.55465     165.5057     331.2753      1.584     4.10     969.0052     58.42171     261.5133        18     1.318     0.894  49.28   0
       213    140.8550    709.5751 307.8645562  +6.3833564     3307.498     5732.886      5587.04     82.68684     165.8353     331.2423      1.798     4.46     980.4572     58.42171      459.176        26     1.558     0.992  49.04   0
       214    794.7034    705.9846 307.5930974  +6.4067636     19652.07     30555.88     31728.58     82.81882     165.5057     331.2423      1.644     3.90     964.4478     58.42171     2787.831        44     1.539     1.102  46.74   0
       215    262.6333    708.5180 307.8140126  +6.3878870     727.6344     932.2781     738.2172     83.08216     165.7036     331.3742      1.291     3.92      978.853     58.42171     99.84399         6     0.916     0.481  88.27   0
       216    924.7016    705.6337 307.5391108  +6.4112506     3846.496     5520.217     5616.387     83.08216     165.6376     331.5719      1.565     4.10     961.3019     58.42171      574.163        21     1.442     0.810  44.39   0
       217    493.7626    706.1647 307.7180922  +6.3966157     1257.355     2066.221     2105.123     82.81882     165.6376     331.2094      1.719     5.10     973.2087     58.42171     182.4896        17     1.430     0.916  41.18   0
       218    521.9626    705.4693 307.7064025  +6.3978480     851.2336     1292.793     1454.959      82.9506     165.7695     331.5389      1.544     4.32     972.4953     58.42171      123.537         9     1.004     0.697  28.72   0
       219    339.5597    705.9283 307.7821490  +6.3915398     776.0563     1264.398     1035.206      82.9506     165.7695      331.506      1.769     6.54     978.0459     58.42171     108.0693         9     1.402     0.856  33.73   0
       220    295.6905    705.6949 307.8003778  +6.3901629     566.5278     622.9091     872.7588     83.08216     166.2957     331.4401      1.714     4.06     978.3994     58.42171     91.41229         5     1.223     0.385  52.12   0
       221    268.2303    699.6011 307.8119891  +6.3917559     5669.972     9362.508     9777.204     82.42225     165.5717     331.2423      1.738     4.08     978.5061     58.42171     782.2547        32     1.569     1.045  49.76   0
       222    675.2659    698.7469 307.6429518  +6.4057570     6756.115     11118.32     11482.07     83.08216     165.7036     331.4071      1.750     4.31     968.1649     58.42171      889.131        35     1.598     1.052  47.70   0
       223    657.4495    699.3479 307.6503320  +6.4049126     780.9749     1239.163     891.5529     83.21352     165.6376     331.4071      1.669     5.91     968.4501     58.42171      97.4093        10     1.234     0.797  24.98   0
       224    371.2986    699.0863 307.7691971  +6.3954296     623.7323     1172.017     1524.606     83.08216       166.23      331.506      2.009     5.36     976.9789     58.42171     116.0935         7     1.462     0.555  39.43   0
       225    935.2211    691.4723 307.5352164  +6.4174477     1110.326     1727.114     1222.947     82.68684     165.6376     331.4071      1.580     5.40     960.1754     58.42171     152.0622        11     1.275     0.691  44.89   0
       226    746.8495    687.1792 307.6136068  +6.4129268     3511.688     5726.164     6502.604     82.55465     165.8353     331.3083      1.754     3.97     965.6565     58.42171     499.7404        27     1.454     1.060  51.48   0
       227    702.0670    687.6857 307.6321914  +6.4112199     960.9181     1425.916      1342.05     83.08216     166.0328     331.4731      1.582     5.69       966.99     58.42171     136.6494        11     1.286     0.710  29.89   0
       228   1013.3073    683.7656 307.5030388  +6.4232344     9226.812     13685.52     14102.87     83.21352     165.6376      331.506      1.589     3.93     957.2161     58.42171     1445.338        31     1.476     0.961  42.41   0
       229    951.8708    684.2441 307.5285428  +6.4209873     2388.872     3517.241     2727.362      82.9506     165.7695     331.4731      1.658     4.49     959.2653     58.42171     369.4746        20     1.432     0.857  54.89   0
       230     32.4311    683.2880 307.9104778  +6.3905579     1693.688     3169.863     4122.417     83.21352     165.5717     331.3742      2.258     5.49     981.5731     58.42171     222.4521        24     1.739     0.969  33.65   0
       231     90.6495    678.5850 307.8864567  +6.3944593     23560.17     39345.32      41227.5     82.42225     165.7695     331.1434      1.788     4.14     980.1851     58.42171     3213.883        55     1.672     1.188  48.21   0
       232    551.9987    679.2678 307.6948092  +6.4096705     1685.711     2638.917     2387.482     82.55465     165.3076     331.2423      1.732     4.93     971.0576     58.42171     226.2335        18     1.349     1.002  70.00   0
       233    941.5916    676.1709 307.5330836  +6.4239769     1222.323     1947.743     2416.297     82.68684     165.5717     331.2094      1.759     5.01     959.2313     58.42171     157.6141        14     1.332     0.738  59.16   0
       234    520.5368    676.6379 307.7079661  +6.4097018     1250.366     2079.493     1975.827     83.08216     165.7036     331.4731      1.683     5.45     971.8506     58.42171     194.8451        15     1.535     0.747  52.87   0
       235    561.2452    673.4443 307.6911646  +6.4123843     823.6064     1235.753     1269.517     83.08216     165.7695     331.4071      1.884     5.22     970.4388     58.42171     156.7841         9     1.220     0.636  44.55   0
       236    736.5984    670.7640 307.6184168  +6.4193603     3430.337     5432.098     5205.722      82.1568     165.5717     331.2094      1.674     3.98     965.5386     58.42171     488.7683        25     1.407     1.016  48.37   0
       237    758.6051    668.9931 307.6093350  +6.4208272     4097.327     6178.033     6402.964     82.42224     165.5057     331.2753      1.610     3.91     964.4764     58.42171     567.5381        24     1.433     0.957  44.10   0
       238    426.1091    667.3760 307.7475006  +6.4103588     1260.701     2036.144     1866.124     83.08216     165.5717     331.2753      1.682     4.69     973.5803     58.42171     167.0153        16     1.204     0.994 -72.50   0
       239    590.1198    666.9039 307.6793910  +6.4160514     3007.762     4898.786     4936.943     82.81882     166.0328     331.5389      1.701     4.32     968.6505     58.42171     362.3507        24     1.526     0.974  42.36   0
       240    250.8129    666.5687 307.8203393  +6.4048062     1723.716     2984.743     3134.879     82.55465     165.5057     331.3742      1.797     4.43     977.7571     58.42171     236.7003        21     1.322     1.079  47.08   0
       241    996.9048    664.1328 307.5105106  +6.4307920     8173.181     12437.72     12634.75      82.9506      165.967     331.4401      1.601     4.19     957.3439     58.42171     1164.235        32     1.542     0.932  45.38   0
       242    334.0154    665.7277 307.7858087  +6.4079483      1372.71     2174.286     2370.262     82.55465     165.6376     331.3412      1.714     3.90     976.5652     58.42171     216.6747        14     1.248     0.733  29.89   0
       243    716.5438    662.6702 307.6270193  +6.4220307     1004.607     1453.947     1643.656     83.21352     165.7036     331.4071      1.490     2.97     965.5788     58.42171     174.8738         8     0.842     0.726 -41.71   0
       244    108.2552    660.5778 307.8797534  +6.4024850     853.9185     1399.595     1484.705     82.55465     165.7695     331.2423      1.924     6.59     979.6733     58.42171     117.0926        12     1.484     0.862  38.47   0
       245    442.2683    658.4278 307.7410904  +6.4145947     2719.006     4350.872     4645.727     82.81882     165.7036     331.3412      1.724     3.96     972.9944     58.42171     384.6935        24     1.412     0.989  49.98   0
       246    155.3849    657.4784 307.8602829  +6.4053501     22343.98     36637.25     37948.09     82.68684     165.5057     331.2753      1.789     4.15      979.202     58.42171     3182.768        53     1.670     1.173  47.44   0
       247    823.3331    657.6891 307.5828276  +6.4276572     1125.885      1662.19       2261.6     83.21352      165.967     331.4071      1.732     5.03     962.2463     58.42171     146.3098        13     1.208     0.830  60.82   0
       248    375.2047    652.4070 307.7691496  +6.4148298     818.1885     1422.226     1485.768     82.42225     165.5057     331.2753      2.012     5.95     974.8508     58.42171     103.5201         9     1.276     0.781 -14.22   0
       249    991.8255    647.0264 307.5131942  +6.4376842     6801.068      11037.1     12061.94     82.55465     165.5717     331.3412      1.699     4.19     957.2874     58.42171     942.5056        38     1.733     0.984  41.79   0
       250    585.3765    642.3387 307.6821884  +6.4260330     44424.88     72470.84     76157.63     82.68684     165.7036     331.3412      1.777     4.17     967.8644     58.42171     6013.178        69     1.687     1.212  48.20   0
       251     36.6520    645.9421 307.9099890  +6.4061158     964.0651     1680.873     1583.432     83.08216     165.7695     331.4401      1.764     4.14     981.1708     58.42171     146.9592        10     1.219     0.638  43.70   0
       252    228.6542    643.1058 307.8303358  +6.4137467     553.6345      1015.99     1549.566      82.9506     165.7695     331.6707      4.104     7.08     977.5532     58.42171     86.54321         8     1.791     0.784  81.56   0
       253    949.5922    643.4585 307.5308577  +6.4377480     646.3918     785.5068     985.6011     82.42225     165.6376     331.2094      1.363     4.10     958.1879     58.42171     123.3819         6     1.088     0.442  53.78   0
       254    809.8544    641.7883 307.5889608  +6.4337707      616.252     994.3204     922.1419     82.42224     165.7036     331.1434      1.195     3.35     962.0031     58.42171     103.4541         5     0.961     0.338 -43.17   2
       255    192.7661    638.8180 307.8453873  +6.4143101       2480.8     3799.079     3832.417     82.55465     165.5717     331.2423      1.555     4.33     978.2132     58.42171     322.8054        22     1.449     0.964  53.19   0
       256    996.1819    638.8268 307.5116596  +6.4412144     511.2723     727.3163     1249.892     82.68684     165.5717     331.3412      1.439     4.19     957.1091     58.42171     89.81592         6     1.218     0.412  29.20   0
       257     85.6699    632.9792 307.8900681  +6.4131171     1293.997     2036.017     2379.055     82.68684     165.6376     331.3742      1.937     5.41     979.6897     58.42171     164.8191        14     1.346     0.791  49.90   0
       258    482.6350    626.1209 307.7254121  +6.4292847     57010.53     94593.53     99385.17      82.9506     165.8353     331.4401      1.773     4.05     971.2892     58.42171     7176.838        72     1.669     1.250  47.90   0
       259     26.2290    627.8201 307.9149318  +6.4132452     1480.956     2656.962     3242.554     82.55465     165.5717     331.3412      2.001     4.92     981.2903     58.42171     189.0479        19     1.435     0.934  35.79   0
       260    667.8451    622.8892 307.6485864  +6.4368231     815.9385     1366.559     1497.632     83.08216     165.6376      331.506      1.919     5.29     964.5333     58.42171     128.6667         8     0.975     0.810  79.88   0
       261    157.1353    620.9288 307.8607918  +6.4204962      1472.13     2273.322      2229.58     83.08216     165.8353      331.506      1.603     4.49     978.6437     58.42171     215.7084        15     1.290     0.885  37.78   0
       262    951.9619    619.1382 307.5306893  +6.4478667       709.64     1161.332     1158.343     83.08216     165.8353     331.4401      1.711     4.80     957.6238     58.42171     102.0842         8     1.017     0.643  60.62   0
       263    435.7570    619.2252 307.7451170  +6.4305590      719.166     1250.329     872.4948     82.68684     165.7695     331.3083      1.817     4.48     972.0886     58.42171     97.90247         6     0.902     0.634  69.63   0
       264    627.9109    617.9429 307.6653413  +6.4375281     679.2024     1033.655     1085.421      82.9506     165.7036     331.5719      1.454     3.78      965.421     58.42171     105.8129         5     0.799     0.514 -25.07   0
       265    328.1783    615.4849 307.7899293  +6.4284923     1800.465     3281.509      3038.06      82.9506     165.4397     331.3742      1.863     5.03     974.1351     58.42171     268.9822        24     1.553     1.000  45.16   0
       266    479.8469    613.8491 307.7269839  +6.4342570     760.6468     1190.222     1834.084     83.08216     165.6376     331.4731      1.961     4.96     971.0944     58.42171     102.4401         8     1.104     0.631  60.32   0
       267    754.6189    609.6110 307.6129871  +6.4452073     5057.374     7932.146      8136.44     82.68684     165.4397     331.3083      1.683     4.11       962.33     58.42171     748.0157        30     1.499     1.006  45.47   0
       268    808.2274    604.9272 307.5908752  +6.4489329     13396.17     21162.26     22107.78     82.81882     165.7036     331.3742      1.669     4.08     961.1874     58.42171      1858.29        38     1.557     1.043  49.53   0
       269    550.4849    604.7656 307.6979475  +6.4403744     1196.888     2219.485      1876.19     83.08216     165.6376     331.4071      1.897     5.69     967.5605     58.42171     167.0389        17     1.445     0.917  57.07   0
       270    631.8640    602.9453 307.6642041  +6.4438515     2683.718     4139.033     3663.263     83.21352     165.7036     331.4071      1.636     3.86     964.7137     58.42171     345.2937        22     1.412     0.925  47.15   0
       271    949.3025    598.9015 307.5324731  +6.4561319     1095.296     1645.479     1949.302     83.08216       166.23     331.2753      1.642     6.30     957.1568     58.42171     158.1158        13     1.301     0.856  49.03   0
       272    244.6250    596.7779 307.8252674  +6.4334073     1181.259     2030.387     2549.481     82.55465     165.5717     331.4071      1.933     5.06     975.6917     58.42171     161.9686        15     1.230     0.918  69.35   0
       273    390.3549    596.2798 307.7647504  +6.4385074     776.6279     1268.805     911.2116     83.08216     165.7695     331.4401      1.788     5.03     972.1567     58.42171     113.0581         8     0.863     0.828 -88.96   0
       274    884.1426    588.0696 307.5599052  +6.4584280     2927.237     4298.367     4515.012     83.21352     165.7695     331.4071      1.581     3.95     958.7933     58.42171     439.2823        19     1.372     0.835  43.73   0
       275    179.6188    587.2395 307.8525920  +6.4351590     748.8542     1552.302     2372.722     82.68684     165.5717     331.1764      2.839     6.44     977.1558     58.42171     141.4058        12     1.665     0.898  63.19   0
       276    843.0099    585.5508 307.5770770  +6.4580939     2487.113     3892.744     3992.219     82.55465     165.5717     331.1104      1.606     4.28     959.7609     58.42171     319.8286        19     1.370     0.904  43.67   0
       277    823.6191    576.7964 307.5854264  +6.4610599     150851.3     237762.7     249463.8     82.68684     165.3076     331.2423      1.691     3.95     959.8254     58.42171     21785.63       105     1.683     1.214  48.37   0
       278    813.8491    581.4519 307.5893286  +6.4588115     2338.296     4213.096     5362.966     83.21352     165.6376     331.4071      1.995     4.53     960.1844     58.42171     333.7565        23     1.497     1.026  43.18   0
       279    271.0464    580.5259 307.8148415  +6.4410039     6930.698     11621.73     11963.54      82.9506     165.8353     331.4401      1.789     4.06     974.3903     58.42171     902.5273        36     1.611     1.091  46.18   0
       280    205.2592    575.0736 307.8423528  +6.4410433      52608.1     89753.17     95658.53     83.21352     165.7695     331.4401      1.829     4.07     975.9888     58.42171     6793.877        78     1.742     1.301  49.08   0
       281    129.2270    571.3132 307.8740623  +6.4400380     5294.665     9016.291     9389.248     83.21352     165.5057     331.3083      1.817     4.09     978.1011     58.42171     712.5712        34     1.554     1.148  45.40   0
       282    994.3256    568.4603 307.5147907  +6.4702006     1365.266      1854.19     1705.693     83.34467     165.7695     331.4401      1.533     3.97      954.318     58.42171       257.89        16     1.444     0.720  41.77   0
       283   1015.0961    567.2554 307.5062024  +6.4713908     553.3182      1057.17     1076.581      82.9506     165.7036     331.6378      2.043     4.67     953.3408     58.42171     90.52716         7     1.145     0.542  59.01   0
       284    243.6071    566.6110 307.8267096  +6.4458257     676.0184     1068.543     1687.772     82.68684     165.5717     331.3412      1.549     4.07     974.5999     58.42171     110.6641         6     1.336     0.354  49.79   0
       285    860.1361    563.9660 307.5706874  +6.4675764     4256.691     6808.114     7479.494      82.9506     165.8353     331.4401      1.690     4.07     958.5651     58.42171     637.5089        28     1.484     1.019  45.23   0
       286    378.6692    562.2346 307.7707533  +6.4521689     14950.04     25806.77        27200      82.9506     165.7695     331.5389      1.841     4.12     971.0793     58.42171     1850.174        49     1.679     1.216  49.57   0
       287    180.3833    561.0062 307.8531614  +6.4460136     1706.604     2822.729      3666.71     82.68684     165.5057     331.2753      1.848     3.93     976.2346     58.42171     201.9398        19     1.195     1.088  45.16   0
       288    185.6597    558.4711 307.8510554  +6.4472375     602.1066     1023.346     2715.833     83.21352     165.7695      331.506      4.106     6.18     975.9384     58.42171     106.5897         8     1.417     0.758  74.65   0
       289    118.0921    558.7231 307.8791134  +6.4448603     844.0196     1327.114     1528.679     82.81882      165.967     331.4401      1.660     6.31     978.2893     58.42171     115.3763        10     1.310     0.854  46.18   0
       290    814.0983    557.3630 307.5900345  +6.4687640     5685.544     8733.573     9872.226     83.08216     165.6376     331.6378      1.670     3.87     959.3035     58.42171     796.9945        27     1.457     0.950  46.01   0
       291    545.0208    557.0773 307.7018239  +6.4598770     5812.021     9981.158      9862.27     82.68684     165.5057     331.4071      1.803     4.07     966.0113     58.42171     759.9974        33     1.558     1.103  47.67   0
       292    255.1909    558.4463 307.8221737  +6.4495854     746.5894     1049.859     876.0361     82.55465     165.6376     331.0774      1.459     3.54     974.0084     58.42171     122.0936         8     0.964     0.776  25.22   0
       293    403.5833    553.7390 307.7606906  +6.4565120     1243.211     1922.152     1726.637     82.55465     165.7036     331.2423      1.638     4.77     970.3023     58.42171     162.8364        13     1.170     0.796  54.11   0
       294    192.0206    550.3142 307.8486889  +6.4508185     5801.717     10184.39     10774.74      82.9506     165.5057     331.3412      1.846     4.28     975.4539     58.42171     794.0606        38     1.635     1.196  50.36   0
       295    589.4503    550.2871 307.6835960  +6.4641686     2133.377      3913.89     4358.535     83.08216     165.6376     331.5389      1.988     4.67     964.1237     58.42171      272.011        27     1.432     1.281  85.89   0
       296    830.8585    549.6246 307.5833319  +6.4725185     1349.332      2314.28     2331.724     82.68684     165.7695     331.2753      1.691     5.50     958.6711     58.42171      198.675        19     1.640     0.820  36.37   0
       297    287.2585    546.7437 307.8092483  +6.4554937     75384.84     130257.1     137921.3     83.21352     165.7695     331.4731      1.860     4.14     972.9368     58.42171     9873.269        85     1.776     1.309  49.11   0
       298     63.6635    549.0077 307.9020509  +6.4470384     4437.732     7747.394     7991.264     82.42224     165.5057     331.2423      1.863     4.26     979.9961     58.42171     582.0159        36     1.662     1.102  47.15   0
       299    576.6434    544.1458 307.6891230  +6.4662747     827.3672     950.7402     1324.746     83.08216     165.7695     331.4401      1.413     4.73     964.3486     58.42171     141.1136         8     1.159     0.548  47.06   0
       300    271.1859    541.6529 307.8160967  +6.4570551     1337.116     2376.369     2296.935     82.42225     165.7036     331.1764      1.767     6.90     973.0353     58.42171     175.0677        18     1.590     0.939  49.44   0
       301    986.9413    540.6050 307.5187927  +6.4814532     1732.432     2784.864     2916.898     82.55465     165.6376     331.2094      1.596     4.57     953.1424     58.42171     276.2815        16     1.459     0.690  39.86   0
       302    514.0029    537.5638 307.7153667  +6.4668926     35962.91     64762.05     70090.69     82.15679     165.5717     331.2423      1.911     4.26     966.2825     58.42171     4573.656        80     1.828     1.419  39.70   0
       303    810.3411    539.1852 307.5922062  +6.4761423     15292.93     24154.31      25460.3     82.42225     165.7695     331.1764      1.686     4.09     958.7667     58.42171     2182.008        43     1.575     1.091  44.36   0
       304    664.6984    536.2440 307.6528091  +6.4724852     875.8876     1360.599     2070.311     83.08216     165.7036     331.6707      1.828     5.37     961.3039     58.42171      135.195         9     1.091     0.746  61.78   0
       305    226.6393    534.0331 307.8348588  +6.4587032     1430.463      2763.69     2223.314     82.81882     165.5717     331.2423      1.960     4.68     973.7071     58.42171     216.8289        22     1.500     1.057  53.56   0
       306     62.0710    534.2191 307.9032130  +6.4530893     1168.816     1974.201     1857.048     82.68684     165.6376     331.3742      1.635     5.12     979.7271     58.42171      155.022        17     1.453     0.917  53.88   0
       307    684.3091    532.7114 307.6447812  +6.4745998     1326.746      2279.62      2092.01     83.08216     166.2957     331.5389      1.803     4.26     960.7853     58.42171     190.2626        17     1.318     0.892  44.68   0
       308    673.9738    532.6256 307.6490776  +6.4742894     2734.255     4534.347      4937.44     82.55465     165.5717     331.3412      1.837     4.19     960.9265     58.42171     342.0787        24     1.505     0.949  46.24   0
       309    736.2202    531.6370 307.6232520  +6.4767801      1216.75     1985.651     2109.508     82.68684     165.5057     331.1764      1.750     5.57     960.0157     58.42171     158.7813        12     1.200     0.778  44.02   0
       310    411.6141    528.0748 307.7582204  +6.4673756      1365.16     2440.106      2428.65     82.55465     165.5057     331.2423      1.810     5.13     968.9388     58.42171     183.6776        18     1.396     0.988  42.59   0
       311    343.0980    526.4927 307.7867362  +6.4657287     3444.858     5762.678     5684.108     83.08216     166.2957     331.3742      1.818     3.92     970.0953     58.42171     474.9099        30     1.486     1.159  46.38   0
       312    158.3599    525.1027 307.8635239  +6.4600933     22929.32     39103.59     41457.47     83.08216     165.6376     331.6707      1.832     4.07     975.7537     58.42171     3069.195        54     1.680     1.223  48.86   0
       313    523.1013    525.8853 307.7119806  +6.4720185      1850.16     3235.652       3071.3     83.08216       166.23      331.506      1.835     4.75     965.4017     58.42171     246.4596        21     1.472     0.962  48.44   0
       314    886.2469    524.9736 307.5611496  +6.4845449     1415.219     2167.675      2361.25     82.68684     165.8353     331.3412      1.630     4.03     956.5167     58.42171     220.3365        14     1.253     0.775  44.21   0
       315    123.5741    523.3502 307.8780330  +6.4596463     2447.641     4099.268     4489.274     82.68684     165.8353     331.3412      1.823     4.43     977.0258     58.42171       277.63        24     1.432     1.063  62.86   0
       316      3.2356    523.1235 307.9280281  +6.4556876     1668.314     2665.262     2918.849      82.9506     157.3183     280.1514      1.660     4.06     981.6102     58.42171     248.3865        16     1.303     0.823  63.77  16
       317    360.5445    521.7430 307.7796490  +6.4682752     842.2865     1607.423     1605.494     83.21352     165.8353     331.4731      1.971     6.57     969.4576     58.42171      108.887        11     1.447     0.836  49.94   0
       318    983.8872    519.6409 307.5207647  +6.4900056     5017.422     7578.756     7394.411     83.08216     165.7695     331.4731      1.580     3.84     952.3425     58.42171     741.8641        26     1.448     0.924  47.61   0
       319    556.8549    512.2147 307.6984192  +6.4787929     1311.638     1956.628     2186.625     82.42224     165.7036     331.1434      1.550     4.75     963.8044     58.42171     176.3728        17     1.263     1.041  47.73   0
       320     22.6334    509.4525 307.9204335  +6.4619843        22361        37891     40153.95      82.9506     165.7036     331.3412      1.832     4.22     980.6473     58.42171     2816.468        58     1.721     1.232  52.06   0
       321    455.3199    506.2453 307.7408006  +6.4778531     36753.52     63091.58     65968.96     83.08216     165.7695     331.4401      1.840     4.16     966.3687     58.42171     4578.534        63     1.715     1.259  49.51   0
       322    663.4022    505.9298 307.6543678  +6.4849556     10982.23     18292.38     19430.56     82.55465     165.3737     331.2423      1.785     4.23     960.1437     58.42171     1333.063        39     1.614     1.105  45.38   0
       323      5.2188    503.6671 307.9278633  +6.4637857     173364.1     294404.4     309436.9     82.68684     165.7036     306.0495      1.814     4.08     981.3716     58.42171     23554.27       106     1.766     1.298  50.61  24
       324    220.5384    503.8204 307.8384144  +6.4709696     16881.55      30175.1     31886.91     82.68684     165.7695     331.3412      1.899     4.20     972.7687     58.42171     2064.201        57     1.814     1.248  48.11   0
       325    303.4507    506.1023 307.8038946  +6.4728141     772.7377     1317.029     940.4921      82.9506     165.7036     331.6378      1.637     3.25     969.8721     58.42171      157.125         8     0.916     0.625  31.52   0
       326    186.0512    504.9947 307.8527009  +6.4693251     1467.169     2281.827     1996.531     82.42225     165.6376     331.0774      1.582     4.23     974.0692     58.42171     204.4747        16     1.246     0.931  42.38   0
       327    997.1271    504.2105 307.5157819  +6.4968171     1045.203     1508.886     1738.507     82.55465     165.3737     331.3083      1.390     3.96     950.8625     58.42171     199.1968         9     1.133     0.536  46.76   0
       328    925.6163    503.9207 307.5455007  +6.4945503     759.1785      927.324     587.6459     82.68684     165.5057     331.2753      1.310     4.30      954.772     58.42171      123.623         8     1.119     0.486  89.96   0
       329    837.6826    503.8484 307.5820348  +6.4916433       903.72     1454.122     1848.422     83.08216     165.7695     331.4731      1.748     6.11     956.8281     58.42171     121.7828        10     1.282     0.820  38.54   0
       330    585.1238    502.6276 307.6869984  +6.4836976     2538.325     4365.597     4403.181      82.9506     165.7695     331.4071      1.785     4.06     962.6882     58.42171     385.5394        24     1.479     0.996  42.90   0
       331    958.9686    499.8355 307.5317816  +6.4973499     4490.011     6674.845      6657.89     82.68684     165.5057     331.1764      1.556     4.08     952.8211     58.42171      635.907        22     1.418     0.867  43.41   0
       332    632.1591    498.2895 307.6676044  +6.4870636      5727.68     9589.701     10027.96     83.08216     165.7695     331.4731      1.759     4.21     961.0165     58.42171     762.6902        32     1.528     1.072  49.29   0
       333    120.1349    498.7367 307.8802944  +6.4696906     885.1891     1391.164     1329.333     83.08216     165.7695     331.4401      1.706     5.43     976.2415     58.42171     140.8201        10     1.458     0.571  48.01   0
       334    981.6331    492.0984 307.5226252  +6.5013002     3219.411      4822.35     5201.417     83.08216     165.6376     331.5719      1.601     4.35     951.1519     58.42171     492.5193        18     1.438     0.786  45.00   0
       335    544.3936    489.4839 307.7043619  +6.4877586     6485.061     10967.34     11529.67     82.68684     165.4397     331.3083      1.845     4.24     963.1802     58.42171     797.1575        39     1.737     1.153  47.10   0
       336    418.6863    490.9329 307.7565355  +6.4829450     527.5899     1035.914     1298.719     83.21352     166.0328     331.4731      2.388     5.23      966.926     58.42171     81.90308         6     1.234     0.626 -30.67   0
       337    390.3164    489.5516 307.7683677  +6.4825631      2349.56     3951.448     4050.972     83.08216     165.7695     331.4731      1.879     4.47     967.2634     58.42171     310.2823        24     1.551     1.006  49.91   0
       338    900.7264    485.2877 307.5564667  +6.5014111     3082.324     4630.219     4923.794     83.08216     166.0986     331.4401      1.640     3.99     954.3916     58.42171     427.7133        22     1.338     0.973  47.43   0
       339    908.0894    479.7720 307.5535930  +6.5039339     2100.915     3048.161     3349.659     83.21352     165.5057     331.3412      1.584     3.66     954.0021     58.42171     344.0125        16     1.164     0.873  40.99   0
       340    947.4525    478.8992 307.5372686  +6.5056083     1194.593     1732.517     1587.908      82.9506     165.7695     331.6707      1.668     3.92     952.4592     58.42171     211.6104        13     1.294     0.724  44.30   0
       341    732.2071    475.6855 307.6268009  +6.4997429     2663.328     4405.968     5040.125     82.68684     165.4397     331.2423      1.851     4.26     958.0045     58.42171      322.439        24     1.459     1.002  42.21   0
       342    286.9707    477.6115 307.8117030  +6.4840212     453.6798     803.6104     393.7242     82.55465     165.5717     331.3083      1.434     4.85     968.5436     58.42171     79.86481         5     1.367     0.487   0.77   0
       343    758.7872    476.0017 307.6157476  +6.5005013      516.941     764.0674     574.6371     82.68684     165.4397     331.2094      1.410     3.91     957.6393     58.42171     73.64258         5     0.841     0.520  33.45   0
       344    403.0365    474.0046 307.7636081  +6.4894077     3121.358     5482.225      5130.93     82.15679     165.5057     331.2423      1.809     4.44     966.1106     58.42171      390.231        28     1.568     1.079  46.12   0
       345     93.9389    474.6924 307.8919900  +6.4787340     1599.334     2872.691     2840.164      82.9506     165.7695     331.5389      1.856     4.53     976.2841     58.42171     192.3284        23     1.490     1.003  58.45   0
       346    443.7363    474.3602 307.7466881  +6.4906266     807.2114     1353.933     1289.426     83.08216     165.7036     331.4731      1.768     3.71     964.9101     58.42171     148.9478         8     1.093     0.782  54.08   0
       347    630.7806    470.4366 307.6691148  +6.4985152     8738.271     14468.09     14929.17     82.68684     165.5717     331.2094      1.781     4.06     959.9991     58.42171     1154.748        38     1.546     1.172  47.26   0
       348    793.5560    467.0966 307.6016022  +6.5053399     14961.21     23969.84     25292.23     83.08216     165.7036     331.6048      1.726     4.17     956.6567     58.42171     2013.926        45     1.613     1.108  44.77   2
       349    797.5005    462.3869 307.6001217  +6.5074160     1333.165     2212.168     1991.661     82.81882     165.5057     331.1764      1.791     4.58     956.3305     58.42171     193.6862        15     1.365     0.849  40.43   2
       350    313.3013    467.3921 307.8011099  +6.4891243     2278.139     3842.812     3712.073     82.81882     165.3737     331.2423      1.799     4.17      967.312     58.42171     271.4276        23     1.405     1.009  35.18   0
       351    822.8362    464.4109 307.5895278  +6.5074273     1191.574      2058.59     1975.213     82.55465     165.5717     331.1764      1.841     5.24     955.7885     58.42171     200.1295        16     1.515     0.835  41.45   0
       352    396.4642    463.8575 307.7666808  +6.4933758     1325.908     2238.117     2295.057     83.21352     165.7036     331.4731      1.894     6.59     965.4041     58.42171      155.418        17     1.515     0.855  49.58   0
       353    978.5521    462.0626 307.5249129  +6.5135964     1944.836     3074.519     3029.479      82.9506     165.6376      331.506      1.667     4.61     949.6511     58.42171     308.7786        19     1.535     0.810  42.90   0
       354    384.7714    459.9743 307.7716694  +6.4945863     736.0925      1228.45     951.2778     82.55465     165.5717     331.3083      1.737     5.21     965.1819     58.42171     95.92236         9     1.211     0.633  64.75   0
       355    131.0540    459.0261 307.8771021  +6.4864501     3759.075     6510.383     6520.534     82.68684     165.9012     331.2753      1.844     4.50      974.436     58.42171     485.4255        33     1.620     1.138  46.98   0
       356    768.9971    457.8945 307.6121147  +6.5083175     2007.521     3510.632     3486.846     82.81882     165.4397     331.1434      1.810     4.59     956.5923     58.42171     281.6022        20     1.384     0.940  44.11   0
       357    288.5325    456.0138 307.8117838  +6.4929890     1191.701     1879.453     1642.585     82.55465     165.5717     331.3742      1.710     5.88     967.7448     58.42171     138.6459        14     1.428     0.808  53.30   0
       358    366.9180    453.8155 307.7792942  +6.4965293     2745.922     4916.688     5081.436     82.68684     165.4397     331.3083      1.904     4.07     964.8416     58.42171     346.1702        29     1.517     1.132  48.16   0
       359    722.8248    451.5182 307.6315117  +6.5094054     1486.762      2622.78     2586.495     82.81882     165.5057     331.4071      1.832     4.77     957.0265     58.42171     203.3402        20     1.487     0.920  52.55   0
       360    254.6045    449.6236 307.8260944  +6.4944867     693.1777      1123.18     687.3142     82.68684     165.5057     331.2753      1.750     5.84     968.9583     58.42171     108.1177        10     1.390     0.690  73.06   0
       361    564.0671    444.0206 307.6977204  +6.5071851      810.415     1676.614     2029.973     82.68684     165.7695     331.3742      2.314     4.82     960.1793     58.42171     113.4927         9     0.847     0.777  49.49   0
       362    849.2123    441.8340 307.5793282  +6.5176285     1469.139      2292.19     2398.927     82.55465     165.5057     331.3083      1.636     4.06     954.4072     58.42171     263.0479        18     1.367     0.911  36.89   0
       363    486.6787    442.5863 307.7299196  +6.5051831     1101.325     1844.494     2055.375     82.68684     165.5057     331.2423      1.982     5.37      961.283     58.42171     132.6204        11     1.176     0.821  43.41   0
       364    834.7319    440.7362 307.5853812  +6.5175978     1733.473     2650.066     2872.483     83.08216     165.7695      331.506      1.692     4.02     954.6068     58.42171     260.4635        18     1.368     0.811  45.70   0
       365    732.0271    438.7921 307.6281165  +6.5149666     13597.25     22226.32     23742.64     82.68684     165.5717     331.2423      1.745     4.10     956.3048     58.42171     1759.809        45     1.603     1.133  45.16   0
       366    625.4513    429.9120 307.6726933  +6.5150654     11610.72     25422.03     30199.82     83.08216     165.6376     331.5389      2.385     7.55     958.3538     58.42171     1612.566        64     2.550     1.177  36.59   0
       367    653.1017    434.9046 307.6610376  +6.5139302       2310.8     3727.789     4327.952     83.08216     166.3614     331.2753      1.882     4.33     957.7454     58.42171     318.9014        22     1.432     1.003  38.12   0
       368    957.2188    428.5994 307.5348992  +6.5266984     3878.498     5829.797     5838.328     82.68684     165.3076     331.1104      1.610     4.10     949.0582     58.42171     576.3065        22     1.389     0.864  52.08   0
       369    396.4361    424.6406 307.7680159  +6.5095634     24651.13     43387.62     46672.81     82.81882     165.7695     331.2753      1.890     4.27     962.3923     58.42171     3050.865        60     1.730     1.300  47.90   0
       370    432.9545    425.3052 307.7528220  +6.5105146     582.9249     853.3551      517.679      82.9506     165.7036     331.5719      1.730     5.45     961.7732     58.42171     80.49036         6     1.139     0.736  67.97   0
       371    142.4894    424.0154 307.8735361  +6.5012868     2061.449      3439.96     3571.747     82.81882     165.5717     331.2753      1.751     4.49     972.8099     58.42171     238.1389        21     1.357     1.048  55.83   0
       372    912.3188    423.5935 307.5537220  +6.5272660     1410.284     2506.763     2857.422     82.68684     165.3076     331.2423      1.977     7.30      951.424     58.42171     201.5299        17     2.015     0.769  49.98   0
       373    926.1013    419.1185 307.5481459  +6.5295735     4790.457     7581.481     8214.312     83.08216       166.23     331.5389      1.697     4.37     950.4854     58.42171     674.3866        30     1.613     0.953  46.85   0
       374     75.7643    419.4845 307.9014088  +6.5009110     1302.819     2477.592     2447.244     83.08216     165.7036     331.4071      1.898     5.29     975.4345     58.42171     179.8771        18     1.411     1.129  65.32   0
       375    607.6171    420.1708 307.6804307  +6.5184893     624.7019     748.2697     493.1588     82.68684     165.5057     331.3742      1.247     3.62     958.3083     58.42171     99.34308         5     1.019     0.370   4.17   0
       376    253.9726    415.2039 307.8275201  +6.5086735     11834.08     20654.77     21477.27     82.55465     165.5717     331.2753      1.840     4.16     967.5224     58.42171     1569.451        46     1.651     1.226  47.84   0
       377     89.7977    409.6739 307.8959111  +6.5054332     841.4321     1336.448     1668.299     82.55465     165.2415     331.3083      2.047     5.46     974.7225     58.42171     106.6533         9     0.930     0.905 -26.09   0
       378    748.7267    409.0731 307.6221780  +6.5277933     622.8571     1126.914     1291.512     83.34467     165.9012     331.4731      1.532     3.45     954.5678     58.42171     108.8033         5     1.020     0.336  45.04   0
       379    716.4853    408.0941 307.6356063  +6.5271189     663.0784     1166.579     1387.609     83.08216     166.1643     331.5389      1.748     3.91      955.145     58.42171     102.8176         6     1.325     0.330  49.51   0
       380    977.3458    407.4698 307.5272459  +6.5360926      927.293     1434.562     1583.808      82.9506     165.7036     331.3412      1.553     5.16     946.7318     58.42171     152.1932         9     1.197     0.628  35.17   0
       381    367.0280    405.1158 307.7808925  +6.5166359     1311.017     2329.339     2214.522     83.08216     165.5057     331.3083      1.815     5.55     961.2521     58.42171     160.3076        18     1.406     1.032  43.77   0
       382    199.6945    405.5078 307.8503971  +6.5108510     739.4148     1291.611     1277.892     83.08216     166.2957     331.4401      1.869     6.40     969.5682     58.42171     97.51367        11     1.496     0.770  43.81   0
       383    154.1742    403.7381 307.8693678  +6.5100502     4322.268     7351.762     7506.953     82.68684     165.7036     331.3742      1.816     4.19     971.9258     58.42171     590.1995        34     1.695     1.118  51.40   0
       384    259.0698    402.6525 307.8258267  +6.5140259     1188.337     1989.699     1466.658      82.9506     165.6376     331.3742      1.716     5.78     966.7443     58.42171     166.9554        12     1.264     0.743  78.75   0
       385    452.1094    402.1779 307.7456442  +6.5207040     582.0251     1210.485      1419.72     83.08216     165.5717     331.3083      2.405     4.37     959.7903     58.42171     91.61584         5     0.862     0.631  36.77   0
       386    176.4610    399.5677 307.8602501  +6.5125215     2009.097       3864.7     4344.234     82.81882     165.8353     331.3742      2.091     5.28     970.7609     58.42171     233.5192        25     1.653     1.027  51.65   0
       387    840.5330    400.1134 307.5843359  +6.5345610     878.3092     1340.701     1540.293     83.08216     166.0328     331.4731      1.660     5.62     952.9184     58.42171     127.6463        10     1.336     0.666  34.16   0
       388    571.7084    398.6689 307.6960737  +6.5261623     918.8582     1389.094      1727.22     83.08216     165.9012     331.4401      1.855     5.13     957.3559     58.42171     120.4012         8     1.136     0.655  37.81   0
       389    399.8453    394.5808 307.7676140  +6.5220863     1744.119     3018.761     3027.233     82.68684     165.6376     331.2094      1.822     4.81     960.5665     58.42171     240.9567        22     1.578     0.952  44.48   0
       390     18.4888    394.9514 307.9260334  +6.5091086     626.6677     1253.202     1423.675     83.08216     165.6376     331.5389      1.993     4.61     977.5326     58.42171     90.38727         7     1.448     0.417  25.66   0
       391    988.0537    393.6122 307.5232619  +6.5421704     1031.976     1769.784     1995.806     82.42224     165.7036     331.1434      1.840     4.18     945.7677     58.42171     152.5003        11     1.148     0.798  47.98   0
       392     49.8664    389.0905 307.9131967  +6.5125849     2673.258     5003.717     5358.648     83.08216     165.9012     331.4731      2.008     4.59     976.1635     58.42171     308.1803        28     1.475     1.192  54.83   0
       393    453.5600    388.0177 307.7455192  +6.5265980     6254.929     10688.17     10826.19     82.68684     165.5717     331.2094      1.797     4.26     958.9979     58.42171     790.6163        38     1.644     1.152  53.49   0
       394    794.1769    385.3940 307.6040907  +6.5390879     11843.21     19189.65     19703.69     82.55465     165.5057     331.3083      1.739     4.11      952.903     58.42171     1569.001        40     1.595     1.088  49.83   0
       395    786.3047    386.9030 307.6073107  +6.5382018     1859.114     2926.387     3415.688     83.08216     166.3614     331.2753      1.751     4.44     953.0723     58.42171     223.0411        20     1.410     0.941  45.24   0
       396    358.0733    383.7637 307.7853336  +6.5251492     910.9434     1509.455     1670.319      82.9506     165.7695     331.4401      1.712     5.58       960.23     58.42171     106.4014        13     1.219     0.874  69.97   0
       397      7.7051    374.9263 307.9311917  +6.5170111     892.7094     2347.531     4281.254      82.9506      165.967     328.3279      4.212    11.61     977.6694     58.42171     111.8526        22     2.784     1.347 -44.09  24
       398    968.4919    376.5439 307.5319624  +6.5485636     685.1655     789.9515     1218.572      82.9506     165.6376     331.5719      1.425     3.67     946.1105     58.42171     100.4139         6     0.915     0.424  70.92   0
       399    473.7887    372.1689 307.7376494  +6.5338188     1843.901     3255.203     2981.631     82.55465     165.5057     331.3083      1.823     5.39     957.6057     58.42171     237.9019        20     1.556     0.925  47.45   0
       400    501.6612    371.5313 307.7260907  +6.5350167     2761.178     4839.187      5018.61     83.21352     165.7036     331.4401      1.875     4.28     957.0178     58.42171     320.5127        26     1.429     1.111  53.36   0
       401    929.8268    371.0763 307.5482109  +6.5495301      764.134     1216.905     1250.374      82.9506     165.7036     331.4071      1.633     3.38     947.1509     58.42171     122.4191         6     0.909     0.446  54.33   0
       402    859.5776    368.3030 307.5774920  +6.5483288      31078.1     51064.48     53755.48     83.08216     165.5057     331.2423      1.797     4.09     951.1063     58.42171     4324.733        57     1.672     1.207  55.83   0
       403    352.2241    363.6204 307.7884438  +6.5332677     626.3035     1245.393     1199.754     82.68684     165.5717     331.3742      2.097     3.32     959.3135     58.42171     104.1567         5     1.227     0.260  55.95   0
       404    631.3992    360.5963 307.6725561  +6.5438781     2384.252     4242.485     4757.529     82.42225     165.3076     331.1764      1.952     4.79     953.7823     58.42171     279.2667        28     1.658     1.041  41.82   0
       405     39.5211    360.8405 307.9184513  +6.5238975     971.2189     1831.406     1982.296      82.9506     165.7695     331.4071      1.862     5.79     976.2456     58.42171     159.6631        12     1.427     0.847  42.31   0
       406    716.0262    354.2867 307.6376073  +6.5493154     71541.12     118215.5     124897.4     83.21352     165.5717     331.3412      1.779     4.08     952.2331     58.42171     8991.592        82     1.711     1.257  46.53   0
       407    161.7912    359.0508 307.8677151  +6.5287528     551.7408     994.0019     1229.506     82.55465     165.6376     331.1104      2.246     5.05     971.1077     58.42171     94.50482         5     1.252     0.577  10.67   0
       408    873.9529    355.6589 307.5719439  +6.5540286     1183.222     1832.878     2083.399     83.08216     165.7695     331.5719      1.683     5.31     949.7944     58.42171     167.2883        15     1.449     0.745  53.25   0
       409     95.1274    353.7664 307.8955894  +6.5286903     1022.048     1913.264     2403.726      82.9506     165.7036     331.4071      2.299     4.58     974.0684     58.42171     152.1815        12     1.280     0.885  33.60   0
       410    578.5231    351.0029 307.6948483  +6.5460671     2337.899     4040.249     4445.458     82.55465     165.2415     331.3083      1.780     4.56     954.1325     58.42171     313.2413        24     1.501     1.015  45.48   0
       411    115.7857    349.8367 307.8871399  +6.5310079     5246.555     9278.539     9636.958     82.68684     165.5717     331.2094      1.875     4.33     973.0573     58.42171     645.9843        37     1.613     1.196  43.17   0
       412    957.0884    350.9164 307.5375606  +6.5587622     793.3223      1055.55     1109.684     82.81882      165.967     331.4731      1.449     3.60     945.3179     58.42171     146.9044         7     0.996     0.523  32.42   0
       413    561.7221    347.1510 307.7019586  +6.5470942     6233.602     10797.36     11429.43     83.08216     165.8353     331.4071      1.851     4.30     954.1642     58.42171      733.941        36     1.630     1.137  49.95   0
       414    290.8123    344.8644 307.8145918  +6.5389471     2225.644     3763.132     3988.838     82.55465     165.5717     331.2753      1.779     4.39     961.4288     58.42171     295.6843        24     1.419     1.098  55.30   0
       415    424.6382    342.3469 307.7590760  +6.5444802     22124.06     39234.67     41089.93      82.9506     165.8353     331.4401      1.891     4.19     957.3136     58.42171     2658.983        61     1.729     1.327  48.16   0
       416    603.8361    341.9801 307.6846351  +6.5506397     656.3176     724.7278      146.861     82.55465     165.5717     331.2094      1.298     2.76     952.8288     58.42171      128.609         5     0.654     0.556  -1.57   0
       417    532.4101    341.0103 307.7143442  +6.5486466     1026.282     1760.296       2368.7     82.68684     165.5717     331.3742      1.979     4.87      954.256     58.42171     153.2061        14     1.380     0.679  52.90   0
       418    404.2037    340.2299 307.7676375  +6.5446683      1023.78     1847.463     3329.179     82.55465     165.6376     331.2753      2.765     5.75      957.689     58.42171     128.8792        11     1.039     0.896 -87.80   0
       419    503.9233    337.7414 307.7262901  +6.5490410     1114.445     1829.567     1816.616     83.21352     165.7695     331.4071      1.773     4.80     954.6684     58.42171     153.3401        14     1.271     0.818  33.32   0
       420    513.8348    332.7909 307.7223390  +6.5514168     7305.716      12985.9     13581.97     82.55465     165.5717     331.2423      1.871     4.31     953.9595     58.42171     884.4548        39     1.628     1.226  52.29   0
       421    818.9478    334.7325 307.5955016  +6.5608292     673.1479     932.1527     432.6796      82.9506     165.7036     331.3742      1.448     4.91     950.3697     58.42171     141.6069         7     1.384     0.527  57.81   0
       422    655.6525    334.5474 307.6633563  +6.5554432     530.1473     947.4159     996.1115     83.34467     165.6376     331.4731      1.746     4.87     951.8038     58.42171     83.37292         6     0.960     0.700 -23.36   0
       423    782.9428    331.5930 307.6105672  +6.5609215     2855.172     4789.021     5234.327     82.55465     165.6376     331.1434      1.803     4.98     950.8124     58.42171     384.4858        23     1.560     0.918  44.37   0
       424    938.1364    330.9005 307.5461071  +6.5663923     934.2197     1516.604     2027.625      82.9506     165.8353     331.4731      1.745     5.95     944.8365     58.42171      129.993        12     1.465     0.679  56.20   0
       425    729.9829    330.7673 307.6325997  +6.5594912     694.3343     831.2151     1114.328     82.68684     165.5717     331.3083      1.393     4.65     951.0679     58.42171     117.5426         6     1.095     0.561  79.42   0
       426    340.1900    329.7412 307.7945877  +6.5468486     790.3359     1579.995     1735.418     82.42225     165.6376     331.1434      2.072     6.90     958.9641     58.42171     90.98035        14     1.582     0.843  65.39   0
       427    175.5576    323.3131 307.8632046  +6.5439679     1039.516     1699.171     1540.262     83.08216     165.6376     331.4731      1.783     5.60      969.457     58.42171     141.6688        13     1.410     0.841  32.03   0
       428    403.6399    316.9826 307.7686564  +6.5542457     6392.053     11599.21     12097.75     82.68684     165.5717     331.2094      1.892     4.39     956.6985     58.42171     804.6138        40     1.683     1.198  46.32   0
       429    259.4358    317.5241 307.8285516  +6.5491783     1824.069     3270.664     3768.229      82.9506     165.8353     331.4731      1.950     4.45      962.963     58.42171     251.9789        24     1.462     1.103  42.63   0
       430    757.0114    316.7114 307.6218421  +6.5661975     818.7265     1340.882     1561.726     82.81882     165.5057     331.2753      1.717     5.06     950.2808     58.42171     119.6508         8     1.287     0.563  43.00   0
       431    771.5149    312.8311 307.6159464  +6.5682844     49325.24     80614.13     84500.14     83.08216     165.5717     331.3083      1.771     4.40     949.9902     58.42171     6565.261        68     1.692     1.191  46.17   0
       432    443.0837    312.2153 307.7524290  +6.5575373      1985.91     3751.669     3534.585     82.68684     165.4397     331.3412      1.908     4.88     954.8383     58.42171     263.2136        25     1.586     1.029  57.39   0
       433   1006.4878    309.8661 307.5184123  +6.5773564     1698.959     2745.519      2337.36     83.08216      165.967     331.4401      1.735     4.40     941.7917     58.42171     259.4611        15     1.377     0.725  45.29   0
       434    947.0062    308.9711 307.5431578  +6.5757410     2246.757     3550.036     3989.611     82.55465     165.5717     331.2423      1.640     4.42     943.5828     58.42171     310.3421        19     1.439     0.868  50.53   0
       435    589.0319    309.2224 307.6918896  +6.5636661     1033.282     1644.557     1757.602     82.55465     165.5717     331.2423      1.605     3.90     950.3705     58.42171     144.8157        12     1.082     0.783 -59.83   0
       436    429.8339    307.9314 307.7580786  +6.5588611     1734.661     3142.169     3246.898      82.9506     165.7695      331.506      1.917     5.22      955.193     58.42171     221.3829        22     1.561     1.010  49.83   0
       437    480.3414    308.0525 307.7370892  +6.5605056     936.3861     1804.019     2354.365     83.08216     165.7695     331.4401      2.334     5.52     952.8463     58.42171     132.3298        11     1.384     0.660  37.68   0
       438    850.8657    302.6245 307.5833186  +6.5751502     1157.017     2069.885     2523.974     82.68684     165.7695     331.3412      1.872     5.06     947.5973     58.42171     165.6476        13     1.497     0.584  43.34   0
       439    982.1622    299.9907 307.5288514  +6.5806215     502.4507      756.513     423.2062     82.28963     165.5717     331.1434      1.565     3.58     941.9903     58.42171      88.3855         5     1.360     0.272  79.23   0
       440    460.2799    299.4136 307.7457160  +6.5633987     923.0349     1717.142     1589.891     82.68684     165.5057     331.2423      1.791     6.72      953.139     58.42171     130.2272        13     1.454     0.960  45.22   0
       441    206.2651    299.1942 307.8512623  +6.5549568     1942.409     3315.757     3309.643     82.55465     165.5057     331.2094      1.873     4.63     966.9856     58.42171     244.8589        23     1.471     1.044  47.72   0
       442    769.9423    297.4486 307.6171171  +6.5745817     5599.972     9141.258     9657.957     83.08216     165.7695     331.5389      1.741     4.25     949.2652     58.42171      738.151        31     1.576     1.031  41.69   0
       443    241.6574    297.8083 307.8366046  +6.5567190      613.981     972.5755      1026.12     82.42225     165.6376     331.1764      1.914     5.54     963.9927     58.42171     94.48047         8     1.201     0.754 -11.94   0
       444    786.2516    295.2716 307.6104136  +6.5760258     2449.366      3874.26     4226.105      82.9506     165.7695     331.4731      1.736     3.96     949.0251     58.42171     352.1042        22     1.393     0.926  50.21   0
       445    102.6256    296.5122 307.8944124  +6.5525762     1038.187     1899.128     2403.633     83.21352     165.5717     331.3083      2.120     5.37     972.2705     58.42171     144.2426        14     1.243     0.890  36.96   0
       446     89.5897    290.6516 307.9000268  +6.5545565     1157.071     2013.589     1843.644     82.42225     165.6376     331.1764      1.815     4.69     972.6166     58.42171     169.8076        14     1.297     0.774  45.68   0
       447    375.9909    290.0192 307.7810543  +6.5644478     1475.152     3350.522     3573.437     82.81882     165.5057     331.2753      2.293     7.93     956.9658     58.42171     171.1121        28     1.868     1.095  15.81   0
       448   1023.5703    285.8739 307.5121191  +6.5878304     4076.386     4941.339     5229.531     73.60208     133.5086     251.2106      1.107     2.97     939.7748     58.42171     925.7467        15     1.189     0.586  84.68  24
       449    502.4933    285.8350 307.7286345  +6.5704197     1859.294     3371.575     3730.276     83.21352     165.6376     331.5389      1.853     4.56     950.2536     58.42171     270.3158        22     1.440     1.025  54.42   0
       450    265.2429    281.8133 307.8273459  +6.5641145     4980.579     8687.001     9657.924     82.42225     165.5717     331.1764      1.866     4.12       961.29     58.42171     656.0261        35     1.620     1.148  49.30   0
       451    932.0410    279.9931 307.5503491  +6.5872037     491.7886     812.1857     926.1641     82.42225     165.4397     331.1434      1.676     2.96     942.8755     58.42171     88.77478         5     0.635     0.585   0.26   0
       452    955.8124    276.9795 307.5405727  +6.5892413     550.1824     531.2206    -63.69563     82.81882     165.4397     331.3412      1.501     3.41     941.9175     58.42171     101.5049         5     0.810     0.488  36.29   0
       453    785.0026    275.1956 307.6116077  +6.5842714     558.6785     970.3124     866.6129     82.42225     165.3076     331.2423      1.756     5.06      948.203     58.42171     102.6658         8     1.279     0.566  28.33   0
       454    399.4962    272.5858 307.7718765  +6.5724332     1589.996     2685.328      2383.91     82.81882     165.5057     331.2094      1.875     6.37      954.877     58.42171     194.0118        20     1.588     0.945  46.60   0
       455    986.4464    271.5732 307.5280249  +6.5924953     1152.409     1926.579     2512.918     82.68684     165.8353     331.3412      1.918     5.02     940.6943     58.42171     199.1328        13     1.366     0.741  55.42   0
       456    321.9449    268.4748 307.8042375  +6.5715259     1019.341     1755.139     1988.033      82.9506     165.7036     331.4071      1.926     6.53     957.8745     58.42171      129.226        15     1.366     1.013  12.28   0
       457    169.1731    268.0606 307.8677264  +6.5665605     1387.719     2544.836     2533.103     82.68684     165.8353     331.3083      1.891     5.03     968.2209     58.42171     200.7065        18     1.425     0.971  54.54   0
       458    578.7310    263.9486 307.6976951  +6.5820098     1824.074     3294.521     3894.179      82.9506     165.6376     331.3742      1.944     5.07     947.7924     58.42171     242.6218        21     1.444     0.982  38.05   0
       459    922.4288    263.1846 307.5549076  +6.5938214     1833.387     3147.423     3704.562     82.68684     165.5057     331.3412      1.860     4.55     942.6575     58.42171     244.7772        19     1.403     0.895  37.76   0
       460    742.4034    261.5847 307.6297662  +6.5884653     4674.147     7705.522     8147.949     82.68684     165.3737     331.2753      1.773     4.21     947.9415     58.42171     640.3723        32     1.536     1.099  49.01   0
       461    683.1055    261.2368 307.6544173  +6.5866247     1988.934     3292.456     3097.546     83.21352     165.6376     331.5389      1.731     4.19     948.1058     58.42171     277.5829        20     1.392     0.905  53.61   0
       462    979.9857    260.8684 307.5310688  +6.5966987     776.0998     1204.377       1369.4     82.55465     165.6376     331.3412      1.675     4.34     940.5459     58.42171     108.9902         7     0.869     0.668  58.14   0
       463    241.6035    274.2075 307.8374248  +6.5664593     625.0209     1099.184       1305.6     82.42225     165.4397     331.3083      1.896     5.22     963.6813     58.42171     88.33545         5     1.403     0.549  53.74   0
       464    938.4170    253.7383 307.5485812  +6.5982547     1019.465     1617.575     1630.244     82.55465     165.7036     331.2423      1.746     6.86     941.7355     58.42171      147.855        13     1.418     0.930  28.41   0
       465    241.7410    246.8486 307.8382926  +6.5777573     1985.399      3499.55     3782.681     83.08216     165.7695      331.506      1.790     4.69     963.5607     58.42171     280.0482        24     1.571     1.022  56.54   0
       466    884.5970    245.8559 307.5712099  +6.5997113      1563.83     2662.046     2555.715     82.42225     165.5717     331.1104      1.747     5.02     943.4559     58.42171     211.7421        17     1.472     0.808  57.25   0
       467    775.0590    245.3938 307.6167417  +6.5962412     1591.767     2468.843     2407.233     82.42224     165.6376     331.1764      1.586     4.29     947.0662     58.42171     215.6102        16     1.336     0.796  49.50   0
       468    263.4622    240.3282 307.8294880  +6.5811791     647.5369     972.6064       823.22     83.21352     165.7695      331.506      1.818     7.23     961.3973     58.42171     102.5511         9     1.666     0.879  39.71   0
       469    475.8302    236.7140 307.7413698  +6.5898023     19472.95     34574.14     36505.51     83.21352     165.5057     331.3412      1.899     4.27     948.3096     58.42171     2230.359        54     1.719     1.275  49.52   0
       470    801.8477    235.8445 307.6059313  +6.6010788     12162.23     20258.69     22024.89     83.08216     165.7036     331.3742      1.823     4.26     946.6129     58.42171     1665.912        50     1.695     1.254  37.65   0
       471    336.0217    238.2069 307.7994111  +6.5844930     503.3349     1088.056     1148.186     82.55465     165.5717     331.2423      2.514     3.79     956.3599     58.42171     75.27014         5     0.811     0.508 -57.05   0
       472    481.6520    231.4982 307.7391267  +6.5921506     1319.401     2397.131     2706.367      82.9506     165.7695     331.6378      1.919     5.68     947.6167     58.42171     185.5294        18     1.490     0.918  46.82   0
       473    740.4354    231.6224 307.6315920  +6.6007679     640.5512     1186.647      1506.59     82.55465     165.5057     331.2094      1.449     3.55     946.5779     58.42171      102.869         5     1.315     0.276  44.81   0
       474    164.0861    229.9931 307.8711279  +6.5821029     1927.102     3390.542     3474.046     82.55465     165.4397     331.1764      1.825     5.26     966.5911     58.42171     226.2476        22     1.502     0.986  47.30   0
       475    138.7226    228.8353 307.8817054  +6.5817272     909.5386     1636.873     1796.013      82.9506     165.8353     331.4731      1.935     5.91     968.2742     58.42171     135.0874        12     1.510     0.759  54.52   0
       476    191.0422    228.8520 307.8599663  +6.5834809     516.2817     934.4448     908.8917     83.08216     165.8353     331.4731      1.937     4.71     965.9427     58.42171     99.55847         5     1.241     0.506  65.99   0
       477    793.7259    228.3547 307.6095580  +6.6038991     740.9376     1315.996     1347.774      82.9506     165.8353     331.4731      1.837     5.14     946.3697     58.42171     109.4749         8     1.050     0.712   6.63   0
       478    938.0724    226.1729 307.5496499  +6.6096223     1477.126     2039.703     2084.201     82.81882     165.7036     331.3412      1.537     4.83      940.738     58.42171     191.6884        14     1.279     0.780  48.89   0
       479      2.2674    223.4604 307.9385831  +6.5793497     4181.559     6539.807     6926.729     82.28963     145.5627     265.0466      1.713     4.42     975.7312     58.42171     568.3466        28     1.609     1.017  64.59  24
       480    599.8936    222.4025 307.6903015  +6.5998690     4208.851      7097.39     7565.347     82.68684     165.4397     331.1104      1.826     4.28     946.1765     58.42171     527.6592        30     1.601     1.047  51.61   0
       481    562.6034    222.4611 307.7057945  +6.5985952     1820.041     3192.885     3332.932     82.42225     165.5057     331.1434      1.828     5.55     946.4161     58.42171     221.9872        21     1.661     0.823  48.05   0
       482    320.3399    223.2555 307.8064320  +6.5901380     898.8422     1491.565     1405.822     83.21352     165.7695     331.4731      1.704     6.23     956.9206     58.42171      120.498        11     1.445     0.756  44.61   0
       483    404.1365    221.4846 307.7716734  +6.5936831     1324.267     2369.815     2282.919     83.21352     165.9012     331.4071      1.847     5.01      951.776     58.42171     153.5271        19     1.365     0.989  50.32   0
       484    906.9471    219.0585 307.5628227  +6.6115199     10685.31     16691.94     17571.75     83.08216     165.7695     331.4401      1.625     4.23     941.4557     58.42171     1481.445        37     1.569     1.010  50.09   0
       485    960.7916    219.6362 307.5404286  +6.6130790     2666.915     4015.328     4404.885     82.55465     165.5057     331.2094      1.691     3.98     939.6875     58.42171     356.4468        21     1.399     0.884  47.41   0
       486    334.9618    218.8887 307.8005040  +6.5924318     716.1766     1531.425     861.5056     83.08216     165.6376     331.4731      2.064     6.83     956.0425     58.42171     89.98853        14     1.827     0.715  53.62   0
       487    993.5507    216.9075 307.5269073  +6.6152987     9700.491     14962.68     14938.83      82.9506     165.6376     331.6048      1.635     4.11     938.4628     58.42171     1432.809        37     1.583     0.971  47.22   0
       488    705.0905    217.0369 307.6467697  +6.6056062     2482.661     4461.661      4802.35     83.21352     165.7036     331.4731      1.906     5.02     946.3398     58.42171     288.1968        28     1.675     1.031  51.86   0
       489    582.0124    218.6832 307.6978569  +6.6008051     927.0114     1355.768     1254.905     82.68684     165.5057     331.2753      1.614     5.12     946.2222     58.42171     116.1006        10     1.212     0.614  50.77   0
       490    225.5372    218.7125 307.8459766  +6.5888266     496.0095     744.9034     1115.736      82.9506      165.967     331.4401      1.446     4.47     964.9497     58.42171     95.80353         5     0.786     0.737 -29.30   0
       491     33.1086    215.5899 307.9260356  +6.5836378     22289.19     39362.31     41924.26     82.81882     165.3737     331.1764      1.876     4.17     974.3178     58.42171     2942.928        61     1.742     1.299  51.36   0
       492    279.3651    216.9888 307.8236691  +6.5913478     1038.179     1710.154     1698.082     82.55465     165.5717     331.2423      1.709     6.13     960.1933     58.42171     122.9517        13     1.385     0.763  61.14   0
       493    513.5343    211.6837 307.7265472  +6.6013991     1789.885     2854.873     3115.559     83.21352     166.0328      331.506      1.856     4.43     946.4858     58.42171     215.9312        19     1.239     1.059  49.96   0
       494    845.1802    208.3083 307.5888507  +6.6138941     1925.849      3080.07     3112.354      82.9506     165.5057     331.3083      1.702     4.80      943.452     58.42171     268.8512        20     1.432     1.028  58.07   0
       495    757.0887    204.9552 307.6255691  +6.6123332     36521.96     60156.77     63460.86     83.08216     165.6376     331.4731      1.740     4.19     945.7244     58.42171     4576.922        65     1.680     1.206  47.83   0
       496    525.5708    207.8424 307.7216752  +6.6033884     2094.822      3575.93     3313.837     82.68684     165.7036     331.3083      1.797     4.69     946.2223     58.42171     266.3141        22     1.349     1.062  50.63   0
       497    897.6548    207.4436 307.5670742  +6.6160042     2078.596     3070.498     3693.847     83.08216     165.7695     331.4401      1.650     4.15     941.1969     58.42171     287.2878        16     1.242     0.863  50.27   0
       498    360.1151    204.3677 307.7905429  +6.5992707     5076.413     11552.48     13091.32     83.08216     165.5717     331.3742      2.367     5.70     954.2861     58.42171     528.6096        49     2.016     1.412  83.82   0
       499    990.8297    203.7176 307.5284807  +6.6206528     2842.597     4248.354     4592.781      82.9506     165.5717     331.4071      1.632     4.05     937.8034     58.42171     442.4907        21     1.405     0.856  47.03   0
       500    925.0411    202.1564 307.5558715  +6.6191013     7312.565     11544.95     11905.47     82.81882     165.7695     331.3412      1.666     4.13      939.854     58.42171     993.8012        32     1.498     1.022  47.03   0
       501    468.5391    201.2071 307.7455971  +6.6042147     4206.987      7643.13     8513.946     82.42225     165.5717     331.1764      1.927     4.35     947.0729     58.42171     477.3033        38     1.685     1.209  41.89   0
       502    125.8077    192.4176 307.8883042  +6.5963250     4129.939      7161.99     7757.707     82.68684     165.5057     331.2753      1.870     4.31     967.7866     58.42171      554.675        34     1.587     1.168  43.52   0
       503    296.2028    189.1652 307.8176132  +6.6033989     28229.53        51245     54205.19     82.15679     165.5717     331.2094      1.928     4.26     960.5135     58.42171     3487.031        66     1.751     1.335  52.86   0
       504    945.3444    191.7479 307.5477840  +6.6240758     882.3669     1148.013     1561.981     83.08216     165.7695     331.4071      1.417     3.46     938.6062     58.42171      137.707         9     1.132     0.597  37.08   0
       505    271.4873    190.1356 307.8278501  +6.6021677     5534.521     9901.547     10353.25     83.08216      165.967     331.4731      1.911     4.49     962.0738     58.42171     674.4335        38     1.663     1.188  49.81   0
       506    724.8952    187.9471 307.6395191  +6.6182772     729.5702     1317.355     1694.221      82.9506     165.7036     331.7036      1.922     4.59     945.6644     58.42171      129.431         7     1.139     0.525  36.38   0
       507    420.2811    184.6316 307.7662089  +6.6094376     42818.58      75929.8      80770.8      82.9506     165.7036     331.4071      1.903     4.23     948.6201     58.42171      5218.76        76     1.791     1.327  46.03   0
       508    176.3457    185.8561 307.8675273  +6.6007344     3487.444     6215.738      6996.03     83.21352     165.8353     331.4731      1.985     4.41      965.498     58.42171     423.9333        33     1.566     1.224  51.58   0
       509    437.6152    185.0551 307.7589919  +6.6098445     1155.384      2261.12     2407.692     82.42224     165.7695     331.1434      1.851     4.53     947.8237     58.42171     174.7687        16     1.183     1.017  56.79   0
       510    324.2706    182.3096 307.8061821  +6.6071720     15431.21     27820.34     30316.63      82.9506     166.0328     331.4401      1.938     4.35      957.933     58.42171     1899.395        53     1.734     1.301  46.02   2
       511    331.4686    181.9509 307.8032033  +6.6075619     1856.761     3773.413     4856.321     83.08216     165.7036     331.4401      2.411     5.81     957.1816     58.42171     243.9313        31     1.676     1.370 -79.14   3
       512    759.5209    180.8772 307.6253684  +6.6223539     30200.55     49193.76     51401.84     83.34467     166.0328     331.5719      1.768     4.31     945.0237     58.42171     3872.548        56     1.679     1.162  47.38   0
       513    707.5748    182.7673 307.6468908  +6.6198358     782.6058     1228.945     1530.367     82.55465     165.5717     331.2753      1.904     6.40     945.6321     58.42171     111.7825        12     1.137     1.012   8.43   0
       514    807.4373    180.9699 307.6054537  +6.6239179     1017.613         1674     2082.312     82.68684     165.5057     331.3083      1.691     5.00      943.926     58.42171     136.1981        10     1.116     0.747  67.00   0
       515     76.4367    178.1384 307.9093015  +6.6005566     7968.521     13678.07     14276.81     83.08216     165.8353     331.4401      1.840     4.34     970.4464     58.42171     974.1307        38     1.655     1.133  48.13   0
       516    110.1288    176.1054 307.8953711  +6.6025305     1292.295     2175.189     2267.136     83.08216     165.8353     331.4071      1.792     4.68     967.7879     58.42171     179.9668        16     1.218     1.009  41.03   0
       517   1017.7467    175.1520 307.5182538  +6.6333427      1020.36     1429.982     1573.982     83.08216     165.7695     325.4881      1.451     4.24     935.2257     58.42171      168.338         7     0.889     0.578  56.12  16
       518    593.5236    165.0622 307.6948804  +6.6233253     663.6265     1132.242     695.3771     83.34467     165.7695     331.4401      1.674     4.81     945.1003     58.42171     91.75653         8     1.142     0.573  33.24   0
       519   1018.9254    161.6204 307.5182180  +6.6389680     2051.809     3409.052     3931.626     82.68684     165.6376     315.1222      1.863     4.86     934.4273     58.42171     290.2036        21     1.602     0.814  40.09  16
       520      9.8526    163.0274 307.9374795  +6.6045506      844.071     1230.439     200.5079     82.81882     165.9012     331.3742      1.525     5.48     977.1952     58.42171     110.1667        10     1.332     0.637  41.24   0
       521    601.8912    159.2695 307.6915985  +6.6259969     768.9308      1420.19      1742.48     83.08216     165.9012     331.4401      1.937     5.80     945.0311     58.42171     123.7526         9     1.348     0.702  39.30   0
       522    610.4065    157.2783 307.6881270  +6.6271041     1628.795      2980.91     3952.044     82.68684     165.2415     331.2094      2.130     5.30     945.0125     58.42171     209.9949        23     1.569     1.091  50.88   0
       523    354.1942    156.8826 307.7946069  +6.6186731       820.59     1301.075     1400.786     82.68684     165.3737     331.2094      1.966     5.87     954.7217     58.42171      120.897        11     1.419     0.684  50.90   0
       524    295.1338    155.3832 307.8191990  +6.6173077     26115.05     46817.66     49866.14     82.55465     165.7036     331.3083      1.900     4.24     962.3469     58.42171       3299.8        60     1.740     1.310  49.39   0
       525     40.3384    154.1327 307.9251138  +6.6092495     4007.522     6932.656     7099.912     83.08216     165.7036     331.4401      1.884     4.81     973.5307     58.42171     516.0077        33     1.638     1.286 -89.21   0
       526    204.0807    153.5550 307.8570957  +6.6150008     887.6252     1688.359     1625.466     83.08216     165.7695     331.4401      2.035     5.95     964.3308     58.42171     124.6519         9     1.169     0.852 -57.28   0
       527    726.7314    151.9994 307.6399658  +6.6331777     7051.596     11523.99     12419.87     82.55465     165.3076     331.2423      1.753     4.10     944.6641     58.42171     950.2318        37     1.596     1.111  48.59   0
       528    137.5182    149.0904 307.8849049  +6.6146038     4417.063       7656.7     8021.369     82.81882     166.0328     331.5389      1.850     4.07     966.0367     58.42171     511.6636        36     1.657     1.159  52.11   0
       529    598.6707    147.1580 307.6933448  +6.6308885     867.5144     1386.213     1810.494      82.9506     165.7695      331.506      1.809     4.65     944.3785     58.42171     125.8118         8     0.982     0.625  85.74   0
       530    408.2154    145.2411 307.7725523  +6.6252926     3217.062     6034.687     6706.062     82.55465     165.5717     331.2094      2.030     4.72     948.1592     58.42171     384.0139        34     1.732     1.141  51.62   0
       531    665.2180    146.0587 307.6657280  +6.6335711     692.9631     888.3496     966.1282     82.68684     165.6376     331.2094      1.396     4.69     944.3982     58.42171     109.1668         7     0.976     0.640  76.21   0
       532    476.4000    146.1854 307.7441869  +6.6271909     1178.258     1964.477     1899.465     82.55465     165.3737     331.1434      1.843     6.33     944.8895     58.42171     140.7331        16     1.458     0.893  45.10   0
       533    372.5651    144.0243 307.7874074  +6.6245978     2773.841     4934.264     5236.879     82.55465     165.5717     331.2094      1.865     4.41     952.4512     58.42171     334.0973        30     1.535     1.179  53.93   0
       534    127.1694    143.8663 307.8893819  +6.6164118     1607.574     2886.655     3324.521     82.81882     165.7695     331.3742      1.987     5.68     966.2886     58.42171     196.7501        22     1.579     0.988  34.73   0
       535    688.3181    141.5830 307.6562793  +6.6361920     623.2083     958.9946     1100.054     82.68684     165.4397     331.3412      1.590     4.15     944.1572     58.42171     113.7905         5     1.218     0.500  46.34   0
       536   1019.5369    138.2784 307.5187472  +6.6486240     1536.687      2342.54       2226.2     83.34467     165.8353     308.8558      1.667     3.66     934.1689     58.42171      279.595        15     1.324     0.836  36.09  16
       537    224.5573    133.0126 307.8492820  +6.6241691     4818.483     8645.369     8638.515     82.42224     165.5717     331.1764      1.871     4.37     963.6129     58.42171     554.0262        38     1.676     1.215  47.29   0
       538    686.2626    131.8254 307.6574620  +6.6401511     5589.483     9450.145     10198.96     82.68684     165.7036     331.3412      1.788     4.33     943.6025     58.42171     711.4961        32     1.566     1.064  49.64   0
       539    107.1468    132.8818 307.8980736  +6.6202718      1797.18     3008.161     3401.671     83.08216     165.7695      331.506      1.765     5.26      966.691     58.42171     216.0084        19     1.327     1.059  54.32   0
       540    834.3591    131.3135 307.5959355  +6.6453160     962.9045     1436.837     1248.732     83.08216     165.7036     331.4731      1.465     4.67     940.1186     58.42171     144.1102         9     1.251     0.495  41.49   0
       541    638.4744    129.0802 307.6774132  +6.6396843     8274.514     14153.88     15348.54     83.34467     166.0328      331.506      1.865     4.29     943.4487     58.42171     1042.821        45     1.707     1.193  49.23   2
       542    642.0217    120.5465 307.6762266  +6.6433257     47424.51     80225.23     85107.53     82.55465     165.7695     331.2423      1.814     4.19      943.002     58.42171     5914.009        72     1.736     1.254  48.72   2
       543    272.6131    129.2764 307.8294395  +6.6273272     609.6062     864.0074     740.6746     82.68684     165.3737     331.2753      1.531     4.87     963.2363     58.42171     87.32013         6     0.934     0.718 -85.27   0
       544     37.4735    128.4497 307.9271744  +6.6197543     843.9039     1502.386     1433.395     83.08216     165.8353     331.4731      1.870     5.70     972.6324     58.42171      116.039        10     1.365     0.670  64.93   0
       545    365.5362    124.6815 307.7909815  +6.6323462     3212.349     5936.728     6499.989     83.21352     165.8353     331.4401      2.006     4.15     953.3431     58.42171     378.7976        35     1.542     1.341  79.77   0
       546    547.4055    124.1446 307.7154239  +6.6386703     1525.075     2325.348     2452.395     82.55465     165.5717     331.1104      1.635     4.37     943.3854     58.42171     211.3644        15     1.300     0.780  37.24   0
       547   1011.7581    123.6778 307.5224698  +6.6543917     888.5504      1420.25     1094.478      82.9506     165.7695      331.506      1.521     5.37     934.2502     58.42171     128.3455        11     1.376     0.670  25.57   0
       548    321.1392    114.2410 307.8097831  +6.6351645     3228.114     5544.773     5703.399     83.08216     165.7695     331.4731      1.834     4.18     959.0947     58.42171     391.8813        27     1.543     1.045  43.24   0
       549     18.6677     97.4321 307.9360397  +6.6319237     746199.8      1784241      1956737      82.9506     165.7695     331.4071      2.326     5.95     972.5936     58.42171     61450.33       444     2.269     1.871  55.30   4
       550    720.8055    108.8320 307.6438811  +6.6507988     1053.103     1571.498     1745.175     82.42224     165.5717     331.2094      1.477     4.70     942.2926     58.42171     158.0234        11     1.214     0.658  41.23   0
       551    692.1061    107.4745 307.6558534  +6.6503986     1050.547     1731.407     2081.149     82.81882      165.967     331.4401      1.837     5.78      942.205     58.42171     152.9036        13     1.458     0.712  39.13   0
       552    706.2817    104.4739 307.6500635  +6.6521117     2944.635     4734.632     4489.568     83.34467     166.0986      331.506      1.719     4.18     942.0274     58.42171     426.9953        25     1.573     0.919  52.75   0
       553    448.1345     95.4737 307.7576438  +6.6471758     3724.285     6388.911     6879.681     83.21352     165.7695     331.4401      1.862     4.18     944.9171     58.42171     459.6135        30     1.494     1.137  49.60   0
       554    902.6481     91.7473 307.5688860  +6.6639305     2030.236     2907.167     3294.244     83.21352     165.7036     331.4401      1.556     3.77     935.8811     58.42171     326.9858        17     1.391     0.796  45.21   0
       555    920.7177     90.8519 307.5614067  +6.6649036     3753.071     5833.205     6283.464     83.08216     165.7695      331.506      1.628     3.96     935.2853     58.42171     551.5656        27     1.477     0.967  44.08   0
       556    411.5317     87.3638 307.7731281  +6.6492949     1637.849     2864.541     2684.144      82.9506     165.8353     331.5389      1.869     5.07     947.1384     58.42171     174.3068        22     1.491     1.014  47.13   0
       557    258.3728     88.7628 307.8367266  +6.6435718     717.9455     1115.438     1102.353     82.68684     165.5717     331.2423      1.756     4.48     963.1658     58.42171     104.1568         5     0.821     0.697  23.24   0
       558    159.4053     84.3238 307.8780023  +6.6420748     2807.995     5007.508     5318.084     82.68684     165.2415     331.2753      1.949     4.56     964.6592     58.42171     333.2358        27     1.594     1.046  43.30   0
       559    307.2582     83.2786 307.8165976  +6.6474788     1173.067     2461.334     3598.444     83.21352     165.7695     331.3742      2.637     7.80      960.794     58.42171     128.7265        17     1.505     1.179 -47.60   0
       560     41.3689     82.1121 307.9271258  +6.6390125     11181.08     19432.71     21228.11     83.21352     165.5717     331.3742      1.870     4.18      969.973     58.42171     1398.747        45     1.698     1.194  47.36   0
       561    568.1976     81.6758 307.7082152  +6.6568979     680.1548     1020.946     1189.208     82.55465     165.2415     331.3412      1.583     4.32     941.8762     58.42171     122.2216         7     0.902     0.590  26.47   0
       562    962.2920     80.9219 307.5444624  +6.6703907     594.5443     880.0211     748.1262     82.81882     166.0986     331.4731      1.317     4.24     933.6622     58.42171     101.1625         6     1.311     0.392  20.87   0
       563    775.5469     81.1770 307.6220625  +6.6640459     626.8826     1217.015     1718.416     82.55465     165.7695     331.2423      2.096     1.92     939.3326     58.42171     151.0262         5     0.697     0.468  70.83   0
       564    843.0936     76.7459 307.5941401  +6.6681333     6024.396     9802.967     10652.71      82.9506     165.7036     331.6707      1.739     4.33     936.9077     58.42171     836.8549        32     1.608     1.002  49.80   0
       565    788.1480     77.1031 307.6169627  +6.6661491     3039.886     4847.854     4758.535      82.9506     165.7695     331.7036      1.674     4.12     938.8245     58.42171     392.8339        26     1.473     1.023  47.82   0
       566    612.8975     89.6442 307.6893706  +6.6551065     1480.088     2534.364     2698.637     83.08216     165.7036     331.6707      1.826     5.66     941.3743     58.42171     202.9424        17     1.428     0.800  40.42   0
       567    433.0992     77.7203 307.7644910  +6.6539996     1051.534     1705.898      1627.33      82.9506     166.1643     331.4731      1.718     5.99     945.5201     58.42171     135.4301        14     1.278     0.809  38.44   0
       568    550.6821     74.8181 307.7157253  +6.6591416      924.191     1616.757     1633.147     82.68684     165.4397     331.3742      1.740     4.76     942.0336     58.42171     132.4289        11     1.188     0.725  69.06   0
       569     81.7070     74.0568 307.9106367  +6.6436966     2906.196     4994.501     5073.555      82.9506     165.7695     331.6378      1.852     4.44     966.8576     58.42171     385.9102        26     1.497     1.068  53.94   0
       570    443.0557     73.4409 307.7604979  +6.6561002     860.8143     1563.799     1804.654      82.9506     165.8353     331.4731      2.140     4.96     944.8655     58.42171     121.1675         9     1.148     0.607  35.84   0
       571     65.7598     74.4061 307.9172516  +6.6430152     736.3618     1081.995     1044.616     82.28963     165.4397     331.1104      1.574     3.78     967.8904     58.42171     107.2136         6     0.724     0.659  72.67   0
       572    605.1903     70.2630 307.6932266  +6.6628487     1199.243     1978.128     2244.685     82.55465     165.5717     331.2423      1.915     4.19     940.6547     58.42171     135.7593        15     1.084     1.012  85.73   0
       573     24.1829     69.5312 307.9346935  +6.6436264     2320.895     4246.844     5203.352     82.55465     165.6376     331.3412      2.005     5.37      970.324     58.42171     302.4606        26     1.573     1.084  42.92   0
       574    184.8526     66.0823 307.8680450  +6.6504609     358.1759     467.2599     312.3688     83.08216     165.7695     331.4731      1.528     4.84     963.8135     58.42171      83.8562         5     1.502     0.442  66.57   0
       575    782.7040     64.6700 307.6196434  +6.6710993     1774.667     2846.763      3110.16      82.9506     165.8353     331.4401      1.768     4.45     938.5488     58.42171     303.0667        19     1.521     0.774  51.11   0
       576    423.5226     64.4322 307.7689193  +6.6591633     870.0726     1781.099      2112.23      82.9506     165.7695     331.3742      2.149     5.66     945.9965     58.42171     132.6456        10     1.357     0.665  33.12   0
       577     96.4788     64.3354 307.9048277  +6.6482069     696.1428     1107.238     1071.677     83.34467     165.8353     331.4071      1.851     3.42     965.7175     58.42171     122.9188         5     0.761     0.444 -68.22   0
       578    120.4308     62.8569 307.8949246  +6.6496238     724.6887     1213.256     1331.172      82.9506     165.7695     331.3412      1.722     4.09     965.0742     58.42171     120.7753         7     1.029     0.463  79.02   0
       579    109.4409     58.2595 307.8996471  +6.6511514     8438.673     14689.01     15049.68     83.08216     165.7695      331.506      1.855     4.19     965.2255     58.42171     1094.668        41     1.660     1.191  48.71   0
       580    438.4942     58.0458 307.7629132  +6.6623020     2268.465     3969.078     4404.664      82.9506     165.7036     331.5719      1.891     5.00     945.0065     58.42171     284.8545        24     1.545     1.017  54.81   0
       581    652.1606     50.3124 307.6743788  +6.6726574     17119.98     28163.33     29588.21     83.08216     165.7036     331.4731      1.761     4.16     939.5844     58.42171     2169.363        44     1.632     1.126  48.80   0
       582    276.0385     52.6038 307.8306081  +6.6590915     1330.344     2269.871     2890.271     82.15679     165.5057     331.1764      2.013     4.90      962.831     58.42171     189.0567        16     1.246     0.910  26.48   0
       583    552.0458     46.4238 307.7161159  +6.6709082     4606.933     7911.814     7901.006     82.68684     165.7695     331.3083      1.805     4.11     941.2389     58.42171     561.8337        33     1.595     1.139  40.75   0
       584    270.0768     46.4378 307.8332940  +6.6614363     1722.244     2980.282     4110.345      82.9506     165.8353     331.4401      2.134     4.19     962.8314     58.42171     226.0914        19     1.368     0.889  46.24   1
       585    638.6321     40.8365 307.6803202  +6.6761159     2861.031     5565.036     6830.626     82.68684     165.5057     331.1764      2.139     6.81     939.2455     58.42171     363.1479        35     2.063     1.054  59.71   0
       586    457.4950     41.9416 307.7555605  +6.6695872     19937.21     34575.87     36216.73      82.9506     165.7695     331.5719      1.861     4.29     943.3569     58.42171     2266.078        53     1.672     1.249  49.73   0
       587    278.0831     42.3271 307.8301058  +6.6634022     8134.608     14264.88     15860.06     83.34467     166.0986     331.4731      1.897     4.22     962.7308     58.42171     998.7407        40     1.647     1.201  49.89   0
       588     19.4071     44.5703 307.9375240  +6.6537686     1006.515     2105.395     2141.869     82.55465     165.5717     331.2094      2.116     6.54     968.8196     58.42171     136.3648        14     1.377     0.873  28.73   0
       589    935.2750     41.8260 307.5570035  +6.6856275      1891.64     2953.722     2705.098     82.68684     165.6376     331.4071      1.611     4.28      932.988     58.42171     282.0756        15     1.422     0.695  38.50   0
       590    338.0054     42.4899 307.8051986  +6.6653489     775.0575     1541.709     2045.953     82.55465     165.4397     331.2094      2.142     5.82     956.9322     58.42171     104.5986         8     1.410     0.676  55.11   0
       591     43.5177     41.8722 307.9275964  +6.6556949     2114.604     3775.158     3717.429     83.34467     166.0986     331.4731      1.855     5.33     967.4966     58.42171     304.7084        22     1.615     0.943  49.02   0
       592    266.1857     38.9586 307.8351639  +6.6643927     2617.871     4843.418     5690.486     82.55465     165.5717     331.1434      2.100     4.37     962.8223     58.42171      353.827        29     1.603     1.100  45.59   0
       593    318.7166     37.4250 307.8133856  +6.6667915     906.9122     1641.723     1548.497      82.9506     165.5057     331.4401      1.926     5.87     959.1189     58.42171     119.7762        10     1.091     0.890  49.86   0
       594    707.5134     31.6237 307.6520040  +6.6822251     1769.056     2975.621     3112.688     83.08216     165.5717     331.2753      1.791     5.68     937.9588     58.42171     239.8692        20     1.615     0.885  54.92   0
       595    956.0656     32.1575 307.5486875  +6.6903128     1003.009     1676.046     1618.615     83.08216     165.7036     331.4731      1.532     4.34     930.8496     58.42171     167.0906        12     1.329     0.780  44.86   0
       596    217.5767     26.6264 307.8557812  +6.6678484     736.8919     922.5275     105.7712     82.55465     165.6376     331.3412      1.536     4.91     963.1907     58.42171     94.97833         7     1.267     0.538  49.96   0
       597    973.4797   1020.6550 307.5082861  +6.2828339     6609.091     10362.12     10906.79     83.21352     165.3737     295.1863      1.729     3.90     971.1292     58.42171      842.627        31     1.528     1.009  46.27  16
       598    273.5710     26.0782 307.8325303  +6.6699578     717.6088       1201.2     1490.189      82.9506     165.8353     331.4731      2.086     5.34     962.6522     58.42171     115.0563         8     1.245     0.646  19.54   0
       599    539.7980     22.5921 307.7220094  +6.6803351     2713.618     4627.202     4637.591     82.42225     165.4397     331.2094      1.805     3.99     940.8679     58.42171     351.2841        27     1.453     1.102  60.28   0
       600      8.9856     24.5864 307.9425320  +6.6616661      863.489     1339.642     1405.803      82.9506     165.4397     331.3742      1.702     6.69     967.7021     58.42171     105.5112        11     1.334     0.941  36.68  16
       601    727.8550   1021.3984 307.6102622  +6.2743237     1063.807     1791.039     2013.904     82.42225     160.4801     285.0979      1.855     5.03      977.529     58.42171     175.7571        13     1.308     0.690  37.69  16
       602    742.2217     20.8902 307.6379406  +6.6878173     1855.867     2811.628     2712.893     83.08216     165.5717     331.3083      1.666     4.82     936.6819     58.42171     241.8298        15     1.336     0.787  50.67   0
       603    733.2815   1018.7449 307.6080979  +6.2756005     2892.586     4564.219     4779.761     83.08216     165.7695     316.9883      1.653     4.62     977.4205     58.42171     372.1072        23     1.602     0.829  50.31  16
       604    257.6013   1020.4590 307.8055685  +6.2589510     1353.912     2199.574     2107.545     82.42225     165.4397     297.5082      1.732     4.93     984.7457     58.42171     186.3244        16     1.348     0.907  35.62  16
       605    456.3534   1019.6751 307.7230639  +6.2659445     1155.914     1523.896     1808.298      82.9506     165.8353     307.2249      1.400     4.45     982.7634     58.42171      163.416        11     1.053     0.797  26.04  16
       606    748.7894   1018.0244 307.6016822  +6.2764165     909.9322     1180.687     625.2927     82.68684     165.5717     323.1645      1.620     4.67      977.363     58.42171     132.7973        10     1.297     0.637  61.86  16
       607    379.9221   1016.0789 307.7549233  +6.2648656     1974.623     3032.617     3165.318     83.34467     166.0328     331.5719      1.605     3.84     983.8928     58.42171     298.6286        20     1.425     0.810  49.19  16
       608    766.7556   1005.7258 307.5946345  +6.2820940     8048.954      12389.4     12857.31      82.9506     165.8353     331.4731      1.648     3.86     976.8782     58.42171     1130.644        34     1.547     1.009  43.51   0
       609    562.1710   1006.2979 307.6795729  +6.2750126     4249.097     6647.021     7325.192     83.21352     165.5057     331.4401      1.711     4.19     981.0959     58.42171     579.8705        28     1.497     0.983  49.00   0
       610    532.3862   1007.5662 307.6918986  +6.2734913     1291.805     1684.204     1308.743     82.68684     165.5057     331.3412      1.453     5.42     982.1805     58.42171     161.5226        12     1.110     0.776  59.89   0
       611    312.2873   1005.0931 307.7833791  +6.2671304     14908.47     23071.49     24425.55     83.08216       166.23     331.5389      1.671     4.03     984.7039     58.42171      2133.48        44     1.584     1.074  49.95   2
       612    316.8830   1002.2380 307.7815671  +6.2684633     955.1912     1857.572     2303.465     83.08216     165.7036     331.4071      1.936     5.89     984.6704     58.42171     125.1987        13     1.418     0.688  27.47   3
       613      8.9430   1006.5090 307.9092912  +6.2563465     794.3047     1333.884     1030.994      82.9506     165.7036     331.5389      1.806     6.56     985.0289     58.42171     138.5534         9     1.226     0.986  79.67   0
       614    828.0082   1005.4352 307.5692076  +6.2842608     1145.706     1641.628      1770.18     82.55465     165.5717     331.2094      1.686     3.99      974.674     58.42171     165.7958        12     1.152     0.701  40.35   0
       615    436.6425   1005.2832 307.7317340  +6.2712246     1140.177     1732.551     1691.046     83.08216     165.7695     331.3742      1.670     4.12      982.542     58.42171     157.2452        15     1.135     0.953  57.40   0
       616    283.1724   1002.3937 307.7955601  +6.2672671     899.8867     1326.925     1723.291     82.55465     165.5717     331.2423      1.715     4.62     984.6845     58.42171     146.8836         9     1.401     0.630  62.29   0
       617    928.0698    999.2280 307.5278624  +6.2901642     8971.351     14131.98     14999.35     82.81882     165.7695     331.3412      1.673     3.84     971.0713     58.42171     1197.147        37     1.556     1.071  46.98   0
