#   1 NUMBER                 Running object number                                     
#   2 X_IMAGE                Object position along x                                    [pixel]
#   3 Y_IMAGE                Object position along y                                    [pixel]
#   4 ALPHA_J2000            Right ascension of barycenter (J2000)                      [deg]
#   5 DELTA_J2000            Declination of barycenter (J2000)                          [deg]
#   6 FLUX_APER              Flux vector within fixed circular aperture(s)              [count]
#   9 FLUXERR_APER           RMS error vector for aperture flux(es)                     [count]
#  12 FLUX_RADIUS            Fraction-of-light radii                                    [pixel]
#  13 FWHM_IMAGE             FWHM assuming a gaussian core                              [pixel]
#  14 BACKGROUND             Background at centroid position                            [count]
#  15 THRESHOLD              Detection threshold above background                       [count]
#  16 FLUX_MAX               Peak flux above background                                 [count]
#  17 ISOAREA_IMAGE          Isophotal area above Analysis threshold                    [pixel**2]
#  18 A_IMAGE                Profile RMS along major axis                               [pixel]
#  19 B_IMAGE                Profile RMS along minor axis                               [pixel]
#  20 THETA_IMAGE            Position angle (CCW/x)                                     [deg]
#  21 FLAGS                  Extraction flags                                          
         1    625.0423     28.8023 307.6773768  +6.8845371     1696.695     4389.379     6243.361     95.56162     191.7368     383.9328      3.147    11.54     1287.993     67.73503     181.6047        39     2.459     1.510 -32.21   2
         2    345.4739     27.3136 307.7942825  +6.8757465     1493.168     4911.042     8357.865     96.47903     192.5773     384.2768      3.793    12.01     1313.263     67.73503     198.9341        52     2.602     2.273 -60.18   2
         3    469.7944     17.8698 307.7426373  +6.8838432     1537.782     4249.189     6294.357     95.71513     191.7368     384.0857      3.029    10.69     1298.185     67.73503     184.8584        38     2.493     1.278 -54.90   2
         4    466.4777     15.0578 307.7441185  +6.8848958     1342.885      3138.06     4343.496     96.32674     192.1193     384.2003      2.877     9.43     1298.722     67.73503     153.7781        23     2.140     1.159 -69.36   3
         5    586.8246     16.5045 307.6937656  +6.8883445     1473.209     3868.902     5310.708     96.47903     191.8899     384.1239      2.740    10.05     1290.123     67.73503     178.3462        33     2.465     1.143 -53.75   3
         6    582.8264     14.9770 307.6954884  +6.8888425     1349.721     3700.795     5179.267     95.71513     192.0428     384.2003      2.741     9.68     1290.402     67.73503     152.8595        28     2.305     1.133 -65.34   3
         7    285.1864     14.9277 307.8198997  +6.8788423     1355.116      4259.96     6988.909     95.71513     191.8899     384.1239      3.343    10.38     1321.382     67.73503     221.4562        39     2.687     1.566 -36.11  18
         8    819.6686      3.3582 307.5968783  +6.9016039     3065.879     9209.967     10640.81      96.1742     183.4407     326.6149      2.635     8.89     1281.706     67.73503     344.4999        51     2.155     1.657 -13.27  24
         9    607.0120      3.5274 307.6857644  +6.8943958     1354.676     3938.253     5094.069     95.71513     184.7962     329.3009      2.883    10.45     1288.902     67.73503      185.212        35     2.392     1.271 -26.54  26
        10    491.0608      2.8770 307.7342537  +6.8907662     6921.347      17855.4     21562.21     96.63109     177.5847     318.3748      2.575    10.31     1297.479     67.73503     767.4968        55     2.465     1.370  -6.82  24
        11    694.8207      1.8731 307.6491157  +6.8980301     1714.709     3253.242     4019.044     90.99717     162.3833     299.7043      2.279     7.87     1284.283     67.73503     228.6821        23     2.009     0.862  -4.60  24
        12    309.7408      1.7791 307.8100806  +6.8851140     4918.939     8664.278     9181.734     89.86067     160.5649     297.7877      1.882     7.32     1318.851     67.73503     639.7042        27     2.006     0.799  -4.37  24
        13      2.1939      1.9488 307.9386212  +6.8746584     4337.719     5218.566     5107.534     89.69714     141.0971     238.5504      1.314     4.33     1325.414     67.73503     644.0161        14     1.169     0.742 -34.51  24
        14    145.2031      1.6730 307.8788574  +6.8796060     1883.291     3333.866     3758.111     88.37799     158.7256     295.4614      1.894     6.82     1322.847     67.73503     291.5769        20     1.976     0.706   0.88  24
        15    159.7239    991.8467 307.8393188  +6.4701413     8755.835     24883.15     30488.51      96.1742     192.2721     384.2768      2.730     6.42      1353.59     67.73503      934.202        77     2.121     1.954 -42.72   0
        16    749.9430   1023.8323 307.5917423  +6.4767482     1893.003      2675.18     2433.435     80.91998     149.4843     285.6588      1.307     4.41     1351.124     67.73503     424.5676        10     1.482     0.373   0.39  24
        17    453.3326   1023.2656 307.7156387  +6.4670224     14322.27     24170.53     26305.15     89.53331     160.0153     297.0967      1.806     6.21     1355.958     67.73503     2073.923        41     2.103     0.867   1.67  24
        18    242.2056    994.6649 307.8047767  +6.4717557      535.814     1301.813     1086.153     95.71513     191.8899     384.0092      2.362     4.95     1354.008     67.73503     106.9449         5     1.119     0.619 -65.64   0
        19    524.0181    990.4073 307.6872233  +6.4830032     1077.463     3600.412     3940.737      95.8684     191.8134     384.0857      2.693    10.67     1353.732     67.73503     158.9147        26     1.895     1.675 -17.95   0
        20    935.6766    991.1443 307.5152650  +6.4965043       726.08     1064.003     1573.659     96.32674     192.1957     384.2003      1.921     5.07     1348.623     67.73503     119.4104         5     0.985     0.737 -13.17   0
        21    897.8796    987.0516 307.5311887  +6.4969336     3084.477     6055.993     6426.066     96.32674     192.1957     384.2768      2.040     4.88     1348.692     67.73503     379.1716        32     1.657     1.224 -38.19   0
        22    571.1210    986.0912 307.6676958  +6.4863729      2803.95     8158.116     8989.852     96.02142     192.4247     384.3532      2.580     6.78     1352.903     67.73503     351.6531        52     2.097     1.649 -40.71   0
        23    920.4144    979.4419 307.5220317  +6.5008388      2225.83     4475.227     4877.495     95.56162     191.9664      383.971      2.148     6.48     1347.995     67.73503     274.3018        27     1.709     1.164 -36.93   0
        24    483.3643    977.2880 307.7046440  +6.4870685     3135.564     9482.348      10670.4     96.32674     192.0428     384.2768      2.662     7.10     1353.252     67.73503     365.8896        51     1.995     1.721 -34.91   0
        25    331.7255    976.9578 307.7679870  +6.4821028     1018.122     1972.287     2765.778      96.1742     192.2721      384.315      1.930     6.43     1354.153     67.73503     139.9696        12     1.737     0.669 -62.05   2
        26    328.1494    976.6458 307.7694911  +6.4821115     964.6619     2142.301     2719.757     96.47903     192.0428     384.3532      2.272     8.32      1354.17     67.73503     145.9567        12     1.827     1.059 -89.01   3
        27    839.4469    972.5007 307.5560822  +6.5010014     1560.258     3469.216     4863.062     96.32674     192.0428     384.5441      2.799     8.19     1348.324     67.73503     177.7228        24     1.693     1.108 -19.95   0
        28    846.8890    966.3469 307.5531802  +6.5037986     1240.953     2532.528     3961.673     96.32674     191.9664     384.4296      3.034     7.53     1347.768     67.73503     173.8202        16     1.770     0.896 -27.50   0
        29    670.8895    963.2057 307.6267956  +6.4991982     1428.434     3818.846     4079.314     95.71513     191.8134      383.971      2.523     8.58     1349.261     67.73503     196.6021        30     2.003     1.543 -41.42   0
        30    343.9651    960.5128 307.7634295  +6.4893236     1558.144     3108.165     4022.666     96.32674     192.0428     384.2768      2.762     8.96     1353.362     67.73503     184.3102        22     2.122     1.056 -89.87   2
        31    340.3564    960.0197 307.7649533  +6.4894063     973.4437     2058.253     4557.228     95.71513     192.0428     384.0857      6.390    11.72     1353.351     67.73503     151.5154        20     3.104     1.232  81.24   2
        32    569.8101    958.1475 307.6691831  +6.4978986     4132.586     12679.06     15774.13     95.56162     192.0428      383.971      2.787     6.95     1351.823     67.73503     479.2183        68     2.340     1.804 -36.63   0
        33    732.7341    954.3139 307.6012635  +6.5049545     7564.579     20672.14     26147.26     96.32674     192.4247     384.3532      2.748     6.74     1348.193     67.73503     868.1949        82     2.629     1.721 -45.17   0
        34    253.6077    956.2936 307.8013095  +6.4880267     990.8411      1922.56     2985.353      95.8684     191.8134     384.0475      2.508     8.56     1353.041     67.73503     149.3682        13     1.959     1.044 -33.83   3
        35    253.9920    954.0000 307.8012264  +6.4889892     996.9851      2240.42     3497.206     95.40786     191.7368     384.0092      2.642     8.18      1352.98     67.73503     153.8945        15     2.520     0.742  -0.88   2
        36     33.5175    962.7842 307.8930085  +6.4779138     963.5821     2658.719     2977.926      95.8684     191.8134     384.1239      2.731     8.55     1351.357     67.73503     152.4884        16     1.790     1.140  58.16   0
        37     70.2530    947.1755 307.8781943  +6.4856166     1903.094     5755.238     6584.835     95.71513     192.1957     384.1239      2.659     8.06       1351.7     67.73503      274.395        45     2.134     1.722 -47.73   0
        38    917.7668    948.4470 307.5241761  +6.5135833     881.9163     1788.085     2068.171     96.02142     192.1957     384.2003      1.997     5.60     1345.837     67.73503     127.7904        10     1.780     0.497 -20.32   2
        39    971.6534    944.0765 307.5018149  +6.5171962     2655.346     5984.709     7228.912     96.47903     192.1957     384.2768      2.425     6.01     1344.316     67.73503     289.9473        38     1.837     1.421 -25.72   0
        40    708.6185    944.2173 307.6116750  +6.5083260       1092.5     2568.611     2819.287     96.02142     191.8899     384.2003      2.270     5.91     1348.194     67.73503     146.9348        11     1.599     0.615 -10.24   0
        41    306.2362    940.4142 307.7798648  +6.4963744     1391.747     3475.399     4971.105      95.8684     191.9664     384.0092      3.030     7.91     1352.935     67.73503     185.6282        23     1.776     1.304   6.02   2
        42    662.4950    938.2208 307.6311412  +6.5092611     789.3349     1749.015     2698.558      96.1742     191.9664     384.0475      3.034     6.58     1348.879     67.73503     103.5883         9     1.173     1.037  50.86   0
        43    671.0027    926.2986 307.6279883  +6.5144829     6006.636     18431.19     22167.77     96.02142     191.8899     383.8945      2.722     6.75     1348.356     67.73503     718.7305        68     2.162     1.819 -34.64   0
        44    773.6698    927.4550 307.5850671  +6.5174478     1038.105     2474.285     2546.824     96.32674     192.0428     384.2003      2.591     5.41     1346.886     67.73503     203.2123        14     1.383     1.089 -11.04   0
        45    787.5015    927.8178 307.5792776  +6.5177612     644.1219     1269.333     2137.577     96.32674     192.0428      383.971      2.909     3.01     1346.902     67.73503     153.8542         5     1.005     0.592 -24.43   0
        46    591.8664    922.4017 307.6611729  +6.5134395      1272.09     3544.168     4054.391     95.56162     191.7368     384.0092      2.501     8.06     1349.541     67.73503     187.4087        27     1.903     1.385  52.49   0
        47    564.4122    917.5806 307.6728021  +6.5145134      5920.14     19811.32     29018.98     96.02142     191.8899     384.1621      3.226     8.34     1350.374     67.73503     613.7657       102     2.741     2.156  29.43   0
        48    896.1643    915.8767 307.5342908  +6.5263456     2013.049     5056.853     5134.726      96.1742     192.2721      384.315      2.346     5.86     1343.993     67.73503     261.1453        36     1.660     1.556 -14.33   0
        49    335.4317    912.5132 307.7686118  +6.5089095     10360.53     35112.46     44521.02     96.47903     191.9664     384.2003      2.906     7.57     1351.798     67.73503     1213.397        93     2.316     2.054 -39.47   0
        50     82.7405    913.0255 307.8741334  +6.5001771      795.902     2221.894     2260.397      95.8684     192.1957     384.0857      2.441     5.83     1350.559     67.73503     125.5503         8     1.531     0.625  63.67   2
        51    851.5894    910.7801 307.5530803  +6.5269631     693.7542     2210.389     2933.708      95.8684     191.8134     384.1239      3.383     8.74     1344.506     67.73503     113.8331        11     2.301     0.928 -24.70   0
        52    864.9422    906.3633 307.5476511  +6.5292391     2447.609     6018.877     6844.144     96.32674     192.1957     384.2768      2.471     6.61     1344.001     67.73503     288.4768        43     2.084     1.441 -31.40   0
        53    192.9408    903.2512 307.8284378  +6.5079423     5210.674     16967.58     21570.03     96.32674     192.1957     384.2768      2.916     7.52     1350.717     67.73503     593.8093        77     2.221     2.040 -54.95   0
        54   1019.4934    904.4600 307.4831589  +6.5351994     2708.182     5698.621     5914.908     96.17421     192.1193     358.5839      2.139     5.35     1341.218     67.73503     349.5212        34     1.683     1.339 -42.99  16
        55     16.0326    907.3770 307.9021850  +6.5002627     778.4567     1661.367     2522.832     95.71513     191.9664     384.0092      2.344     4.83     1350.696     67.73503     140.5529         7     1.437     0.459   6.55   0
        56    997.4453    893.1699 307.4927465  +6.5391366     5185.201     11546.13     12568.56      95.8684     192.2721     384.1239      2.256     5.49     1341.212     67.73503      582.479        47     1.895     1.404 -42.55   0
        57     93.4952    891.8455 307.8703576  +6.5093091     1941.785     6393.519     8314.149     96.32674     192.1193     384.4296      2.902     8.68     1349.428     67.73503     262.3556        50     2.124     1.749 -56.48   0
        58    115.6192    887.2086 307.8612740  +6.5119757     1136.414     3024.966     3728.059     96.02142     191.8899     384.0475      2.594     7.68     1349.261     67.73503     156.8877        24     1.802     1.402   8.50   0
        59    340.4335    881.3057 307.7675749  +6.5219988     810.4934     1904.573      2219.14     96.47903     192.0428     384.3914      2.467    10.28     1351.284     67.73503     104.9087        13     1.943     1.516  -8.12   2
        60    337.0000    880.9868 307.7690198  +6.5220152     677.6683      1534.84     2015.874     95.71513     191.7368     384.0092      2.416     3.88     1351.304     67.73503     96.48914         5     0.845     0.510 -65.50   3
        61    392.5973    875.8652 307.7459705  +6.5260074     2563.247     8953.918     11721.22     95.56162     191.8899     384.0092      2.995     8.09     1350.852     67.73503     309.9409        62     2.185     1.962 -53.23   0
        62    732.6296    872.8843 307.6040414  +6.5386661     5270.846     15728.57     19751.26     96.32674     191.9664     384.1239      2.854     7.65     1345.052     67.73503     560.9069        78     2.784     1.792 -12.33   0
        63    976.9351    867.8858 307.5021606  +6.5489193     1974.353     4530.733     4949.073     96.47903     192.4247      384.315      2.349     6.66     1340.356     67.73503     293.3641        32     1.823     1.299 -32.10   0
        64    441.1147    858.6364 307.7262858  +6.5347733     1091.625     3058.861     3976.879     96.32674     192.1193     384.2768      2.605    10.12     1349.806     67.73503     138.2129        25     1.941     1.470  12.15   0
        65    798.3305    855.8009 307.5771711  +6.5479422     14415.67     41392.39     51099.23     95.71513     191.6602     384.0475      2.733     6.57     1342.141     67.73503     1659.867        87     2.296     1.849 -47.56   0
        66    410.3607    859.0560 307.7391173  +6.5335648     753.0577     1300.031     2271.207     96.32674     192.2721     384.2386      2.144     5.67     1350.296     67.73503     94.86255         9     1.614     0.561  76.95   0
        67    414.7639    859.1046 307.7372765  +6.5336929     731.8894     1863.235     2552.503     96.47903     192.0428     384.4296      3.016     5.02      1350.25     67.73503     129.7656         7     1.353     0.528 -12.90   0
        68    570.5602    847.8126 307.6725809  +6.5436065     1114.195     3186.689     4366.806     95.71513     191.9664     384.0092      2.999     9.77      1346.22     67.73503     159.2214        25     1.662     1.603  -8.75   0
        69    654.8574    841.8997 307.6375682  +6.5488855     27955.73     94419.69     119123.6     96.02142     192.1957     384.5441      2.882     7.38     1343.938     67.73503     3446.538       117     2.381     2.060 -39.57   0
        70     55.0691    840.3007 307.8881497  +6.5293523     1770.268     3401.339     4556.365     96.32674     192.3484     384.2768      2.172     8.42     1347.415     67.73503     247.3621        21     2.063     0.961   3.84   3
        71     56.0882    836.7841 307.8878429  +6.5308426     2282.594     5039.005     7223.823     96.02142     191.8899     384.0857      2.556     8.55     1347.245     67.73503     260.2744        36     2.313     1.179   3.55   2
        72    519.6187    839.0617 307.6941538  +6.5455178     679.8186     1621.328     2393.244      95.8684     192.1193     384.1239      2.150     3.55      1347.15     67.73503     116.2928         5     1.259     0.289 -57.09   2
        73    516.4895    837.7228 307.6955059  +6.5459669     910.4141     2001.147     2991.977      96.1742      192.501     384.3532      2.892     6.80     1347.158     67.73503     131.7594        10     1.652     0.785  -6.09   2
        74    500.5728    834.9203 307.7022488  +6.5465922       2341.9     8387.035     11117.51      96.1742     192.0428     384.2768      3.043     8.86     1347.295     67.73503      302.556        60     2.271     1.905 -48.43   0
        75    363.6451    830.2191 307.7596020  +6.5439318     7764.868     30194.06     40234.63      95.8684     192.0428     384.0092      3.080     8.33     1349.698     67.73503     950.3728        92     2.392     2.145 -46.13   0
        76    230.6438    831.6754 307.8151067  +6.5388479     1053.701     2853.281     3190.523      96.1742     192.2721      384.315      2.531     8.17     1349.483     67.73503     137.7303        18     1.892     0.985  21.12   0
        77    454.3101    822.3422 307.7219965  +6.5502442     1780.791      3179.95     4348.238      96.1742     192.1193     384.4296      1.880     6.35     1347.829     67.73503     236.2755        14     1.659     0.682 -51.70   3
        78    452.7779    819.1827 307.7227429  +6.5515008     2967.782     8011.698     11780.04     96.02142     192.0428     384.2003      3.136    10.91     1347.716     67.73503     358.2615        54     2.538     1.789 -33.41   2
        79    720.6326    818.9145 307.6108651  +6.5606094      1275.53     3288.092     4916.339     96.32674     191.9664     384.2386      3.037     9.15     1341.772     67.73503     148.3252        22     1.893     1.235 -60.39   2
        80    342.8320    804.8631 307.7691506  +6.5537291     2332.724     8664.033     11671.37     96.02142     192.2721     384.2386      3.077     8.56     1349.051     67.73503     287.4561        66     2.222     2.080 -32.28   0
        81    200.9425    807.0944 307.8283427  +6.5480236     695.6039     1302.628     2341.273      96.1742     192.1957     384.5059      3.037     4.81     1348.429     67.73503     112.3147         6     1.427     0.459  67.57   2
        82    197.8739    803.9565 307.8297304  +6.5492193     761.0371     1654.772     2515.612      96.1742     192.2721      384.315      2.671     3.95     1348.329     67.73503     125.9575         5     0.837     0.535 -30.79   2
        83    710.3262    800.4081 307.6157920  +6.5679261     18346.66     63282.21     79791.13      95.8684     191.6602     384.0857      2.886     7.67     1340.849     67.73503     2296.808       105     2.413     2.009 -38.77   0
        84    382.2586    799.2489 307.7528711  +6.5573811     837.2065      2415.32     2911.124     96.32674     192.1957     384.3532      2.853     7.41     1348.331     67.73503     112.7656        12     1.864     0.825  24.27   0
        85    886.0754    795.6838 307.5425346  +6.5757730     1179.332     2956.304     3741.517     96.47903     192.5773     384.3914      2.819     8.07     1336.767     67.73503     134.3656        20     1.641     1.110 -23.24   0
        86    707.5243    787.4953 307.6173962  +6.5731785      1808.25     3502.966     4506.525     95.86841     192.4247     384.3532      1.970     7.49     1339.944     67.73503     200.6329        21     1.706     0.921   8.25   3
        87    708.9781    783.7359 307.6169152  +6.5747838     2317.865     5382.703     6539.889      95.8684     192.1957     384.1239      2.296     6.97       1339.7     67.73503     261.4318        34     2.002     1.210   3.91   3
        88    147.1301    786.7053 307.8515087  +6.5546499     964.5756     1932.706     2394.441      96.1742     192.2721      384.315      2.261     6.63      1346.76     67.73503     111.0724        12     1.338     0.921  38.71   0
        89    727.6169    782.2951 307.6091775  +6.5760056     926.6805      2337.26     3485.513      96.1742     191.9664     384.0857      2.943     7.58      1339.15     67.73503     127.0514        12     1.557     1.032 -76.47   2
        90    314.4189    780.7958 307.7818307  +6.5627368     478.9681     1248.839     2240.898      95.8684     191.7368     384.0475      3.495     5.01     1347.676     67.73503     94.84229         5     1.024     0.695 -15.00   0
        91    963.2332    773.6255 307.5110420  +6.5874889     2933.339     7478.896     8748.483     95.71513     191.9664     384.0475      2.468     5.84     1333.429     67.73503     388.4661        45     1.895     1.563 -41.76   0
        92    442.6215    773.3928 307.7285277  +6.5701177     650.8054     1553.156     2491.297     95.71513     191.9664     384.0475      1.975     3.72     1345.356     67.73503     100.3016         5     1.336     0.297  45.06   0
        93    204.0447    772.9846 307.8281988  +6.5622506     1291.884     2140.995       2897.2     95.71513     191.9664     384.0092      1.963     5.11     1346.643     67.73503     156.6019        10     1.097     0.673 -11.86   3
        94    204.6099    768.8668 307.8281018  +6.5639745     1882.295     6011.242     8396.768     95.71513     191.9664     384.1621      3.393    11.63     1346.399     67.73503     197.1843        49     2.444     1.626  -8.57   2
        95    681.1792    751.9971 307.6295942  +6.5869922     1298.402     2581.563     3745.988      95.8684     191.8134      383.971      2.327     7.72     1337.549     67.73503     168.1082        16     1.615     1.033  -2.68   3
        96    681.5401    747.9463 307.6295796  +6.5886815      1855.96     4802.474     5977.077     96.47903     192.1193     384.2768      2.699     7.91     1337.197     67.73503     226.8849        35     2.061     1.363  -1.27   2
        97    859.8222    751.7540 307.5549749  +6.5930826     821.6791      2058.05     2368.951      95.8684     192.1957     384.0857      2.718     7.77     1334.483     67.73503     119.4738        11     1.679     1.006  85.21   2
        98    518.0000    750.5010 307.6978108  +6.5821307     694.5322     2065.976     3641.991     95.71513     191.7368     383.7798      2.517     3.31     1341.197     67.73503      105.781         4     1.098     0.289  90.00   2
        99    621.7728    747.3681 307.6545664  +6.5869145     729.2012      1974.02     3437.922     95.71513     191.8899     384.0475      3.553     7.08     1337.985     67.73503     114.6149         8     1.610     0.871  48.22   0
       100    182.6427    733.9373 307.8384575  +6.5776953     891.1236     2368.482     3041.046     96.32674     192.1193     384.3914      2.887     5.91     1344.624     67.73503     122.7003        10     1.425     0.691  16.17   2
       101    414.9041    724.4631 307.7417547  +6.5894436     6058.294     24924.25     35800.58      96.1742     192.3484     384.3532      3.299     9.20     1343.198     67.73503     742.5616       107     2.786     2.215 -37.65   0
       102    740.4603    723.4847 307.6057875  +6.6007864     4383.267     15667.41     20417.97     96.47903     192.2721     384.3914      2.959     7.86     1334.954     67.73503     532.7661        73     2.382     1.904 -34.36   0
       103    538.6854    710.2578 307.6905242  +6.5994882     1284.386     5096.701     6510.953     96.32674     192.1957     384.4677      3.026    12.31      1338.63     67.73503     186.2568        45     2.178     1.938 -57.00   0
       104    845.4516    706.4619 307.5624977  +6.6113541     4240.722     13285.41     16252.29     96.32674     192.1193     384.2768      2.815     6.98     1331.722     67.73503     533.2926        68     2.266     1.857 -37.62   0
       105    898.8100    706.7241 307.5401976  +6.6130327     1036.326     3080.427     3094.715      95.8684     191.6602     384.0475      2.553     9.27     1331.132     67.73503     145.7365        20     1.870     1.283 -40.69   0
       106    932.1910    704.1683 307.5263378  +6.6152085     4162.726     12405.16     14624.45     95.71513     191.9664     384.0857      2.706     7.13     1330.634     67.73503     520.3019        59     2.146     1.730 -37.67   0
       107    642.6512    706.3525 307.6472235  +6.6045976      854.532      1881.34     3786.683     96.47903     192.0428     384.2768      2.679     6.15     1335.387     67.73503     129.9567         9     1.981     0.537  38.06   2
       108    643.3159    702.6062 307.6470718  +6.6061710     1052.629     2370.355     4277.893      95.8684     191.8134     384.0857      3.323     6.83     1335.253     67.73503     146.7639        13     1.517     0.979  15.65   2
       109    695.7969    692.6267 307.6254828  +6.6120645     11264.46     44087.96     59040.14     95.71513     191.8899     384.0475      3.094     8.32     1333.697     67.73503     1440.751       105     2.473     2.151 -44.46   0
       110    462.2477    693.5565 307.7230185  +6.6038329     691.1772     1844.738     3299.347     96.32674     192.1193     384.2003      2.417     6.68     1339.658     67.73503     122.0562        10     2.305     0.543 -70.79   2
       111    299.0289    692.3696 307.7912427  +6.5988294     2053.396     7336.571      11806.1     95.71513     191.8899      383.971      3.426    12.34     1342.846     67.73503     252.3656        76     2.673     2.180 -56.19   0
       112    833.9982    696.1071 307.5676300  +6.6152577     644.9459     1295.476     2244.521     95.71513     191.8134     383.9328      2.461     3.82     1331.235     67.73503     114.3192         5     0.827     0.506 -63.28   0
       113    784.6011    693.8959 307.5883407  +6.6145176      787.489     1886.734     2909.051     95.71513     191.7368      383.818      2.540     5.35     1331.801     67.73503      114.858         8     1.662     0.486  28.74   0
       114    863.9987    692.0000 307.5552345  +6.6179633     1721.923     2751.744     3533.872     95.40786     191.5836     383.8945      1.582     5.15     1330.558     67.73503     239.8483         9     1.341     0.559  -1.18   3
       115    863.4749    688.6510 307.5555657  +6.6193324     3002.955     7555.372     9613.106     96.32674     192.2721     384.2768      2.729     7.95     1330.391     67.73503      294.677        49     2.306     1.595 -36.52   2
       116    404.9805    689.4922 307.7470789  +6.6035888     1183.243     3004.666     3587.862      96.1742     191.8899     384.1239      2.425     8.63     1340.321     67.73503     163.2501        21     2.108     0.988 -82.00   3
       117    408.2144    691.6008 307.7456568  +6.6028246     1345.112     2467.455      3085.49      95.8684     191.8134     384.0092      1.947     5.02     1340.534     67.73503     179.6862        14     1.342     0.847 -38.73   3
       118    409.4574    687.6876 307.7452695  +6.6044866     1578.083     3057.093     3717.287     96.32674     192.1193     384.4296      2.120     9.05     1340.184     67.73503     182.2773        22     2.092     1.092  36.01   3
       119    930.1873    690.1663 307.5276442  +6.6209389     1136.743     2854.367     3464.582     95.71513     191.8899     384.1239      2.490     8.81     1329.929     67.73503     165.3619        20     1.808     1.199   3.96   0
       120    837.7441    692.6628 307.5661807  +6.6168093      766.084     1791.191     2765.366     96.47903     192.1957     384.2768      2.578     3.54     1330.977     67.73503     147.0282         5     0.817     0.442  14.09   0
       121    966.9096    688.4526 307.5123599  +6.6228775      750.155     1490.606     2127.068     96.32674     191.9664     384.4296      1.890     4.03     1328.939     67.73503     122.1648         6     1.365     0.340 -29.04   0
       122     66.8502    679.7216 307.8886596  +6.5962335       1627.3     3996.417     6812.064     96.32674     192.2721     384.2768      3.550     9.13     1341.524     67.73503     205.6693        27     1.803     1.455 -48.78   2
       123    235.0585    677.2656 307.8184757  +6.6029267     8241.466     35651.82     50941.97     96.47903     192.1193      384.315      3.301     9.33      1342.75     67.73503     995.4165       110     2.595     2.338 -44.27   0
       124    210.5309    678.5201 307.8286796  +6.6015802     1375.104      6877.86     9708.778      96.6311      192.501     384.2386      3.280    10.45     1342.446     67.73503     232.5922        60     2.342     2.125 -62.41   0
       125   1021.4774    678.5255 307.4898952  +6.6288132     909.9867     2033.834     2042.509      96.6311     185.6681     329.3455      2.271     5.91     1327.121     67.73503     152.9175        12     1.495     0.657 -61.00  16
       126    359.0726    672.5992 307.7668265  +6.6090375     11404.28     51098.43     74705.12     95.56162     191.6602     384.0857      3.333     9.52     1339.795     67.73503     1434.608       124     2.662     2.345 -40.01   0
       127    112.5486    672.2379 307.8698229  +6.6008750     781.8747     1567.279     2657.389     96.02142     192.2721     384.2386      2.664     8.57     1340.728     67.73503     132.6691        14     2.528     0.811 -79.88   2
       128    117.2297    675.2352 307.8677661  +6.5997921     1157.492     2690.467     3756.663      95.8684     191.8899     384.0475      3.003     7.87     1340.906     67.73503     166.7086        17     2.261     0.766 -42.89   2
       129    115.9794    672.3013 307.8683876  +6.6009646     1041.502     1889.499     3160.312     96.32674     191.9664     384.0092      2.845     5.22     1340.728     67.73503     155.3046        10     1.238     0.764 -20.87   3
       130    263.3346    670.3336 307.8068975  +6.6067500     4329.973     19053.83     28041.06     96.32674     192.1957      384.315      3.348     8.73     1342.309     67.73503     562.0435        95     2.588     2.288 -37.27   0
       131    698.2674    668.4664 307.6252625  +6.6221507     9020.976     35976.86        48385     96.32674     192.1957      384.315      3.108     8.55     1331.958     67.73503     1170.375        99     2.496     2.135 -39.52   0
       132     15.3787    666.4139 307.9106111  +6.6000042     2544.964     10188.75     13687.75     96.02142     191.8899     384.1621      3.134     9.14     1341.617     67.73503     335.5624        71     2.387     2.099 -58.21   0
       133    957.1187    648.3868 307.5177931  +6.6391389     983.2291      2630.74     3180.375      95.8684     191.8899     384.0475      2.722     8.54      1326.06     67.73503      135.282        17     1.543     1.321 -69.46   0
       134    233.9615    643.5400 307.8200728  +6.6168531     7055.969     32349.72     48556.97     96.32674     192.2721      384.315      3.447     9.17     1339.333     67.73503     947.9569       110     2.666     2.350 -42.01   0
       135    665.3367    639.6013 307.6399903  +6.6329969     1945.767     8289.539     11038.76     95.56162     191.9664     384.0092      3.091     9.16     1330.419     67.73503     293.9286        65     2.355     1.970 -45.33   0
       136     77.7426    638.9786 307.8854875  +6.6134698     1383.151     3386.621     5550.676      95.8684     192.1193     384.0475      3.547    15.17     1338.918     67.73503     168.1868        33     3.154     2.029  32.74   2
       137     79.0270    636.2814 307.8850421  +6.6146299     1371.298     2902.249     3863.772      96.1742     191.9664     384.2768      2.719     9.09      1338.71     67.73503     185.5226        18     2.328     0.990  27.25   3
       138    345.4908    635.8376 307.7737402  +6.6238005     1025.968     2293.159     2886.329     96.47903     192.1193      384.315      2.253     9.08     1337.093     67.73503     139.8026        19     1.882     1.224  33.02   3
       139    348.2974    631.6084 307.7727103  +6.6256461     1205.779     3070.667     4512.006     96.02142     191.7368     384.0092      2.771    10.35     1336.691     67.73503     148.5542        26     2.247     1.328  15.68   2
       140    314.0793    630.9904 307.7870263  +6.6247493      1081.02     2276.318      3464.49      95.8684     191.7368     384.0857      2.727     5.06     1337.276     67.73503     156.9091        11     1.239     0.776  42.68   2
       141    309.8458    630.3791 307.7888156  +6.6248598     906.6019     2086.903     3643.896      95.8684     192.1957     384.0857      3.083     6.89      1337.25     67.73503     124.0651        10     2.016     0.660 -56.61   2
       142    956.6789    625.1777 307.5187547  +6.6487338     650.2119     1558.555      1706.47      95.8684     191.8134     384.2386      1.887     5.06     1323.954     67.73503     87.49121         9     1.741     0.416 -71.73   0
       143    161.3043    623.9595 307.8510872  +6.6225090     1144.265     2650.517     3006.662     96.32674     192.0428     384.4677      2.410     8.02     1337.627     67.73503     154.1154        18     1.850     0.972  74.67   3
       144    165.5412    621.8123 307.8493898  +6.6235410     1566.531     3546.169     4702.654     95.56162     192.1193     383.9328      2.444     8.77     1337.445     67.73503     197.0129        24     2.282     0.941 -76.06   3
       145    163.3885    618.7123 307.8503938  +6.6247519     1479.831     2911.791     3887.146      95.8684     191.8899     384.1239      2.221     5.46     1337.278     67.73503     194.6718        14     1.310     0.857   9.24   3
       146    624.9327    619.6259 307.6575421  +6.6399109     1468.458     6560.767      8920.31      95.8684     192.0428     384.1621      3.214    10.24     1329.863     67.73503     257.3745        59     2.319     2.106 -66.73   0
       147    580.1945    609.5367 307.6765726  +6.6425854     12046.46     50990.81     85730.34     95.56162     191.9664      383.971      3.800    14.38      1330.12     67.73503     1575.371       191     4.134     2.367 -65.30   0
       148     47.4394    619.6187 307.8988014  +6.6204617     770.2487     1984.396     3612.317      95.8684     191.9664      383.971      2.661     4.42     1338.266     67.73503     98.72571         5     1.002     0.556  46.96   2
       149    304.7670    612.9390 307.7915258  +6.6319094     1165.706     4061.884     5685.629     96.02142     192.2721     384.2003      3.217    11.91     1335.518     67.73503     150.4381        38     2.124     1.859  81.14   0
       150    257.3471    604.7911 307.8116114  +6.6336847     810.8592     2150.709     3759.224     95.71513     192.0428     383.9328      4.072     8.02     1334.894     67.73503     117.3163         8     2.485     0.725 -23.16   2
       151    262.2045    600.4883 307.8097274  +6.6356299     911.6774     2176.834     4006.065     95.71513     191.8134     383.9328      2.892     5.67     1334.394     67.73503     133.8165        10     1.395     0.650  36.80   2
       152    645.9515    593.1719 307.6496503  +6.6515697     753.3416     2993.944     4622.751      95.8684     192.2721     384.2003      4.205     9.15     1327.218     67.73503     134.2495        13     2.689     0.869 -16.17   2
       153    384.6469    582.6980 307.7591738  +6.6471206     872.4273     2331.938     3605.262     96.32674     192.0428     384.5059      3.108     9.45     1331.892     67.73503     138.8464        15     2.611     0.954  89.46   2
       154    389.2925    583.1498 307.7572177  +6.6470899     1156.843     2507.271     3583.286      96.1742     192.0428     384.5059      2.717     8.93     1331.865     67.73503     142.3218        21     1.682     1.324  76.89   2
       155    858.9798    581.3358 307.5610439  +6.6636151     773.7409     1573.488     2186.148      95.8684     192.1957     384.0857      2.355     3.46     1322.386     67.73503     124.0536         5     1.024     0.338 -42.33   3
       156    857.5032    578.7550 307.5617475  +6.6646342     1128.959     2749.379     4044.978     96.32674     192.0428     384.4677      3.032     7.60     1322.298     67.73503     143.1548        19     1.865     0.866 -76.08   2
       157    861.0169    578.1973 307.5602981  +6.6649828     1176.866     2818.631     3883.311      95.8684     191.6602     384.0475      2.561     6.63     1322.218     67.73503     144.3429        14     1.441     0.978  85.38   3
       158    101.0184    571.8974 307.8780325  +6.6420290     1152.918     2860.163     5078.808      96.1742     192.0428      383.971      3.712     9.24     1334.069     67.73503     152.2812        17     2.359     1.009  38.90   2
       159    783.8755    564.8076 307.5929781  +6.6679413      1695.49     3882.701     6165.512      95.8684     191.5836     384.0475      3.036     8.90     1322.213     67.73503     203.1995        25     1.956     1.131 -65.81   3
       160    780.0361    563.5140 307.5946257  +6.6683482     1932.937     4624.711     6350.442     96.32674     192.1193     384.2768      2.624     9.90     1322.195     67.73503     208.1949        34     2.369     1.153 -71.84   3
       161    729.4659    563.8041 307.6157448  +6.6665320     898.3323     1916.741      3251.46     95.56162     191.8899      383.971      2.550     7.08     1322.875     67.73503     118.7947        14     1.698     0.827 -72.29   2
       162    725.3604    563.2198 307.6174797  +6.6666362     1043.431     2150.779     3649.262      95.8684     191.9664      383.971      3.347     6.79     1322.964     67.73503     150.7838        12     1.398     0.924 -62.99   2
       163     22.5083    561.9007 307.9111698  +6.6435157     1107.828     2804.042     4553.778     96.32674     192.8058     384.2386      3.336     9.84     1337.156     67.73503     139.1273        18     2.171     1.244  84.91   2
       164    720.2672    555.5627 307.6198651  +6.6696357     592.6309     1329.888     2592.441      96.1742     192.1957     384.3914      2.755     4.47     1322.796     67.73503     109.5291         5     1.215     0.468  -8.39   0
       165     48.2198    546.6443 307.9009446  +6.6507010     2262.181     10291.67     14839.99     95.71513     192.0428     384.0857      3.316    10.17     1335.358     67.73503      318.809        76     2.477     2.204 -57.64   0
       166    376.3280    547.6588 307.7638309  +6.6613479     565.1236     1854.274      2941.24     96.47903     192.1957     384.2386      3.523     5.54     1328.364     67.73503     113.8141         5     1.298     0.667  45.90   0
       167    376.7800    543.7604 307.7637735  +6.6629772     708.5325     1501.398     2380.419      95.8684     191.9664      383.971      2.903     5.57     1327.966     67.73503     95.00134         5     1.197     0.732   6.28   0
       168    590.7095    538.1025 307.6745831  +6.6725152     3963.525     18730.96     27059.45     96.32674     192.7297     384.2768      3.353    10.25     1324.901     67.73503     545.1573        95     2.614     2.264 -42.39   0
       169    489.6849    531.5582 307.7170126  +6.6718288     1201.872     2347.304     3894.596     96.32674     192.0428     384.2386      3.141     6.20     1325.791     67.73503     149.2504        13     1.259     0.859  -7.05   3
       170    490.8756    537.1743 307.7163259  +6.6695436     1318.644     2931.349     4501.394      95.8684     192.0428     384.2386      2.774     7.67     1326.231     67.73503     176.7063        18     1.562     1.126 -22.42   3
       171    493.5790    533.0195 307.7153364  +6.6713547     1149.103     2091.555     3656.503     96.02142     192.1193     384.1621      3.237     7.05      1325.82     67.73503     131.9172        15     1.477     0.942 -61.73   3
       172    398.0821    530.4097 307.7553237  +6.6692220     5679.183     16725.34     25862.82      95.8684     191.7368     384.0857      3.270    13.81     1326.495     67.73503     622.3821        80     3.167     1.939 -36.52   3
       173    394.5218    527.4808 307.7569099  +6.6703148      5363.93     9187.184     10391.08      96.6311      192.501     384.4677      1.868     6.33     1326.274     67.73503     634.5735        23     1.503     0.993 -51.45   3
       174    218.0366    530.7064 307.8305365  +6.6630323     2093.035     7987.587      13785.3     96.47903     192.0428     384.3914      4.121    16.00     1328.874     67.73503     248.8633        82     3.484     2.299 -23.42   2
       175    576.2427    529.3980 307.6809204  +6.6756331     835.9671     3231.833     5141.728     95.56162     191.8134     383.8945      3.492    10.89     1324.315     67.73503      111.949        22     2.432     1.359  45.54   2
       176    875.8343    529.1490 307.5557527  +6.6857873     660.9491      1694.26      2656.08      96.1742     192.1193     384.1621      1.665     3.57     1318.518     67.73503     122.9421         5     1.400     0.262  78.94   2
       177    207.3960    526.9095 307.8351104  +6.6642454     846.8604     2099.469     5489.764     95.71513     191.8134     383.9328      3.496     4.83     1328.828     67.73503       147.85         8     1.373     0.481 -85.98   0
       178    136.2944    513.4156 307.8652722  +6.6674329     3053.818     7730.451     10573.54     96.02142     191.9664     384.0857      2.805    10.69     1329.833     67.73503     326.5326        48     2.668     1.541 -47.44   3
       179    132.6065    510.5847 307.8669087  +6.6684805     2397.226     4741.441     6633.626      95.8684     191.8899     384.0857      2.246     9.28     1329.814     67.73503        256.7        30     2.409     0.997 -52.70   3
       180    417.8314    511.9930 307.7476931  +6.6775119     456.3036     1070.705     2172.809     95.56162     191.9664     384.0092      1.800     3.62     1324.398     67.73503     97.95581         5     1.748     0.216 -50.31   0
       181    882.5311    509.6708 307.5536080  +6.6940765     1128.733      2423.86     3457.159     96.32674     192.3484     384.2386      2.317     7.03     1316.249     67.73503     162.5005        15     1.626     0.852  75.01   2
       182    877.9062    509.7369 307.5555382  +6.6938942     1213.627     3689.548     4144.379     96.32674     192.2721     384.3532      2.660     7.63     1316.341     67.73503     183.3097        20     2.236     0.728 -70.09   2
       183    476.4494    508.9565 307.7233040  +6.6807416     819.6675     1968.919     3385.668     96.32674     192.1193      384.315      2.946     6.31     1323.809     67.73503     125.5098         9     1.569     0.712 -62.47   0
       184    944.4804    505.0347 307.5278787  +6.6980703     741.6071     2459.342      3012.32      96.1742     192.2721      384.315      2.774    10.51     1314.111     67.73503     101.6639        15     1.764     1.745  -1.81   0
       185    663.3566    505.6709 307.6453205  +6.6883829      1664.58     3078.508     3208.858      96.1742     192.1957      384.315      1.947     6.26     1321.366     67.73503     192.8551        14     1.462     0.753  27.59   3
       186    666.2419    503.7409 307.6441798  +6.6892789     1648.929     2513.472     3302.149     96.32674     192.1957     384.3532      1.786     4.30     1321.203     67.73503     209.1274        11     1.175     0.723 -50.40   3
       187    663.4728    500.6953 307.6454392  +6.6904469      1954.92      4927.94     5811.993      96.1742     192.3484     384.2768      2.538     9.98      1321.02     67.73503      219.926        41     2.370     1.461 -14.80   3
       188    681.3560    505.3778 307.6378097  +6.6891085     578.8621     1170.928     2344.395     95.71513     192.0428     384.0475      2.076     4.55     1321.041     67.73503     99.62952         6     1.200     0.490  29.66   0
       189    582.6261    500.7029 307.6792190  +6.6877285     1039.026      2585.58     4326.807     96.47903     191.8899     384.1621      3.186     7.85     1321.852     67.73503     149.0074        17     1.811     0.952 -51.45   2
       190    587.4650    500.8351 307.6771927  +6.6878363      816.499     1459.564     2931.708      96.1742     192.1957      384.315      3.695     5.18     1321.784     67.73503     122.0996         8     1.110     0.683 -57.99   2
       191    382.3428    496.2349 307.7630520  +6.6828416      1419.64     2729.982       4315.5      96.1742     192.1957      384.315      3.262     8.85     1323.902     67.73503     194.9414        19     1.843     1.187 -53.81   3
       192    385.6874    501.0564 307.7614920  +6.6809579     1669.715     3312.995       5366.9     96.32674     192.0428     384.4296      3.122    11.80     1324.205     67.73503     247.8977        30     2.708     1.433 -31.48   3
       193    385.7150    496.7126 307.7616270  +6.6827573     1478.784      2808.62     3953.986     96.02142     192.4247     384.3532      2.256     5.78     1323.863     67.73503     184.5005        15     1.278     0.997 -73.42   3
       194    282.6875    494.7797 307.8047384  +6.6800868     3279.529     8855.424     14800.13     96.02142     191.8899     384.1621      3.503    11.85     1324.889     67.73503     383.7305        62     3.071     1.868 -29.03   2
       195    280.3525    490.6953 307.8058519  +6.6816991     3062.517      7069.12     8987.262      96.1742     192.0428     384.4677      2.496     8.01     1324.629     67.73503     343.6847        27     1.756     1.199 -15.35   3
       196     55.4657    497.2628 307.8995883  +6.6713908     770.6099     1268.355     2222.058     96.32674     192.1957     384.2768      1.713     4.98     1331.938     67.73503     141.7319         7     1.321     0.532 -34.67   0
       197     56.4460    492.6638 307.8993343  +6.6733280     797.6744     1870.432     2665.585      96.1742     192.1193      384.315      2.718     6.48     1331.661     67.73503     129.0109        10     1.646     0.717  31.99   2
       198    611.3007    477.0879 307.6680325  +6.6984693     924.6697     2356.649     4067.496     96.32674     192.7297     384.2768      3.304     8.57     1319.153     67.73503     151.6743        13     2.007     1.022  42.63   3
       199    598.3017    484.8084 307.6732041  +6.6948360     2292.315     4601.638     5508.348     96.02142     191.7368     384.0092      2.263     8.20     1320.203     67.73503      250.228        26     1.903     0.989  42.94   3
       200    607.8942    486.3574 307.6691440  +6.6945170     2628.303     11461.61     17723.77     96.32674     192.1193     384.4296      3.620    14.98     1320.098     67.73503     320.1714        99     3.222     2.490  86.49   3
       201    600.8936    481.1126 307.6722455  +6.6964533     2308.811      7119.24     11904.25     96.32674     192.7297     384.3532      3.524    12.20     1319.794     67.73503     256.6056        51     2.660     1.557  24.47   3
       202    208.5024    483.6490 307.8361096  +6.6821937      1521.71     6594.973     9872.064     96.32674     192.1193     384.4677      3.408    11.16     1325.332     67.73503     241.2919        70     2.458     2.189 -36.43   0
       203    372.3275    481.8398 307.7677221  +6.6884644     2172.463     4541.899     6202.569      96.1742     192.1957     384.3532      2.532    10.91     1323.106     67.73503     221.9369        34     2.813     1.180 -54.77   3
       204    369.3086    479.3392 307.7690678  +6.6893980     1855.624     4514.829     7613.251      96.1742     192.2721     384.3914      3.337    13.59      1322.92     67.73503     220.2739        39     3.695     1.390 -54.53   3
       205    631.3521    479.5577 307.6595712  +6.6981202     5067.415      17222.6     30159.93     96.32674     192.1193     384.2003      3.713    10.10      1319.51     67.73503     501.8977       118     3.260     2.231 -36.85   0
       206     18.2263    475.6177 307.9158793  +6.6790939      1045.71     2421.497       3755.4      95.8684     191.9664     384.1621      3.556     7.31     1331.911     67.73503     132.7617        14     1.369     1.093 -73.19   2
       207    104.3311    470.8645 307.8800654  +6.6839709     1346.404     2707.043     3681.286     96.32674     192.2721      384.315      2.206     6.89     1328.864     67.73503     169.5242        16     1.673     0.794 -38.25   3
       208    106.8912    475.0627 307.8788538  +6.6823192     1591.111     3988.656     6051.625     96.32674     192.3484     384.3914      3.130     9.56     1328.973     67.73503     212.0532        29     1.976     1.291  -2.92   3
       209    108.7231    471.4124 307.8782118  +6.6838923     1620.648     2959.552     4551.645      95.8684     191.7368     384.0475      2.127     5.07     1328.645     67.73503     188.9846        12     1.054     0.872  23.43   3
       210    840.9075    466.3447 307.5724540  +6.7106209     768.0497     1749.091     3425.513      96.1742     192.0428     384.4677      3.515     5.29     1313.498     67.73503     98.74426         6     1.216     0.649 -21.15   0
       211    751.8813    459.6732 307.6098775  +6.7103985     1004.799     2260.535     3303.408     96.63109     192.5773      384.315      3.375     8.78     1316.022     67.73503     138.8369        14     2.318     0.929 -53.79   2
       212    747.4377    458.8099 307.6117633  +6.7106069     866.8934     2126.755     3428.395     95.56162     191.9664     383.9328      2.364     8.38         1316     67.73503      108.204        14     2.564     0.766 -70.48   2
       213    576.5607    455.2468 307.6832832  +6.7063451     2808.265     8632.193     12048.98      96.1742     192.1957     384.0475      3.008    11.94      1317.02     67.73503     310.1791        56     2.738     1.671 -55.76   3
       214    572.8576    453.3037 307.6848959  +6.7070252     3018.445     6822.683     9139.696      96.1742     192.1957     384.4677      2.444     8.68     1316.831     67.73503     300.3788        29     2.437     0.864 -63.99   3
       215    714.3397    452.3570 307.6258100  +6.7121682     1240.038     2216.038     3278.163     96.32674     192.1957     384.4296      2.098     6.63     1315.528     67.73503      153.853        14     1.529     0.861 -37.98   3
       216    712.0579    449.3493 307.6268646  +6.7133370     1474.017     3491.326     5361.139     96.32674     192.1957     384.2768      2.911     7.81     1315.174     67.73503     202.1561        23     1.979     0.862 -82.29   3
       217    715.9846    447.1828 307.6252967  +6.7143657     1313.939     2960.307     5315.789     96.02142     191.8134     384.2003      3.092     7.23     1314.903     67.73503     165.1147        16     1.788     0.820  51.25   3
       218    203.0792    445.7506 307.8396560  +6.6977017     2910.338     8526.243     12726.41     96.32674     192.2721     384.2768      3.206    11.15     1323.069     67.73503     337.4174        67     2.890     1.933 -36.96   2
       219    199.2827    442.7497 307.8413437  +6.6988161     2241.323     3726.448      5053.46     96.32674     192.1957      384.315      1.959     5.07     1323.056     67.73503     259.9855        16     1.395     0.823 -35.10   3
       220    450.8842    432.6537 307.7365570  +6.7114734     1990.181     5139.519     6589.384     96.32674     192.1957     384.4677      2.668     8.27     1316.091     67.73503     267.7687        36     2.090     1.315 -38.21   3
       221    451.4165    437.3921 307.7361749  +6.7095295     2064.618     4259.104     5343.161      95.8684     191.8899     384.0857      2.321     9.12      1316.52     67.73503     222.7762        29     2.183     1.063  -8.79   3
       222    454.9976    433.9590 307.7347943  +6.7110714     1981.417     3306.659     4421.413     95.56162     191.8899      383.971      1.840     5.23      1316.18     67.73503     243.1401        16     1.520     0.744 -59.05   3
       223    159.6018    430.0542 307.8583524  +6.7027333     1803.056      9836.61     15100.45     95.56162     191.9664      383.818      3.480    11.36     1324.068     67.73503     314.2109        81     2.605     2.330 -56.07   0
       224    761.1992    432.0936 307.6069106  +6.7221301     764.5025     1513.815     2996.569     95.71513     191.6602     383.9328      2.894     5.23     1312.855     67.73503     98.57605         5     1.153     0.671  71.54   0
       225    302.1785    427.3924 307.7988695  +6.7086440     1026.341     2819.083     6222.557     95.71513     191.9664     384.0092      4.679     8.71     1319.832     67.73503     119.2242        19     1.925     1.101 -57.93   2
       226    268.6512    420.5701 307.8131087  +6.7103386     733.3784     2557.383     4037.506     96.02142     192.3484     384.1621      3.098     9.88     1320.117     67.73503     113.0532        15     2.404     1.132 -75.55   0
       227    801.2258    424.6793 307.5904340  +6.7265421     898.5422     2138.703      4568.43     96.02142     192.0428     384.2386      4.168     6.94     1311.969     67.73503     109.5426        13     1.280     1.054  57.45   0
       228    751.5718    418.7523 307.6113817  +6.7273311     1350.659      2936.69     4607.168      95.8684     192.1957     384.2003      3.273     7.63     1311.469     67.73503     187.1903        22     2.506     0.650 -50.84   3
       229    747.9274    416.6076 307.6129766  +6.7280968     1812.455     4717.131      6405.87      95.8684     191.6602     384.1621      2.897    11.49     1311.247     67.73503     172.1628        39     2.324     1.583 -57.45   3
       230    364.8661    413.9234 307.7731306  +6.7163326     869.5548     2843.755      6078.52     96.47903     192.2721     384.2386      3.457     7.84      1315.97     67.73503     149.1555        15     2.470     0.696 -53.56   2
       231    851.6799    406.9609 307.5699458  +6.7355693     1542.265     5023.397      10046.1      96.1742     192.2721     384.2386      4.095    15.46     1308.317     67.73503     168.1271        50     3.597     1.848  78.92   2
       232    361.1461    411.3431 307.7747721  +6.7172756     873.3264     2217.635     4141.478     96.47903     192.1957     384.2768      2.498     3.86     1315.852     67.73503     116.9854         6     1.049     0.408 -14.59   0
       233    484.0120    405.2519 307.7236381  +6.7239333     4161.505     21190.28     33453.57     95.56162     192.1193     383.9328      3.542    10.28     1312.878     67.73503     599.0759       103     2.698     2.408 -49.34   0
       234    779.1628    397.2426 307.6005749  +6.7371623     11561.62     47146.07     69623.73     96.02142     192.1193     384.1239      3.330     8.93     1309.242     67.73503      1313.74       126     2.686     2.348 -36.58   0
       235    624.0790    399.9880 307.6652871  +6.7308208     666.7465     1520.655     2879.582      95.8684     191.8134     384.0857      3.454     5.52     1310.406     67.73503     102.2362         6     1.175     0.732 -21.29   0
       236    181.3364    377.6480 307.8510424  +6.7251643     2838.803     15402.51     24007.46      96.1742     192.0428      384.315      3.490    11.83     1320.517     67.73503     731.1788        93     2.655     2.382 -45.73   0
       237    948.4625    375.8589 307.5305459  +6.7516882     13966.09     48630.27     60855.34     96.47903     192.1193      384.315      2.907     7.66     1304.551     67.73503     1583.227       100     2.365     2.049 -53.45   0
       238    789.2164    377.2580 307.5970451  +6.7457739     1012.337     1884.161     3170.843     95.56162     192.1193      383.971      2.819    10.85     1307.072     67.73503     133.9622        15     2.330     1.408 -24.25   3
       239    785.3095    376.6544 307.5986979  +6.7458928     887.8231     1944.577     2513.403      96.1742     191.9664     384.4296      2.475     6.05     1307.139     67.73503     102.3135         9     1.381     0.747 -69.97   3
       240    233.5682    377.6210 307.8292184  +6.7269376     1956.856      5388.38     8113.604     95.71513     191.9664     384.0857      3.130    11.06     1318.438     67.73503      231.201        52     2.722     1.663 -45.06   2
       241    230.0426    373.8973 307.8308174  +6.7283604     1441.902      2791.17     3982.238     96.32674     192.1193     384.5441      2.474     7.10      1318.39     67.73503     195.8739        17     1.684     0.840 -68.62   3
       242    820.3887    374.2813 307.5841188  +6.7480514     2334.441     6427.448     8639.962      95.8684     191.8899     384.0857      2.860    10.05       1306.1     67.73503     287.7977        46     2.309     1.531 -80.84   2
       243    824.2981    374.2672 307.5824856  +6.7481883     1901.427     3528.474     4460.453     96.32674     192.3484      384.315      2.097     7.86     1306.006     67.73503     243.2527        21     2.090     0.828 -80.94   3
       244    971.8599    368.6933 307.5210087  +6.7554382      1333.38     3532.012      4633.15      96.1742     192.1193     384.3532      3.008     8.86     1303.604     67.73503     191.3793        24     1.941     1.290  11.37   2
       245    257.0846    366.2683 307.8197756  +6.7324310     3233.441     16619.92     26916.01     96.63109      192.501      384.315      3.605    11.04      1317.16     67.73503     481.8914       101     2.694     2.443 -54.54   0
       246    676.6140    360.1673 307.6446736  +6.7490723      1536.13     2707.392     3738.762      95.8684     191.8899     384.1621      1.956     4.15     1306.948     67.73503     207.7316        11     1.088     0.695 -36.17   3
       247    675.7828    363.7780 307.6448996  +6.7475493     1621.861     3937.585     5408.973     96.02142     192.0428     384.2003      3.058     9.76     1307.256     67.73503     196.8105        25     2.011     1.322  46.38   3
       248    680.3969    361.9766 307.6430320  +6.7484501     1686.045     3515.188     4250.327      95.8684     191.8134     384.0857      2.234     6.86     1307.078     67.73503     191.9594        27     1.580     1.309  73.65   3
       249   1022.0001    361.7537 307.5002881  +6.7599890     1398.127     3815.921     3720.938     95.40786     179.0666     320.1224      2.421     8.11     1302.555     67.73503     192.8906        29     2.045     1.321  88.28  24
       250    857.6762    352.7608 307.5692593  +6.7582114     721.0123     1721.224     3570.075      96.1742     192.1957      384.315      4.132     6.77     1303.367     67.73503     121.2056         8     1.448     0.888 -18.92   0
       251    732.0696    339.0914 307.6222082  +6.7596597      886.856     3206.831     5412.081     96.32674     192.3484      384.315      3.498    11.97     1304.528     67.73503     122.0946        23     2.374     1.681  68.61   2
       252    903.7285    336.2495 307.5505685  +6.7665905     1732.246     5108.786     7832.578     96.32674     192.1957      384.315      3.342    11.58      1301.36     67.73503     194.4528        41     2.183     1.871 -64.17   2
       253    588.0656    337.1869 307.6824496  +6.7556129     2980.343     7853.525     9860.333     95.71513     191.9664     384.1621      2.550     8.75     1304.825     67.73503     369.3447        38     2.175     1.243  10.93   3
       254    589.4964    333.2750 307.6819833  +6.7572807     2796.371     8942.003     12214.17      95.8684     192.4247      384.315      2.955     9.82     1304.386     67.73503     301.4292        52     2.639     1.354  11.77   3
       255    703.8088    334.7323 307.6341646  +6.7605161      701.535     1573.256     2726.132     95.71513     191.8899     384.1621      3.123     4.84     1304.271     67.73503     92.53528         5     1.309     0.508  62.94   0
       256    112.3035    332.2157 307.8814240  +6.7416438     1142.978     2889.294     4340.655      96.1742     191.8899     384.0475      3.025     9.40      1322.47     67.73503     183.1433        25     2.303     1.070 -64.99   2
       257    108.7657    329.1378 307.8830064  +6.7427986     1110.823     2192.812      3182.26      96.1742     192.2721     384.2386      2.631     6.42     1322.625     67.73503     146.7516        15     1.689     0.686 -65.68   2
       258     90.0943    333.1994 307.8906710  +6.7404864     599.2551     1531.136     2442.829     95.71513     191.7368      383.818      2.282     5.27     1323.819     67.73503     103.4481        10     1.841     0.426 -42.51   0
       259    241.4375    329.5097 307.8275555  +6.7471224     1515.774     3895.744     6286.697     96.47903     192.1193      384.315      3.238    12.36      1316.06     67.73503     179.2649        37     3.033     1.402 -39.27   2
       260    237.9207    325.9490 307.8291454  +6.7484780     1470.046     3417.053     4669.379     96.32674     192.2721     384.2768      2.844     8.10     1316.024     67.73503     186.7173        26     1.712     1.276 -40.50   3
       261     70.8945    324.1404 307.8990002  +6.7435884     872.8179     2475.318     4570.429      96.1742     192.1957     384.3914      3.729    10.10     1325.269     67.73503     165.6808        16     2.428     1.172 -43.13   2
       262    300.1984    324.5194 307.8031698  +6.7511697     706.0757     1336.411     2513.657     95.56162     191.5836      383.971      2.446     4.47     1312.993     67.73503     115.2765         6     1.356     0.419 -72.52   2
       263    277.6729    323.9518 307.8126017  +6.7506454     1312.822     3296.405     6145.838     96.32674     192.2721      384.315      3.801    14.40     1313.951     67.73503     161.2332        39     3.370     1.712  -9.26   2
       264    627.5604    322.7306 307.6664317  +6.7629252     630.8777     1728.216     2299.176      96.1742     192.1957     384.3532      2.880     6.58     1303.191     67.73503     101.0586         7     1.504     0.808 -73.71   0
       265    580.8551    314.3772 307.6862306  +6.7648147       3876.5     15235.44     25304.03      95.8684     192.1957     384.0475      3.689    12.89     1302.346     67.73503     503.7545       107     3.599     2.504 -77.45   2
       266    578.8277    311.1477 307.6871865  +6.7660837     4895.035     8335.121     10866.66     96.02142     192.3484     384.1621      1.865     5.17     1302.034     67.73503     515.5217        15     1.333     1.005 -54.92   3
       267    534.6302    313.0015 307.7055938  +6.7638304     5619.077     15799.73     23279.11     95.56162     191.9664     384.0475      3.123    12.93     1302.759     67.73503     655.4084        69     3.032     1.692 -27.89   3
       268    532.2382    309.1912 307.7067218  +6.7653276     5040.601     10784.09     13055.06     95.40786     191.8899     383.9328      2.293     7.67     1302.476     67.73503     530.7656        32     2.078     1.103 -23.13   3
       269    459.9981    309.4540 307.7369011  +6.7627889     2194.787     6117.438     8614.831     95.56162     191.9664      383.818      2.801    10.35     1305.359     67.73503     266.2114        48     2.796     1.333 -43.95   3
       270    457.3488    305.8192 307.7381308  +6.7642046     2091.692     4752.784     6051.852     95.71513     192.2721     384.0475      2.347     8.66     1305.308     67.73503     225.6509        32     2.143     1.165 -44.55   3
       271    388.3866    305.9187 307.7669457  +6.7618420      686.222      1428.25     2535.748      95.8684     191.8899     384.0475      2.497     3.77     1308.766     67.73503     95.45642         5     0.872     0.487 -89.69   1
       272    390.5111    301.4249 307.7662095  +6.7637741     952.4199     2315.796     3345.207     96.47903     191.9664     384.0857      2.909     7.80     1308.397     67.73503     125.8036        13     1.874     0.908  35.56   0
       273    531.6771    298.3907 307.7073200  +6.7697805     671.5065     1721.514      3100.68      95.8684     191.5836     384.0475      2.401     4.91     1301.429     67.73503     90.09863         7     1.400     0.488  -0.50   0
       274    364.9115    292.7700 307.7771991  +6.7664953     2934.173     7363.225     10278.73     96.47903     191.9664     384.2003      2.775     9.58       1309.4     67.73503     349.9187        47     2.589     1.416  14.15   3
       275    366.5786    288.8080 307.7766362  +6.7681919     2857.428     8018.968     10585.22     95.71513     191.9664     384.0092      2.899    11.04      1309.17     67.73503     303.5812        42     2.719     1.249  18.08   3
       276    667.5912    291.8049 307.6507434  +6.7770740     657.7818     1512.376     2210.062     95.56162     191.8899     384.0857      1.729     3.40     1299.663     67.73503     96.55542         5     1.233     0.272 -34.77   0
       277    824.6367    283.3601 307.5853966  +6.7858390     5025.341     21037.83     29011.97     96.02142     192.1957     384.1239      3.196     8.86     1298.264     67.73503     613.5273        92     2.530     2.158 -45.41   0
       278    651.5790    277.1176 307.6579290  +6.7826174     738.1415     2164.788      3136.34     96.02142     191.8134     384.2003      2.803     7.68     1298.241     67.73503     95.61169         9     1.901     0.867  -1.13   0
       279    973.8618    273.1778 307.5233744  +6.7950528     2184.752     7730.019     9599.204      95.8684     192.1957     384.1621      2.886     8.39     1294.876     67.73503     282.3263        54     2.143     1.808 -47.43   0
       280   1014.7574    272.9070 307.5062923  +6.7965333     1134.898     3233.098     3995.258     96.32674     192.1957     384.4296      2.745     9.11     1294.795     67.73503       132.75        22     1.708     1.357  53.84  18
       281    464.1926    271.7849 307.7364180  +6.7785263     607.5699     1195.497     1315.837      95.8684     191.8899     384.0857      1.532     3.40     1301.729     67.73503     91.90234         5     0.963     0.347  46.64   0
       282    806.8036    267.3007 307.5933887  +6.7918904     1342.026     3345.537     4492.844     96.02142     191.8899     383.8563      2.744     9.11     1297.462     67.73503     149.0839        27     1.918     1.209  31.42   3
       283    810.2148    264.9732 307.5920412  +6.7929684     1068.071     1978.927     2881.133      95.8684     192.0428     384.2003      1.927     6.64     1297.308     67.73503     158.6647        15     1.639     0.756  83.98   3
       284    805.8116    263.0378 307.5939464  +6.7936221      1321.34     2289.392      3304.05     95.71513     191.9664     383.8945      2.123     4.72     1297.232     67.73503     203.3503        14     1.263     0.913  16.65   3
       285    142.7997    266.8624 307.8708912  +6.7697313     2658.957     2416.742      1723.44     95.40786     191.8899     383.8945      0.702     1.36     1321.213     67.73503     1122.061         7     0.652     0.450  24.22   0
       286    756.7260    261.4380 307.6145140  +6.7926384     1213.223     3611.806     5204.202      96.1742     192.2721     384.3532      3.374    12.38     1297.358     67.73503     147.4141        32     2.712     1.573  76.36   2
       287    761.3350    259.6704 307.6126472  +6.7935249     952.7938     1420.657     2998.845     96.32674     192.2721     384.2768      2.175     7.52     1297.277     67.73503     116.7474        14     1.941     0.815  61.17   3
       288    113.0161    250.7468 307.8838823  +6.7753978     5892.625     30081.28     46898.62     95.56162     192.2721     383.9328      3.497    10.91     1323.899     67.73503       977.46       112     2.683     2.473 -56.58   0
       289      8.2805    243.0472 307.9279100  +6.7750462     720.1321     1672.088     3636.088     96.32674     192.1957     383.7415      3.134     3.66     1331.163     67.73503     110.8774         5     0.757     0.542 -74.20   3
       290     11.6555    245.6875 307.9264102  +6.7740672     1020.097     2219.974     3553.416     96.32674     192.0428     384.4677      3.332     6.68     1330.828     67.73503     149.0797        10     1.227     1.019 -18.42   2
       291    693.8212    245.4644 307.6413401  +6.7971412     879.8182     1904.404     2824.658      95.8684     192.1957     384.1239      2.490     6.65     1295.996     67.73503     129.4056        12     1.521     0.816   5.51   0
       292    694.9314    241.7046 307.6410026  +6.7987352     752.8352     2212.328     3168.671      96.1742     192.2721      384.315      2.550     6.99     1295.778     67.73503     118.6505        10     1.944     0.705  12.11   0
       293    666.6238    237.8496 307.6529626  +6.7993810     1169.099     3252.272     4970.761      95.8684     192.2721     384.1621      3.130     9.10     1295.089     67.73503     155.7339        22     2.252     1.026 -57.29   2
       294    662.1827    239.1291 307.6547756  +6.7987021     938.9349     2202.416     3768.604     95.71513     192.1193     384.1621      3.226     7.29     1295.038     67.73503     124.7065        12     1.678     0.886 -75.20   2
       295    748.5971    229.9084 307.6189709  +6.8054202     1174.351     3128.666     4912.313     95.71513     191.8134      383.971      3.436     9.86     1295.354     67.73503     169.0293        21     2.429     1.117 -67.97   2
       296    752.6063    230.0259 307.6172914  +6.8055060     1101.899     2273.006     3264.302     95.71513     191.9664     384.0475      2.197     6.75     1295.351     67.73503     128.3722        15     1.378     0.928 -88.16   3
       297    328.0283    217.3294 307.7951587  +6.7964872      4790.17     16152.64     25812.79     96.02142     192.1957     384.2386      3.435    11.50      1308.53     67.73503     537.7295        85     2.903     2.347 -40.69   2
       298    324.8468    213.7599 307.7966088  +6.7978579     4068.623     6704.766     7664.034      96.1742     192.1957     384.0475      1.784     6.23      1308.65     67.73503     469.1512        16     1.607     0.698 -47.85   3
       299     94.4108    214.3807 307.8928877  +6.7898256     641.7395     1109.353     2166.231      95.8684     191.8134     384.1239      2.217     3.50     1326.534     67.73503     93.82446         5     1.058     0.335 -68.94   0
       300    421.1220    210.4200 307.7564866  +6.8024836     6112.563     17774.38      25107.2      95.8684     191.8899     384.2386      3.076    10.62     1300.319     67.73503     711.4857        71     2.972     1.643 -49.21   3
       301    417.6562    207.1492 307.7580454  +6.8037211     5327.717     11460.41     13888.83     96.32674     192.1957     384.2386      2.369     9.50     1300.278     67.73503     556.4275        41     2.488     1.160 -54.06   3
       302   1016.8345    209.1076 307.5075625  +6.8230185       868.45     2363.497     2766.683     96.47903     192.0428     383.2821      2.538     6.92     1290.312     67.73503      152.774        16     1.819     1.277  59.73  16
       303     29.8903    197.6651 307.9204164  +6.7945657     5067.764     25341.31      39219.8      96.1742     192.4247      384.315      3.521    10.49     1330.303     67.73503     822.3899       106     2.695     2.423 -55.86   0
       304    791.5220    198.8095 307.6020761  +6.8197360     791.9584     1810.435     2876.421      95.8684     191.6602     384.1239      3.091     7.13     1293.589     67.73503     86.61853         9     1.417     1.004 -32.71   2
       305    640.7687    198.5930 307.6650889  +6.8147664     954.2621     2595.931     5699.534     95.56162     191.9664     384.0092      3.535     6.17     1292.222     67.73503      144.099        11     1.505     0.712  -1.41   0
       306    458.3649    189.9431 307.7416125  +6.8122152     711.9257     3837.096     6081.156      96.1742     192.1957      384.315      3.505    12.29     1294.681     67.73503     168.6163        40     2.758     2.153 -53.44   0
       307    862.0089    187.3876 307.5730001  +6.8268279     1981.414      8226.37     10513.87     96.02142     191.9664     384.2003      3.044     8.67     1291.939     67.73503     303.3035        64     2.249     2.029 -52.73   0
       308    523.6280    184.7406 307.7145124  +6.8165648     1504.682     4516.739     7392.104      95.8684     192.2721     384.1621      3.611    13.56     1291.661     67.73503     189.3687        48     2.926     1.748 -24.95   2
       309    521.2980    180.7071 307.7156221  +6.8181564     1313.357     2264.399     3065.849     96.32674      192.882     384.2003      2.034     5.24      1291.64     67.73503     201.9895        13     1.331     0.894  -3.98   3
       310    121.9013    180.6730 307.8825400  +6.8047098     1628.347     5378.296     9354.535     96.02142     192.3484     384.2386      3.643    12.65     1325.945     67.73503     215.3322        54     2.751     1.893 -40.79   2
       311    149.9120    198.5158 307.8702305  +6.7982684     12519.14     67425.38     106563.6     96.02142     192.4247     384.3532      3.558    10.56     1323.821     67.73503     2213.228       137     2.812     2.511 -49.35   0
       312    893.5734    177.2801 307.5601470  +6.8320704     910.8818     3044.198     4196.937      96.1742     191.9664      384.315      3.285    10.32     1290.552     67.73503     133.3638        23     2.328     1.275 -57.69   2
       313    768.0189    176.0000 307.6126656  +6.8283918     1935.565     3091.959      3081.74     95.71513     191.5836     383.8563      1.677     4.94     1292.318     67.73503      271.849        14     1.629     0.626  -5.67   3
       314    769.2670    171.5720 307.6122927  +6.8302671      2801.02     9377.605     14973.91     96.02142     192.1193     384.2386      3.474    10.01     1292.098     67.73503     295.4644        79     2.555     2.278 -35.76   2
       315    826.5013    168.5732 307.5884723  +6.8334278     785.6107     1650.953     2054.469     96.47903     191.8899     384.2386      2.267     4.17     1291.504     67.73503     109.7047         5     1.004     0.494   1.79   0
       316    105.7229    148.6159 307.8903858  +6.8174356     2410.349     7132.403     11359.66     95.71513     191.8134     384.1239      3.387     9.70     1327.028     67.73503     300.5177        61     2.702     1.901 -52.03   2
       317    101.4303    145.7617 307.8922764  +6.8184723     1654.381     3265.395     3848.472      95.8684     191.8899     384.1239      2.020     6.03     1327.141     67.73503     217.9285        14     1.582     0.647 -62.32   3
       318    824.4566    149.8435 307.5899560  +6.8411141     581.6948     1357.243     1539.931      96.1742     192.1957      384.315      1.624     3.51     1290.143     67.73503     87.85339         5     1.255     0.283  35.74   0
       319    202.2956    149.9951 307.8499793  +6.8201253     766.4883     1502.406     2612.868     96.02142     191.8134     384.0092      2.963     4.24     1323.212     67.73503     113.4515         6     0.931     0.552   0.15   0
       320     87.1868    147.2170 307.8981797  +6.8173885     831.0255     2055.893     3357.022     96.02142     191.8134     384.1621      2.589     6.86     1327.707     67.73503     155.4231        11     1.911     0.691 -37.67   0
       321    637.0856    141.1820 307.6685603  +6.8384128     960.2886     2747.563     5264.456      95.8684     191.8899     384.2003      3.953    10.07     1290.169     67.73503      164.181        21     2.401     1.177 -36.04   2
       322    943.7300    138.2471 307.5404932  +6.8499112     966.5764     2208.756     3243.564     96.32674     192.1193     384.2768      2.840     8.86     1287.127     67.73503     135.2634        15     2.094     1.047 -42.03   2
       323    451.6895    134.5112 307.7462714  +6.8349410     694.2286     1663.627     2511.828     96.02142     192.8058     384.3914      2.167     3.74     1293.365     67.73503     95.45349         5     1.422     0.283 -45.53   0
       324    926.6079    130.7592 307.5479010  +6.8524382     832.1379     3016.258     3898.726     95.56162     191.9664     383.8945      3.044    10.27     1286.983     67.73503     137.8549        19     2.092     1.406 -47.02   0
       325    856.4893    127.5765 307.5773153  +6.8514071     1081.453     3733.281     5479.925     96.32674     191.9664     384.1239      3.256    10.55     1287.781     67.73503      161.895        27     2.296     1.351 -83.18   2
       326    809.9810    126.3261 307.5967963  +6.8503659     2463.751     5576.199     7514.991      95.8684     192.1193     384.2003      2.516     9.53     1288.221     67.73503       295.64        31     2.304     1.100 -45.39   3
       327    807.6487    123.1946 307.5978763  +6.8515843     2666.244     6303.595     8419.951     95.56162     191.9664     383.8945      2.643     9.01      1287.98     67.73503     298.8568        38     2.453     1.282 -45.36   3
       328    184.5682    125.5891 307.8582133  +6.8296316     1379.874     4162.555     7170.907     95.71514     191.8899     384.1239      3.560    11.85     1324.433     67.73503     172.1732        36     2.416     1.618 -32.09   2
       329    867.1629    125.7327 307.5729159  +6.8525282     3728.344     8824.955      12444.9      96.1742     192.1957     384.3914      2.935     9.48     1287.466     67.73503     396.7594        43     2.483     1.289 -18.70   3
       330    865.9827    121.9962 307.5735347  +6.8540357     3385.336     6764.245      10054.7      95.8684     191.6602     384.0857      2.965     8.20     1287.145     67.73503     374.6855        31     2.220     1.066 -21.70   3
       331    169.5473    124.0279 307.8645438  +6.8297709     743.4521     1527.327      3326.07     96.02142     192.3484     384.1621      1.989     3.55     1325.202     67.73503     110.3582         5     1.275     0.285  54.46   2
       332    172.2652    121.8218 307.8634825  +6.8307760     944.5097     2038.169     3832.977      95.8684     192.1957     384.1239      2.929     5.04     1325.109     67.73503       138.12         9     1.073     0.752 -76.76   2
       333    206.0314    119.0990 307.8494625  +6.8330430     2400.013     6480.489     9896.873     96.32674     191.9664     384.4296      3.247    10.59      1323.48     67.73503     313.9856        59     2.984     1.631 -36.28   3
       334    203.5268    115.0166 307.8506473  +6.8346486     1924.209     4094.983     4848.405     95.71513     192.0428     384.1621      2.243     8.23     1323.639     67.73503      219.792        24     1.874     1.010 -33.67   3
       335    220.9936    113.6386 307.8433938  +6.8358086       6434.3     34641.54     55883.79     95.25385     191.8134     383.9328      3.562    10.90     1322.865     67.73503     1161.014       124     2.846     2.467 -46.97   0
       336    191.4260    109.2668 307.8558991  +6.8366208     1479.139     4063.557     6598.511      95.8684     192.0428     384.1621      3.568    11.66     1324.313     67.73503     186.9504        34     2.794     1.367 -44.12   2
       337    189.1071    105.0000 307.8570125  +6.8383091     962.4385     2291.483     3757.042     95.71513     191.7368     383.8563      2.912     5.63     1324.443     67.73503     148.9181        10     1.416     0.632  -0.29   3
       338    611.1824    105.8081 307.6805775  +6.8521885     513.4551     1537.793     2464.001      95.8684     191.8899     384.0857      2.975     4.59     1289.051     67.73503     78.74744         5     1.307     0.457  61.71   0
       339    334.7466    101.7138 307.7962542  +6.8445815     1821.984     9922.843     16802.99     96.32674     192.1193     384.4296      3.725    11.70     1311.565     67.73503     350.2727        87     2.756     2.336 -35.95   0
       340    905.0922    103.8606 307.5577967  +6.8628547     1389.525      3341.44     5036.297      96.1742     192.1957     384.3914      2.787     8.95     1285.462     67.73503     162.6572        26     2.093     1.070 -21.40   3
       341    902.9495    101.3019 307.5587781  +6.8638424     1260.454     2977.752     4400.632      96.1742     192.1193     384.4677      2.692     9.19     1285.263     67.73503     160.2306        20     2.126     1.108 -45.47   3
       342     46.4241     91.0437 307.9171173  +6.8392676     62140.01     302230.2     460972.7     95.71513     192.1193     384.0475      3.441     9.80      1329.21     67.73503     10799.67       198     2.834     2.478 -53.11   0
       343     86.0286     89.5390 307.9006161  +6.8412291      2758.31     7202.224     10561.64      95.8684     192.1957     384.2003      2.992     9.76     1327.436     67.73503      317.444        53     2.751     1.420 -41.61   2
       344     83.1515     85.9550 307.9019399  +6.8426157     2091.239     4578.827     6245.432     96.32674     192.0428     384.2768      2.524     7.61     1327.488     67.73503     236.6697        25     1.820     1.072 -45.62   3
       345    825.3257     92.6596 307.5915136  +6.8648195     726.8811     1722.616     3005.895     96.47903     192.1957     384.2386      2.652     4.78     1285.312     67.73503     106.2889         6     1.458     0.444  -6.82   0
       346    331.5346     83.3749 307.7982158  +6.8520660     781.1367     1519.969     2947.652      95.8684     192.1957     384.1239      2.210     4.60     1313.013     67.73503     133.3978         9     1.254     0.480 -39.72   0
       347    836.7761     77.0121 307.5872531  +6.8716820      1108.38     3255.444     4549.735      95.8684     191.9664     384.2003      3.072    11.45     1284.476     67.73503     180.7963        27     2.526     1.446 -53.17   2
       348    370.7729     75.9025 307.7820680  +6.8564819      4612.05     12919.09     19168.25     96.47903     191.8899     384.2003      3.071    10.64     1306.541     67.73503     520.3654        68     2.969     1.623 -40.89   3
       349    367.7020     72.4413 307.7834684  +6.8578115     3800.588     7591.409     8877.771     96.32674     192.0428     384.5441      2.116     6.62     1307.316     67.73503     377.8246        29     1.899     1.015 -45.69   3
       350    773.6710     72.6046 307.6137782  +6.8713909     2336.126     5691.464     8142.493      95.8684     191.7368     384.1239      2.962     9.44     1285.343     67.73503     265.3501        41     2.549     1.335 -36.77   3
       351    771.0145     69.2249 307.6150022  +6.8727011     2003.892     4124.175     5574.276     96.02142     191.9664     384.2003      2.381     8.38     1285.253     67.73503     228.7534        27     1.838     1.143 -42.18   3
       352    321.3930     60.7977 307.8032170  +6.8610717     1531.693     4856.575     7921.501     95.56162     191.8134     384.0475      3.776    11.99     1315.523     67.73503     197.2239        51     2.751     1.803 -39.07   2
       353    319.1037     57.0287 307.8043011  +6.8625550      1283.04     2581.333     4569.357     96.47903     191.8899     384.2768      2.376     4.90     1315.957     67.73503     191.6228        12     1.193     0.965  20.49   3
       354    850.2478     58.5368 307.5822426  +6.8797830     1300.755     3923.454     5392.689      96.1742     192.0428      384.315      2.982    10.46      1283.46     67.73503      154.255        31     1.858     1.691  44.15   2
       355     39.2976     47.2717 307.9215781  +6.8571489     1936.195     8882.167     13493.28      96.1742     192.3484     384.2768      3.434     8.96     1327.585     67.73503     341.3417        76     2.629     2.250 -58.24   0
       356    300.0921     37.9860 307.8128905  +6.8697982      9998.61     27373.54      40402.4     96.02142     191.8899     384.0092      3.117     9.94     1319.301     67.73503      1174.17        82     3.004     1.786 -39.80   3
       357    296.8222     34.1640 307.8143864  +6.8712704     7750.245     15961.84     17569.94     95.71513     191.8899     384.0092      2.133     6.78     1319.823     67.73503     806.7622        39     1.967     1.121 -40.11   3
       358    322.3965     36.6416 307.8036133  +6.8711067     902.7015     2295.408     4086.912     95.56162     191.8899      383.971      3.532     7.50     1316.154     67.73503     128.5127        15     1.852     0.851 -77.33   2
       359    326.8882     36.8631 307.8017284  +6.8711664     1415.381     3852.155      5745.94      96.1742     192.4247      384.315      2.854     8.45     1315.433     67.73503     202.6392        24     2.306     0.865 -52.56   2
       360    443.6524     33.4584 307.7530386  +6.8765091     1272.445     4033.602     7590.277     96.32674     192.1957     384.2768      3.839    13.54     1299.229     67.73503     178.5138        42     2.718     1.875 -23.53   2
       361    612.9014   1019.9976 307.6491062  +6.4737377     1483.501     3786.573     4292.641      95.8684     191.8899     351.6798      2.708     7.62     1353.205     67.73503     181.6871        30     1.705     1.548 -23.32  16
       362    622.0280     26.2553 307.6787225  +6.8854903     1096.872     2068.273     3777.701      95.8684     192.2721     384.0857      2.973     6.03     1288.115     67.73503      144.547        11     1.358     0.754  16.09   3
       363    624.7781     24.2190 307.6776415  +6.8864258     995.8491       1913.8     2990.354     96.02142     192.0428     384.2003      2.526     6.02     1287.948     67.73503     151.2024        12     1.731     0.589   7.97   3
       364    166.1841   1020.7007 307.8356465  +6.4584130      974.741      2201.13     2498.247     96.32674        191.2     341.4706      2.178     7.39     1354.545     67.73503     122.8131        14     1.361     1.123  19.95  16
       365      2.1610   1021.8365 307.9041063  +6.4524058     600.7274     694.0176     471.6014     94.01271     156.0201     255.1445      1.378     4.72     1349.777     67.73503       82.573         6     1.118     0.565  25.00  24
       366     97.5038   1013.2586 307.8645800  +6.4591768     11692.81     32628.74     37940.25      96.1742     192.1957     384.4296      2.626     6.32     1354.252     67.73503     1302.854        77     2.126     1.872 -45.49  16
       367    282.7078   1014.4373 307.7871947  +6.4649342     1797.858     4994.808     5766.073     96.47903     192.1193     384.3532      2.631     8.35     1355.382     67.73503     211.2029        36     1.822     1.632 -82.63  16
       368    462.4598   1012.2480 307.7121978  +6.4718910     1074.654     2155.754     2925.023     96.32674     192.1957     384.3532      3.263     8.86     1355.156     67.73503     138.2246        13     1.990     1.101 -72.32  18
       369    999.8595   1012.7863 307.4877331  +6.4896909     693.3772     1563.104     1295.209     95.56162     192.1193     383.9328      1.965     6.63     1348.888     67.73503     104.8151         9     1.418     0.870 -46.44   0
       370    825.6206   1012.3977 307.5605189  +6.4840191     977.5321     1927.035     1373.713      95.8684     191.8134      383.971      2.011     7.58     1350.636     67.73503     120.4948        13     1.336     1.204 -46.34   0
       371     62.9955   1011.1718 307.8790617  +6.4588758     1335.451     3305.507     2986.149     95.71513     191.9664     384.0857      2.373     7.90     1352.672     67.73503     172.1741        24     1.643     1.396  48.08   0
       372    922.7482   1007.1365 307.5201289  +6.4894501     3079.459     6620.489     6709.765     96.32674     192.1193     384.2386      2.189     5.61     1349.938     67.73503     366.6749        36     1.789     1.312 -45.92   0
       373    394.3994    994.1331 307.7412327  +6.4771015     17282.82     53246.28      64099.6     95.40786     191.6602      383.971      2.742     6.90     1355.312     67.73503     1978.804        89     2.241     1.910 -39.68   0
       374    496.9209    998.3310 307.6982738  +6.4788117     671.4452     1506.546     2123.741     96.47903      192.501     384.2386      2.052     3.99     1354.027     67.73503     106.7036         6     1.085     0.419  12.31   0
       375    602.3445    993.6117 307.6544023  +6.4843079     5417.552     15597.79      18705.6     95.56162     192.1193     383.8945      2.665     6.64     1352.434     67.73503     646.0746        63     2.117     1.744 -35.67   0
