#   1 NUMBER                 Running object number                                     
#   2 X_IMAGE                Object position along x                                    [pixel]
#   3 Y_IMAGE                Object position along y                                    [pixel]
#   4 ALPHA_J2000            Right ascension of barycenter (J2000)                      [deg]
#   5 DELTA_J2000            Declination of barycenter (J2000)                          [deg]
#   6 FLUX_APER              Flux vector within fixed circular aperture(s)              [count]
#   9 FLUXERR_APER           RMS error vector for aperture flux(es)                     [count]
#  12 FLUX_RADIUS            Fraction-of-light radii                                    [pixel]
#  13 FWHM_IMAGE             FWHM assuming a gaussian core                              [pixel]
#  14 BACKGROUND             Background at centroid position                            [count]
#  15 THRESHOLD              Detection threshold above background                       [count]
#  16 FLUX_MAX               Peak flux above background                                 [count]
#  17 ISOAREA_IMAGE          Isophotal area above Analysis threshold                    [pixel**2]
#  18 A_IMAGE                Profile RMS along major axis                               [pixel]
#  19 B_IMAGE                Profile RMS along minor axis                               [pixel]
#  20 THETA_IMAGE            Position angle (CCW/x)                                     [deg]
#  21 FLAGS                  Extraction flags                                          
         1    703.2468     19.8435 307.6452625  +6.6898442      7640.34     11207.52     11727.82     78.18412     155.9967     311.8383      1.604     4.42      820.842      54.9775     1055.186        31     1.566     0.840 -35.08   0
         2    423.5802     15.4119 307.7616494  +6.6823395      6516.74     9933.709     10709.07     77.81211     155.6864     311.8073      1.666     4.29     823.7713      54.9775     867.6475        28     1.521     0.867 -33.42   0
         3     24.5518     15.1110 307.9274996  +6.6690991     8652.542      13507.3     13315.36     78.18412     155.8726     312.0243      1.680     4.43     829.5959      54.9775       1096.8        35     1.610     0.942 -31.26   0
         4    670.9048     14.2288 307.6588939  +6.6910835     823.7176     1425.523     1293.599     78.30773     155.7485     311.8383      1.779     5.43     820.6375      54.9775     123.1307        11     1.549     0.537 -31.14   0
         5    498.9706     12.5285 307.7304126  +6.6860483     967.7092     1409.278     1576.603     78.06031     155.9967     311.8693      1.489     5.08     821.4241      54.9775     150.3672        10     1.239     0.588 -31.04   0
         6    320.1269     10.4043 307.8048158  +6.6809466     13359.75     20470.96     21289.88     77.81211     155.5621     311.7762      1.635     4.44      830.892      54.9775     1952.322        40     1.622     0.929 -29.95  16
         7     93.7011     10.7343 307.8989095  +6.6732254     2559.949     3984.705     3699.452     78.18412     156.1206     311.9003      1.642     5.27      827.631      54.9775     324.2877        21     1.528     0.771 -32.63   0
         8    415.2140     11.0473 307.7652739  +6.6838612     823.6066       1254.8     1737.977     77.56311     155.8105     311.6832      1.464     5.40     824.2409      54.9775     125.5268        10     1.466     0.561 -20.71   0
         9     85.0166      9.6855 307.9025543  +6.6733670     1731.742     2676.809     2987.652     77.81211     155.7485     311.8383      1.565     4.88     827.7878      54.9775     240.7978        14     1.396     0.652 -30.71   0
        10    788.7823      8.9662 307.6100764  +6.6971828     915.1663     1125.765     1284.891     77.81211     155.8105     311.7452      1.514     5.26     820.5209      54.9775     134.1924        10     1.260     0.620 -35.84   0
        11    454.3002      8.6426 307.7491098  +6.6861599     549.7186     621.3734     576.3253     78.18412     155.8726     312.1173      1.248     4.29     822.5022      54.9775     104.5289         6     1.048     0.501 -30.67   0
        12    386.4058      8.2678 307.7773411  +6.6840453     2454.557     3750.341     4095.885     77.68771     155.6242     311.2484      1.665     4.62     827.2923      54.9775     359.9305        18     1.571     0.666 -35.44  16
        13    981.4882      5.4625 307.5300964  +6.7050387     820.3569     1204.944      985.163     78.18412     156.1826     290.6808      1.549     4.87     819.1791      54.9775     118.8621        10     1.280     0.525 -44.06  16
        14    647.0852      3.7489 307.6691470  +6.6946147     11507.08     17217.89     18280.42     78.18412     152.1676     270.3373      1.589     4.40     820.4149      54.9775     1732.095        36     1.600     0.886 -34.85  24
        15     64.9819      4.9490 307.9110411  +6.6746497     641.1043     1062.853     1038.062     77.68771     156.0587     284.7644      1.726     4.98     827.9242      54.9775     106.4804         8     1.559     0.450 -42.28  16
        16    811.6840      3.1084 307.6007544  +6.7003629     1689.793     2517.499     2657.987     77.93631     146.7971     261.7206      1.622     5.12     820.4482      54.9775     223.5839        14     1.277     0.735 -39.64  24
        17    524.8356      3.4703 307.7199677  +6.6906506     1461.475     2251.185     2486.655     78.06031     150.0554     266.6992      1.630     4.03     821.0259      54.9775     249.9413        15     1.360     0.699 -32.77  16
        18    881.6356      1.5166 307.5717326  +6.7033476     1187.042     1563.318     1655.712     70.23363     126.6346     237.5435      1.286     5.54      820.876      54.9775     197.2578        12     1.383     0.626 -10.64  24
        19    246.6349      1.4748 307.8356620  +6.6821720     5024.624      6335.53     6258.592     69.81927     126.2521     237.0544      1.213     3.81     830.7538      54.9775     916.0405        16     1.322     0.572  -8.77  24
        20    637.6795      1.0569 307.6731470  +6.6954121     1200.503     1593.809     1845.929     64.18962      119.644     230.1818      0.837     2.41     820.3606      54.9775     432.0939         6     1.049     0.231   1.00  24
        21    423.0052      1.6488 307.7623528  +6.6880006     638.6265     841.4572     567.0145     71.59751     128.4546     239.4092      1.469     3.82     823.7426      54.9775      102.327         5     0.880     0.477   1.39  24
        22    407.6233      1.0516 307.7687661  +6.6877329     1424.974     1886.719     2046.197     64.03876      119.644     229.9296      0.924     3.24     824.9652      54.9775     450.3047         8     1.378     0.221   0.60  24
        23    617.6218    984.9313 307.6483774  +6.2886619     742.3812     1208.982      991.139      77.8121     155.9347     311.8693      1.709     4.65     853.2701      54.9775     109.8862         8     1.434     0.427 -27.62   0
        24    952.5405   1023.5717 307.5079855  +6.2838585     1898.041     2493.339     2393.871     68.98308     125.6377     236.3598      1.263     3.98     849.0036      54.9775     394.4615        13     1.269     0.697  -5.73  24
        25    727.5935   1022.6978 307.6014365  +6.2767378      854.548     1127.669     1050.749      77.0627     137.1223     249.7698      1.575     5.39      851.999      54.9775      112.428        10     1.131     0.724 -31.65  24
        26    711.7587   1023.1972 307.6079960  +6.2760044     2103.999     3202.659     3427.154     73.06839     130.6939     242.1408      1.632     5.37     852.3524      54.9775     280.0635        17     1.494     0.768 -13.58  24
        27    358.1921   1021.3746 307.7548908  +6.2649621     1803.541     2969.323     3275.874     77.81211     151.2751     268.5064      1.718     4.52     853.4607      54.9775     239.5641        19     1.536     0.798 -37.74  24
        28    809.6753    981.7858 307.5687206  +6.2963558     1946.666     3423.128      3465.52     77.68771     155.7485     311.7762      1.856     4.33     850.1935      54.9775     260.2438        24     1.440     1.038 -32.61   0
        29    757.8177    979.7416 307.5903266  +6.2954738     5785.346      10340.3     11923.44     77.81211     155.8726     311.6521      1.945     4.61     851.2266      54.9775     690.5457        44     1.795     1.202 -42.73   0
        30    544.2093    979.3716 307.6790532  +6.2885087     764.7856     1050.614     1477.204     77.81211     155.8105     311.7762      1.601     4.69      853.622      54.9775     127.6314         8     1.276     0.490 -31.35   0
        31    227.2840    978.8694 307.8106888  +6.2781279     1255.719     2333.546      2318.03     78.43114     156.2445     311.9313      1.753     6.08     851.1221      54.9775     182.7377        18     1.555     0.865 -37.10   0
        32    191.6405    978.5937 307.8255005  +6.2770488     822.5557     1378.563     1381.031     77.43831     155.6864     311.5901      1.781     5.26     850.4385      54.9775     134.2986         9     1.332     0.587 -35.61   0
        33     52.1268    976.9739 307.8834928  +6.2730443     2429.336     4066.343     4307.303     77.81211     155.8726     311.8383      1.794     4.16     847.8069      54.9775     322.8645        23     1.514     0.894 -30.16   0
        34    946.0720    974.7146 307.5123092  +6.3038092     5574.312      10526.5     11369.67     78.30773     156.2445     311.9313      2.024     4.66     848.1688      54.9775     589.6993        41     1.741     1.254 -36.51   0
        35    201.8018    970.6499 307.8215488  +6.2806675     619.8672     887.6171     586.0633     77.56311     155.6242     311.4969      1.462     3.78     850.4916      54.9775     96.41211         5     1.048     0.392 -85.78   0
        36    628.3492    969.2350 307.6444499  +6.2954979     690.0719     1057.301     975.6345     78.06032     155.9967     311.8073      1.682     4.64     852.9193      54.9775     87.58752         8     1.056     0.578 -21.54   0
        37    919.8271    966.2547 307.5234930  +6.3064288     1708.303     3284.441     3246.853     77.81211     156.0587     311.7452      1.969     5.21     848.6728      54.9775     200.4774        23     1.575     0.992 -14.52   0
        38    252.6601    962.6702 307.8006970  +6.2856627     4079.881     6722.415     6733.224     78.30773     155.9967     311.9313      1.793     4.65     851.2462      54.9775     505.9514        28     1.647     0.900 -37.00   0
        39    779.1959    963.1633 307.5820044  +6.3030279     1118.966     2238.874     2353.438     77.31331     155.7485     311.7142      1.984     5.01     850.7277      54.9775      164.806        15     1.431     0.940 -36.96   0
        40    640.5702    962.3616 307.6396054  +6.2987421     4217.339     7173.014      7694.48     77.81211     155.7485     311.7762      1.882     4.34     852.7011      54.9775     514.8958        32     1.608     1.036 -37.62   0
        41    989.3065    962.0523 307.4947770  +6.3104716     563.1208     879.6234     1269.057     78.06031     155.9347     312.1173      1.742     4.62      846.463      54.9775     76.60834         5     1.058     0.572 -19.85   0
        42    462.6057    960.9380 307.7135643  +6.2933937     1004.787     1545.288     1633.941     77.56311     155.8105     311.6832      1.648     4.04     853.1057      54.9775     172.0989        10     1.208     0.564 -37.46   0
        43     21.3018    960.0049 307.8968677  +6.2790144     2026.673      3361.91     3295.165     77.93631     155.6864      311.559      1.720     4.60     847.1188      54.9775     269.9532        22     1.602     0.833 -34.61   0
        44    872.4274    958.5624 307.5434373  +6.3080281     856.8002     1310.452     1227.019     77.81211     155.7485     311.7452      1.673     5.25     849.4991      54.9775     105.8364        12     1.189     0.748 -47.42   0
        45    288.6382    956.0284 307.7859794  +6.2896074     847.7085     1181.872     1167.435     77.68771     155.6864     311.7762      1.533     6.43     851.8041      54.9775     110.8235        12     1.491     0.779 -34.22   0
        46    997.0463    954.0048 307.4918320  +6.3140502     719.1236      1645.65     1596.029     77.56311     155.7485     311.5901      2.268     7.35      846.228      54.9775     108.5408        11     1.308     1.158  78.31   0
        47    565.0946    954.7913 307.6712063  +6.2993505     1538.108     2365.865     2325.854     77.81211     155.6242     311.6521      1.669     4.78     853.0582      54.9775     182.2831        15     1.260     0.799 -28.76   0
        48    604.4083    951.0675 307.6550039  +6.3021983     1034.035     1675.165     1606.798     77.68771     155.7485     311.8073      1.737     6.28     852.8017      54.9775     159.9286        13     1.467     0.756 -38.66   0
        49     54.1889    951.9850 307.8834814  +6.2834269      760.532       1299.7      1566.43     77.93631     155.6864     311.8383      1.853     5.72      847.351      54.9775     90.00281        10     1.231     0.750 -14.86   0
        50    284.0647    949.2808 307.7881065  +6.2922393     1537.226     2582.096     2930.594     78.43114     156.0587     311.8693      1.961     6.18     851.5998      54.9775     192.9893        16     1.398     0.768 -26.99   0
        51    750.8848    945.4427 307.5943577  +6.3093996      711.598      1223.36       961.45     78.18412     155.8726     311.8693      1.763     5.90     851.3114      54.9775     105.6251         8     1.687     0.581 -24.63   0
        52    888.7911    941.5790 307.5372105  +6.3155820     5956.534     10703.35     11273.51     77.81211     155.8105     311.6832      1.900     4.51     848.8368      54.9775     655.0443        38     1.666     1.168 -30.99   0
        53    424.5060    939.0240 307.7301257  +6.3011662     1917.405     3266.733     3616.973     78.30773     155.7485     311.7452      1.742     4.40     852.5049      54.9775     262.5696        21     1.503     0.912 -24.70   0
        54    326.2792    937.2794 307.7709793  +6.2986042     9045.398     14552.46     15373.35     78.43115     156.2445     312.0553      1.716     4.55      851.847      54.9775     1071.339        40     1.706     1.011 -33.95   0
        55    594.0601    938.5182 307.6597237  +6.3070329     542.7474     974.8446     1199.103     78.30773     155.9967     311.9313      1.956     4.82     852.6367      54.9775     83.26141         6     1.325     0.496  -2.66   0
        56    246.3394    936.2797 307.8042126  +6.2963434     6571.713     10702.96     11253.72     78.30773     155.9967     311.9003      1.782     4.65     850.5798      54.9775     794.6857        34     1.755     0.929 -31.26   0
        57    574.6744    930.5838 307.6680419  +6.3096613     1123.002     1872.916     1851.382     77.68771     155.7485     311.7762      1.694     6.78     852.5696      54.9775     125.7645        14     1.448     0.890 -58.70   0
        58    904.4215    926.8095 307.5312139  +6.3221976     1007.401     1677.095     1500.315     77.81211     155.7485     311.7142      1.773     5.26     848.0488      54.9775     138.4239        14     1.212     0.950 -41.87   0
        59    860.4775    925.2453 307.5495180  +6.3213823     621.0417     1200.693     1347.161     78.06031     156.0587     311.9003      1.823     5.48      849.453      54.9775     104.5948         7     1.523     0.557 -13.62   0
        60    972.4465    921.4225 307.5031408  +6.3266815     639.4011     1151.358      1345.49     77.81211     155.9967     311.7762      1.872     5.20     846.3895      54.9775     108.4457         5     1.129     0.677 -25.76   0
        61    740.5674    919.7771 307.5995047  +6.3196494     1575.313     2553.778     2794.602     77.68771     155.8105     311.6832      1.773     4.82     851.2966      54.9775     194.9312        18     1.485     0.807 -36.65   0
        62    564.7457    920.3426 307.6725101  +6.3135571     703.0451     966.8322     603.1361     78.30773     155.9967     311.9313      1.518     5.32     852.3965      54.9775     94.07416         8     1.394     0.572 -35.83   0
        63    525.3441    916.0765 307.6890182  +6.3140036     1172.825     1704.527     1500.815     78.18412     155.9967     311.8383      1.548     5.19     852.3798      54.9775     164.7483        15     1.447     0.787 -39.52   0
        64    604.4119    916.3406 307.6561702  +6.3165316     766.6713     1234.151     1405.013     77.56311     155.8726     311.6211      1.837     5.83     852.2001      54.9775     114.9493        10     1.109     0.864 -15.24   0
        65    972.1518    915.4998 307.5034616  +6.3291162     1114.377     2090.823     2930.371     78.18412     155.8726     312.0863      2.094     6.39     846.2247      54.9775     134.3793        18     1.454     0.914 -12.07   0
        66    659.4165    913.1682 307.6334316  +6.3196742     2405.592      3961.26     3619.897     77.81211     155.7485     311.7762      1.716     4.89     851.7249      54.9775     317.2981        25     1.646     0.884 -35.56   0
        67    949.3853    910.5909 307.5130821  +6.3303860     481.2583     778.0416     662.4479     77.93631     155.7485     311.7762      1.622     4.07     846.6242      54.9775     77.12238         5     1.177     0.403 -36.79   0
        68     55.9585    909.3378 307.8841885  +6.3010877     2575.652     4653.993     4752.784     78.18412     155.9347     311.9623      1.897     4.48      846.306      54.9775     354.6342        26     1.642     0.967 -44.38   0
        69    820.0846    910.0179 307.5668057  +6.3263238     777.4715     1280.587     1220.025     77.81211     155.7485     311.8383      1.636     5.77     849.5073      54.9775     88.43665        10     1.213     0.774   1.76   0
        70     73.4188    908.6389 307.8769608  +6.3019613      1772.81     2866.364     2689.721     77.81211     155.8105     311.6521      1.699     4.49     846.6025      54.9775     269.9453        19     1.528     0.812 -28.26   0
        71    936.3926    908.7704 307.5185396  +6.3307057     649.9346     822.4286     798.3246     77.81211     155.8105     311.6832      1.272     3.90     846.8939      54.9775     94.88098         6     0.722     0.658  20.63   0
        72    199.4977    908.2892 307.8246112  +6.3063283     2182.717     3358.354     2755.164     78.18412     156.4301     311.9003      1.699     4.52     849.3171      54.9775     270.2708        21     1.501     0.822 -34.51   0
        73    234.1400    905.0456 307.8103333  +6.3088265     858.0571     1076.591     1058.798     78.06031     155.9347     311.9933      1.469     5.22     849.8755      54.9775     121.1333        11     1.039     0.811 -47.65   0
        74    338.7979    904.3274 307.7668912  +6.3126230      957.813     1524.347     1682.402     77.68771     155.5621     311.7452      1.644     5.40     850.7258      54.9775     149.0963        11     1.353     0.633 -38.34   0
        75    654.0276    902.2502 307.6360368  +6.3240010     6622.227     10819.19     10937.27     77.81211     156.1206     311.8383      1.711     4.40     851.5152      54.9775     822.9771        34     1.595     1.010 -31.26   0
        76    791.9340    902.4383 307.5787523  +6.3285156     626.9482      971.077     1249.092     78.06031     155.9347     311.9933      1.686     5.41     849.6838      54.9775     104.6045         7     1.392     0.593 -38.92   0
        77     13.9577    900.6633 307.9019249  +6.3032597     1154.761     1870.812     1806.637     78.18412     155.9347     311.9623      1.714     5.93     845.2089      54.9775     147.8858        13     1.572     0.641 -33.55   0
        78    891.8131    898.4341 307.5374022  +6.3334903     2424.533     4401.708     4362.122     77.68771     155.7485     311.8073      1.899     4.88     848.0571      54.9775     293.0204        27     1.619     1.072 -36.12   0
        79    443.6169    899.9976 307.7235033  +6.3179120      608.708     991.7265     757.8087     77.81211     155.5621     311.7142      1.620     5.93     851.5522      54.9775     91.04584         9     1.310     0.754 -39.90   0
        80     27.0222    899.3376 307.8965440  +6.3042449     957.8325     1424.877     1398.098      77.8121     155.9967     311.8073      1.501     5.89      845.389      54.9775     135.2132        12     1.235     0.791 -36.95   0
        81    336.9923    895.4999 307.7679388  +6.3162060     15878.96     25488.87     27052.57     77.93631     155.6242     311.7452      1.722     4.69     850.3361      54.9775     2196.073        46     1.681     1.014 -33.56   0
        82     71.4474    896.6708 307.8781842  +6.3068348     1424.134     2188.054     2393.108     78.18412     155.9347     311.9003      1.704     6.22     846.2546      54.9775     190.0656        15     1.325     0.821 -38.78   0
        83    388.1108    894.9258 307.7467274  +6.3181513     635.1625     814.2786     542.0223     78.18412     156.2445     311.9623      1.363     5.11     850.6615      54.9775     95.47443         7     1.131     0.652  60.65   0
        84    207.8284    895.0263 307.8215992  +6.3120812     1188.082      1990.13     1735.667     77.68771     155.8105     311.7452      1.694     5.85     849.2661      54.9775     175.1665        16     1.405     0.803 -41.31   0
        85    414.6026    886.7437 307.7360003  +6.3224133     1052.187     1490.293      1835.77     77.56311     155.8105     311.5901      1.567     4.70     850.6416      54.9775     171.1595        12     1.264     0.827 -20.56   0
        86    100.2891    886.2502 307.8665582  +6.3121021     1655.788     2736.259     2495.324     78.18412     155.8105     312.0243      1.720     5.03     846.6902      54.9775     203.7847        17     1.454     0.785 -38.62   0
        87    668.3057    882.3405 307.6307758  +6.3326943     777.7294     1439.808     1917.018     78.06032     155.9967     311.9933      1.829     4.94     850.8867      54.9775     108.8119         9     1.369     0.505 -21.39   0
        88    496.2436    882.3937 307.7022385  +6.3269346     548.7783     861.1555     1335.756     77.68771     155.7485     311.5901      1.635     4.15     851.6794      54.9775      102.973         6     0.924     0.532 -37.99   0
        89    881.8751    880.1422 307.5421434  +6.3407098     1659.414     3085.173     3169.819     78.30773     156.0587     311.8693      1.888     4.97     848.0403      54.9775     206.7733        22     1.659     0.878 -29.45   0
        90    852.9667    879.6763 307.5541663  +6.3399409     1754.654     3083.407     2964.872     78.06031     155.9967     311.8693      1.838     6.15      848.533      54.9775     206.4005        21     1.607     0.898 -23.09   0
        91    816.2397    879.0643 307.5694415  +6.3389718     2849.801     4845.755     5031.607     78.18412     155.9347     311.9623      1.824     4.69     848.7478      54.9775     333.0115        26     1.671     0.888 -38.68   0
        92     83.5118    879.6921 307.8737477  +6.3142466     2246.649     3776.786     4382.764     78.18412     156.4301     311.9933      1.852     4.71     846.1667      54.9775     322.2424        22     1.576     0.948 -23.66   0
        93    447.0561    877.6240 307.7228285  +6.3272612     549.6613     832.2711     1217.418      77.8121     155.9967     311.7142      1.715     4.34     850.9106      54.9775     80.62408         7     1.228     0.437 -56.98   0
        94    330.5557    877.9847 307.7712028  +6.3232200     558.2299     907.8995     1159.093     77.68771     155.8105     311.6832      1.567     4.16     849.6612      54.9775     86.35352         5     0.756     0.654   3.40   0
        95    552.0878    870.6582 307.6794391  +6.3336416     316943.9       511129       535527     78.18412     155.9967     312.0243      1.735     4.65     851.4504      54.9775     41011.71       159     1.822     1.186 -35.99   0
        96    639.9119    873.6161 307.6428623  +6.3353490      1150.58     1573.638     1326.327     77.93631     155.7485     311.7142      1.606     5.76     851.0648      54.9775     184.4207        13     1.446     0.647 -34.58   0
        97    339.5100    871.7330 307.7676946  +6.3260996     12310.11     19373.23     20795.59     78.30773     156.1206     311.9003      1.719     4.48     849.2969      54.9775     1606.545        43     1.683     0.983 -34.00   0
        98    657.9066    867.9668 307.6355781  +6.3382804     3416.292     5751.964     6150.002     78.30773     155.8726     311.9623      1.761     4.60     850.6835      54.9775     394.0182        28     1.663     0.976 -29.50   0
        99    890.1827    866.7910 307.5391406  +6.3464967     4560.252     8202.636     9084.208     77.93631     155.7485     311.7452      1.940     4.64     847.6508      54.9775     549.3481        38     1.879     1.142 -21.88   0
       100    729.7910    864.4350 307.6058395  +6.3421326     881.8743     1375.792     1830.849     77.68771     155.8105     311.7142      1.736     6.02     850.1967      54.9775     103.5991        13     1.175     0.868 -17.54   0
       101   1022.9510    861.2054 307.4841808  +6.3532130     3194.836     4611.702     4960.113     75.28506     133.9828     245.7095      1.540     3.82     842.4985      54.9775     471.0621        21     1.387     0.901 -66.47  24
       102    632.7315    861.9454 307.6462370  +6.3399266     3045.541     4979.941      5291.09     78.18412     155.9347     311.8693      1.748     4.72     850.9094      54.9775     387.6489        24     1.620     0.834 -34.60   0
       103    821.3239    860.8834 307.5679399  +6.3466450     1506.062     2458.605     2933.167     78.30773     156.3064     312.0243      1.899     5.11     848.3337      54.9775     192.5379        15     1.313     0.794 -38.42   0
       104    623.2442    860.8093 307.6502158  +6.3400794      964.133     1525.761     1590.964     77.68771     155.8726     311.6521      1.750     5.66     851.0232      54.9775     139.8728        13     1.537     0.609 -25.88   3
       105    625.6367    856.4607 307.6493683  +6.3419539     2088.791     3533.518     4243.619     78.18412     156.0587     311.8693      1.842     4.85     850.8586      54.9775     264.6659        19     1.654     0.736 -27.90   3
       106    947.8607    859.7822 307.5154184  +6.3513065     823.5001      1281.46     1429.869     77.81211     155.9347     311.7142      1.859     5.08     845.8908      54.9775     116.5451        10     1.158     0.630 -43.31   0
       107    909.3917    854.5229 307.5315733  +6.3521988     2888.527     4965.885     5343.376     77.81211     155.4999     311.7452      1.864     4.76     847.0905      54.9775     335.4532        25     1.588     0.975 -32.73   0
       108    319.7215    855.3804 307.7764649  +6.3321872     1054.536     1589.896     1912.919     77.81211     155.6864     311.8693      1.806     6.09     849.0259      54.9775     157.0611        14     1.486     0.703 -33.33   0
       109    396.3034    873.2955 307.7440537  +6.3273526     7581.991      11948.3     12564.17     78.18412     156.5537     311.7452      1.708     4.36        849.8      54.9775     964.2155        34     1.620     0.949 -35.68   0
       110    367.2524    850.5992 307.7568847  +6.3357494     2449.383     4091.704     4492.533     77.56311     155.5621     311.4659      1.794     5.13     848.6851      54.9775     352.1153        23     1.646     0.880 -34.53   0
       111    335.0388    843.5535 307.7705020  +6.3375807     404.7031     595.7621     141.3667     78.06031     155.9967     311.7452      1.155     3.37     848.5696      54.9775     93.54388         5     1.731     0.190 -35.26   0
       112    503.6962    840.4258 307.7005561  +6.3445050     3059.269      4849.08      5197.48     78.30773     155.7485     311.7762      1.716     4.67     849.9919      54.9775     387.3423        24     1.603     0.838 -31.48   0
       113    848.6650    839.4810 307.5573016  +6.3563882     939.0642     1577.323     2153.292     78.43115     156.0587     311.9003      1.888     5.10     847.8607      54.9775     123.9498        13     1.305     0.833 -26.89   0
       114    568.8430    838.3298 307.6735676  +6.3475436     820.4742     1078.582     445.8116     78.06031     155.9967     311.9623      1.546     4.72     850.1371      54.9775     139.1641         8     1.121     0.564 -26.50   0
       115    550.5158    836.4022 307.6812448  +6.3477279     5931.761     9446.646      10162.7     77.56311     155.6242     311.5901      1.746     4.61     849.8457      54.9775     741.0618        32     1.667     0.931 -38.79   0
       116    557.3148    835.9469 307.6784362  +6.3481426     1317.626     2239.918     2082.414     78.18412     155.9347     312.0553      1.714     4.47     849.9134      54.9775     175.6397        14     1.352     0.684 -40.16   0
       117    261.8742    836.6979 307.8011214  +6.3379635     625.3155     682.5322     832.2648     77.81211     156.0587     311.8693      1.638     5.75     848.4603      54.9775     104.9483         8     1.356     0.686 -34.04   0
       118    886.0718    834.6978 307.5419245  +6.3596063     1290.478     2187.507     2143.026     77.93631     156.1206     311.9003      1.839     5.72      847.233      54.9775      157.101        16     1.518     0.738 -36.74   0
       119    468.3217    835.3471 307.7154199  +6.3454204      1396.87     2398.954     2592.184     78.18412     155.9967     311.9003      1.856     5.77     849.5247      54.9775     187.0125        17     1.604     0.706 -41.46   0
       120    109.8172    834.6140 307.8643463  +6.3337329     1244.658     1780.193     2303.135     77.93631     155.6864     311.8383      1.739     5.94     845.5394      54.9775     176.0775        14     1.341     0.741 -37.52   0
       121    685.5339    833.3323 307.6252670  +6.3534959      810.889     1204.391      476.476     78.18412     155.9967     311.9313      1.382     4.51     849.8172      54.9775      132.443         8     1.120     0.517 -21.42   0
       122    521.1747    830.3561 307.6936353  +6.3492444     19122.28     30277.63     31351.13     77.81211     156.0587     311.7762      1.681     4.60      849.457      54.9775      2504.18        43     1.638     0.981 -35.67   0
       123    362.7787    832.1125 307.7593661  +6.3432300     786.7015     1368.437     1697.913     78.18412     155.7485     311.7762      1.752     5.75     848.2272      54.9775     126.6141        10     1.270     0.733 -38.68   0
       124    934.7623    828.4907 307.5219080  +6.3637867     3498.071     5906.958     5866.627     78.30773     155.9347     311.9313      1.847     4.35     846.1157      54.9775     437.4718        31     1.725     1.006 -35.40   0
       125     54.3613    826.7227 307.8876456  +6.3351313     546.8413     1010.828     1339.334     78.06032     156.0587     311.9003      1.957     4.48     844.1653      54.9775     106.7498         6     1.061     0.538 -34.81   0
       126     31.2683    821.0812 307.8974275  +6.3366854     1453.167     2135.801     1955.708     78.30773     156.2445     311.9313      1.605     5.26     843.6368      54.9775      198.735        17     1.524     0.706 -34.86   0
       127    313.8124    819.1731 307.7801405  +6.3469336     3227.144     5050.159      5220.14     77.81211     155.8105     311.8383      1.679     4.72      848.075      54.9775     418.6969        23     1.549     0.842 -37.83   0
       128    779.3284    814.8392 307.5869291  +6.3642520     51603.04     83749.94     87901.38     78.06031     155.9967     311.9623      1.734     4.47     848.4997      54.9775     6550.395        72     1.723     1.123 -35.93   0
       129     13.4851    817.3539 307.9049395  +6.3376275     2141.744     3505.408     3504.541     78.18412     155.9347     311.9003      1.788     5.29     843.2894      54.9775     295.4979        22     1.605     0.846 -35.01   0
       130    717.8468    816.8826 307.6123981  +6.3613617     730.5858     1175.568     1631.124     78.18412     155.9967     311.9003      1.760     5.51     849.1167      54.9775     102.6682        11     1.172     0.825 -45.54   0
       131    422.7372    813.6478 307.7350847  +6.3528542      823.068     1241.395     723.4775     78.06032     155.8726     311.9623      1.655     5.02     848.0666      54.9775     113.6286         8     1.347     0.529 -31.39   0
       132    236.5307    812.7560 307.8124558  +6.3469970     5081.958     8626.258      10990.4     78.18412     155.9347     311.9313      1.984     4.90     847.0503      54.9775     684.9628        32     1.724     0.923 -33.61   0
       133    707.5659    809.4420 307.6169185  +6.3640904     20741.44      33281.2     35725.24     77.93631     155.9967     311.7452      1.758     4.44     849.0786      54.9775      2694.34        55     1.723     1.089 -35.36   3
       134    701.2695    805.9696 307.6196506  +6.3653138      84856.7     134948.4     141793.5     78.06031     155.9967     311.8383      1.691     4.46     849.1249      54.9775     10787.32        83     1.746     1.083 -35.76   3
       135    904.5499    810.0793 307.5350748  +6.3703818      7791.48     13240.25     13898.23     78.18412     156.0587     311.9003      1.835     4.49     846.5435      54.9775     902.7101        39     1.661     1.102 -38.61   0
       136    346.1384    806.9427 307.7671264  +6.3530622     20333.33     31734.13     32874.96     78.30773     155.9347     311.9313      1.648     4.55     847.6846      54.9775     2637.664        43     1.663     0.949 -35.48   0
       137    395.5754    807.1411 307.7465858  +6.3546324     1376.872     2044.433     1972.572     77.81211     155.9967     311.7452      1.488     4.18     847.7374      54.9775     206.7519        13     1.332     0.692 -33.91   0
       138    635.1085    806.0722 307.6471285  +6.3630670     704.4456     1159.356     1360.833     78.06031     156.1826     311.9003      1.594     5.95     849.6129      54.9775     102.3542         9     1.709     0.583 -39.57   1
       139    408.0389    804.7174 307.7414906  +6.3560492     21515.34     33935.51     35642.27     78.18412     156.0587     311.8693      1.669     4.69     847.6899      54.9775     2885.239        45     1.668     0.950 -34.91   0
       140    236.1287    791.1878 307.8133509  +6.3558854     736787.6      1685889      1868211     77.68771     155.6864     311.7142      2.290    11.48     846.1812      54.9775     63067.37       641     2.892     2.152 -68.90   4
       141    901.5502    801.4610 307.5366098  +6.3738392     6085.204     10010.97     10885.14     78.18412     155.9347     311.9623      1.788     4.43     846.4626      54.9775     708.4027        34     1.647     1.022 -32.55   0
       142    641.9772    800.5661 307.6444606  +6.3655685     6232.526     9818.331     10158.41     77.68771     155.8105     311.6832      1.675     4.64     849.4996      54.9775     865.5692        30     1.621     0.891 -35.47   0
       143    430.7708    798.5504 307.7322566  +6.3593538     1719.508     2810.377     3088.487     77.81211     156.0587     311.8073      1.801     5.48     847.5598      54.9775      220.519        17     1.602     0.727 -36.63   0
       144    155.9491    797.9716 307.8464243  +6.3504014     797.0027     1435.562     1740.081     77.81211     156.1206     311.8073      1.909     4.75     845.3694      54.9775     154.2393         9     1.193     0.547 -27.11   0
       145    595.3176    792.5294 307.6641120  +6.3673301     786.3741     1360.828     1376.741     78.43115     156.2445     311.9313      1.697     5.94     848.8344      54.9775     146.6046        11     1.334     0.774 -37.52   0
       146    871.8581    791.7208 307.5492701  +6.3768723     514.4133     727.8029     566.4542     78.18412     155.9967     311.8693      1.650     5.51     846.7707      54.9775     82.55237         6     1.143     0.748 -15.68   0
       147    677.1583    790.7940 307.6301758  +6.3707742     2360.247     3676.451     3481.143     77.56311     155.6864     311.6211      1.607     4.89     849.0134      54.9775     340.2644        20     1.488     0.767 -29.83   0
       148    146.4311    791.4877 307.8505966  +6.3527587     772.2318     1405.719     1434.011     78.30773     155.8105     311.8383      2.284     5.44     844.9773      54.9775     114.5613        10     1.650     0.506 -39.27   0
       149    121.3055    791.1420 307.8610441  +6.3520597     903.1797     1526.731     1684.178     78.06031     155.9967     312.0553      1.924     6.02     844.4741      54.9775     117.2593        11     1.315     0.775 -39.89   0
       150    410.9517    787.4409 307.7408630  +6.3632771     52783.02     82918.99     86324.79     78.06031     155.9347     311.7762      1.686     4.97     847.0344      54.9775     7430.254        67     1.719     1.022 -32.98   0
       151    953.5602    788.9485 307.5154252  +6.3807322      593.335     1046.493     1493.027     78.06031     155.9967     311.9003      2.031     5.52     844.8615      54.9775     98.22101         9     1.503     0.571 -44.89   0
       152     62.8413    788.9883 307.8853996  +6.3509894     430.6155     592.4594     551.7659     77.56311     155.8105     311.6521      1.390     3.65     843.6302      54.9775      77.6131         5     1.769     0.217 -50.01   0
       153    528.7126    786.4083 307.6919838  +6.3676349     6980.447     10985.51     11221.39     77.81211     155.6864     311.6832      1.699     4.53     847.4415      54.9775     943.0527        32     1.571     0.926 -33.30   0
       154    945.0712    803.5535 307.5184619  +6.3744220     1759.777     3244.109     3202.749     78.18412     155.9967     311.9003      1.920     5.08     845.4159      54.9775     204.8125        21     1.584     0.913 -38.17   0
       155    445.4575    785.0601 307.7266107  +6.3654122     4423.274     6743.849     7499.336     78.30773     155.9347     311.9313      1.652     4.36     847.0795      54.9775     548.7932        23     1.518     0.819 -33.00   0
       156    773.9048    782.9290 307.5902534  +6.3772423     10946.79     17874.75     18681.55     78.06031     156.0587     311.8693      1.714     4.49     847.8635      54.9775     1412.039        38     1.673     0.983 -35.50   0
       157    667.6415    782.8536 307.6343958  +6.3737345     602.4521     885.0698     1058.646     78.06031     156.0587     311.9623      1.479     4.21     848.7227      54.9775     105.0884         5     0.941     0.536 -41.68   0
       158    441.9253    778.3934 307.7283025  +6.3680459     2232.617      3445.19     3611.436      77.8121     155.4999     311.7762      1.592     4.95     846.7949      54.9775     334.5836        19     1.538     0.769 -36.81   0
       159      3.0494    779.5107 307.9105542  +6.3528961     1061.288     1524.496      1816.89     78.18412     145.9381     260.9805      1.676     4.90     843.0411      54.9775     149.8422        14     1.440     0.685 -23.84  24
       160    795.2892    777.1241 307.5815656  +6.3803499     1221.909     1820.804     1913.645     78.18412     156.3064     311.9933      1.568     4.78     847.5955      54.9775     152.8607        16     1.238     0.964 -32.03   0
       161    139.6894    775.4185 307.8539398  +6.3591651     3056.696     4769.234     5179.681     77.93631     155.7485     311.8073      1.708     4.16     844.4541      54.9775      447.507        22     1.574     0.774 -34.85   2
       162    131.6920    775.0706 307.8572732  +6.3590408     11184.91     17905.75     19134.46     78.06031     156.1206     311.9313      1.709     4.48       844.31      54.9775     1477.957        40     1.727     0.937 -33.04   2
       163    964.6385    776.6559 307.5112354  +6.3861740     1281.858     1626.294     1624.305     78.18412     156.0587     311.9003      0.739     0.00     844.3151      54.9775     864.2872         5     0.966     0.414  52.14   0
       164    123.7353    772.4894 307.8606653  +6.3598395     2884.198     4727.222      5153.79     78.06032     156.1826     311.9313      1.710     4.85     844.0967      54.9775     390.8342        22     1.580     0.848 -32.75   0
       165    919.4289    771.4900 307.5301883  +6.3868039     6191.181     9930.355     10419.02     78.30773     155.7485     311.8073      1.764     4.36     845.7036      54.9775     718.1025        33     1.634     1.019 -28.92   0
       166    968.7466    771.5291 307.5097008  +6.3884266     1305.728     2294.361     2597.742     78.06032     155.9347     311.8383      1.856     5.85     844.1261      54.9775     164.1498        17     1.514     0.805 -26.80   0
       167    674.9365    769.1776 307.6318253  +6.3796222     1525.448     2284.461     2403.186     77.81211     155.9967     311.7762      1.586     5.39     848.1058      54.9775      194.774        16     1.416     0.738 -36.57   0
       168    561.8082    768.3771 307.6788436  +6.3761812     2257.882     3631.811     3416.279     77.81211     155.8105     311.7142      1.736     4.95     847.3028      54.9775     298.4086        21     1.604     0.784 -32.51   0
       169    410.1133    768.0490 307.7418648  +6.3712528     1190.026     2025.862     2055.388     78.18412     155.9347     311.9313      1.760     5.94     846.3145      54.9775     174.3874        14     1.487     0.727 -42.19   0
       170    693.4990    766.4334 307.6242070  +6.3813732     598.6148     881.0238     458.8979     78.18412     155.8726     312.0243      1.473     5.56     847.8817      54.9775     110.3488         9     1.441     0.604 -21.92   0
       171    123.8996    765.8857 307.8608202  +6.3625706     1873.091     2892.372     2829.032     78.18412     156.4919     311.9933      1.603     4.84     843.9585      54.9775     268.9592        19     1.555     0.775 -35.79   0
       172    943.0880    763.1415 307.5206404  +6.3910360     2771.353     4838.938     4689.216     78.18412     155.9967     312.0243      1.809     4.71     844.9319      54.9775     312.6741        26     1.566     1.012 -30.49   0
       173    913.5748    763.4388 307.5328901  +6.3899325     2656.709     4421.574      4437.44     77.81211     155.8105     311.7142      1.758     4.61     845.6497      54.9775     312.5837        24     1.514     0.958 -32.38   0
       174    973.7684    762.8785 307.5079047  +6.3921639     1703.166     2920.869     2712.082     78.06031     155.9967     311.8693      1.801     5.53     843.8835      54.9775     188.4987        21     1.643     0.878 -37.18   0
       175    666.0650    762.7197 307.6357274  +6.3819920     1400.512     2110.398     2138.601     78.43114     156.0587     311.8693      1.621     6.33     847.8595      54.9775     211.4047        17     1.487     0.757 -35.11   0
       176    812.9864    760.9459 307.5747575  +6.3876162     868.1278     1434.994     1273.241     77.56311     155.9346     311.6521      1.621     6.34     846.9493      54.9775     123.0977        12     1.571     0.719 -27.42   0
       177    888.8152    758.6092 307.5433371  +6.3911028     682.2406     1217.825     1637.417     77.93631     155.7485     311.7762      1.974     5.45      845.994      54.9775     93.05652         8     1.417     0.592 -26.43   0
       178    931.2332    753.2095 307.5258979  +6.3947414     1003.545      1648.97     1409.286     77.68771     155.8105     311.7452      1.723     5.83     845.1692      54.9775     133.7311        14     1.243     0.934 -34.98   0
       179    258.4449    753.5409 307.8053525  +6.3721701     614.9241     1069.054     1945.958     78.06032     155.9347     312.0243      1.951     4.58     845.3841      54.9775     95.90936         8     1.295     0.460 -35.75   0
       180    154.4374    752.7677 307.8485795  +6.3690076     850.3254     1282.796     790.7982     77.81211     155.7485     311.6832      1.566     5.54     844.1124      54.9775     137.6087        12     1.431     0.605 -45.51   0
       181    905.2284    751.7180 307.5367502  +6.3944927     1011.356     1878.888     1729.742     78.06032     155.8105     311.8383      1.843     5.71     845.6163      54.9775      134.684        15     1.547     0.774 -42.57   0
       182    957.8411    750.8981 307.5149224  +6.3965796     2239.965     3751.252      4402.29     78.18412     155.8726     312.1173      1.812     4.22     844.2964      54.9775     265.4419        22     1.514     0.870 -27.43   0
       183    677.8057    750.3326 307.6312669  +6.3874959     1056.854     1666.133      2408.99     77.68771     155.6864     311.7142      2.189     3.93     847.2982      54.9775     162.7927        10     1.103     0.720 -30.42   0
       184    999.9966    744.2838 307.4976326  +6.4007100     1383.567     2555.941     2337.089     77.56311     155.6242     311.5901      1.978     6.24     842.9838      54.9775       181.35        22     1.707     0.884 -31.45   0
       185    468.7521    745.1871 307.7182780  +6.3826471     671.0183     937.3887     677.5886     77.56311     155.8726     311.6211      1.665     3.86     845.4767      54.9775     120.9549         6     1.209     0.354 -27.12   0
       186    398.5556    745.2261 307.7474348  +6.3802864     661.5798     889.6351     915.0613     77.68771     156.0587     311.8073      1.441     4.53      845.318      54.9775      104.123         6     1.233     0.472 -41.87   0
       187    801.1653    742.7098 307.5802802  +6.3947497     1053.797     1432.547     1190.585     78.30773     155.9347     311.9003      1.485     5.49     846.5168      54.9775     169.7869        14     1.506     0.687 -37.43   0
       188    625.9764    743.9763 307.6530100  +6.3883921     673.6913     1147.333     1308.869     77.68771     155.8105     311.8383      1.793     4.07     847.0394      54.9775     123.1154         7     1.422     0.332 -29.92   0
       189    887.5063    740.1685 307.5444994  +6.3986706     1383.006     2419.907     2848.668     78.30773     155.8105     311.9313      1.865     5.97     845.7122      54.9775      154.601        14     1.434     0.698 -25.48   0
       190    861.4945    735.1355 307.5554736  +6.3998830     878.8319     1445.076     1915.021     78.06031     156.0587     311.9313      1.718     5.53     846.0456      54.9775     147.4261        11     1.247     0.691 -23.17   0
       191    647.6236    734.5703 307.6443342  +6.3929959     552.4214     741.6948     862.7416     77.68771     155.8726     311.7452      1.781     3.93     846.6904      54.9775     108.3167         7     1.080     0.552 -45.66   0
       192    843.9334    731.6117 307.5628868  +6.4007533     1561.049     2641.317     2678.406     77.68771     155.8105     311.7762      1.722     4.98     846.0658      54.9775     238.1595        18     1.496     0.784 -39.63   0
       193     43.2965    730.3857 307.8954996  +6.3745208     2534.097     3973.208     3982.035     77.93631     155.7485     311.6832      1.719     4.72     842.8762      54.9775     332.9493        22     1.484     0.855 -38.38   0
       194    107.7900    730.6205 307.8687036  +6.3765857     661.4625     953.6023     1295.381     77.81211     155.6864     311.7452      1.607     4.98     842.9188      54.9775     109.9157         8     1.366     0.514 -32.07   0
       195    455.3504    729.4045 307.7243765  +6.3887136     461.0088     685.7571     1122.182     77.56311     155.8105      311.559      1.894     3.53     844.9954      54.9775      85.9516         5     1.122     0.321 -20.21   0
       196    106.0506    727.7472 307.8695232  +6.3777133     521.1379     904.9548     1221.852     78.30773     155.8726     311.9313      2.543     6.26      842.811      54.9775     91.87115         8     1.334     0.826 -25.59   0
       197    561.7719    724.8383 307.6803239  +6.3941501     466.3235     613.3556     352.6758     77.68771     155.7485     311.7762      1.480     3.36     845.9789      54.9775     94.80658         5     0.951     0.344 -43.90   0
       198    655.9965    718.8613 307.6413844  +6.3997586     6140.074     9666.939     9779.999     77.56311     155.7485     311.6211      1.633     4.61     846.3448      54.9775      821.804        31     1.610     0.898 -33.00   0
       199    602.7751    718.2298 307.6635137  +6.3982452     1414.228     2145.873     2432.697     77.68771     155.8726     311.7762      1.529     4.33     846.0912      54.9775     226.8004        13     1.241     0.706 -35.99   0
       200    525.0119    718.9786 307.6957910  +6.3953422     589.6109     900.9884      1305.24     77.81211     155.7485     311.7762      2.177     4.81     845.4226      54.9775     102.6961         6     0.986     0.666 -45.14   0
       201    513.8812    718.4368 307.7004329  +6.3951944     816.2869      1302.88     1397.827     78.18412     156.0587     311.8693      1.825     5.92      845.268      54.9775     105.5599        13     1.473     0.668 -35.78   0
       202    118.9460    714.8727 307.8646021  +6.3834590     3631.006      5877.15     6081.408     78.06031     155.8726     311.8383      1.673     4.72     842.6258      54.9775     470.6664        27     1.658     0.864 -32.75   0
       203    305.7015    714.7794 307.7870314  +6.3897490     715.3567     1210.321     1335.107     78.06031     155.8105     311.6832      1.894     5.66     844.1128      54.9775     123.4307        10     1.476     0.611 -30.23   0
       204    993.0512    714.0501 307.5015309  +6.4129582     2306.048     3836.967     3501.797     78.18412     155.8726     311.8383      1.760     4.67     842.9607      54.9775     275.9423        23     1.501     0.973 -22.65   0
       205    629.8694    714.5493 307.6523826  +6.4006676     1969.229     3129.792      3541.44     78.06031     155.9347     311.9313      1.724     5.09     846.1393      54.9775     300.7209        16     1.416     0.733 -29.36   0
       206    241.3468    714.3625 307.8137771  +6.3877681     837.8857     1070.486     1391.404     78.06032     155.9967     311.9003      1.309     4.58     843.6985      54.9775     166.4436         8     1.075     0.634 -36.71   0
       207    772.8788    710.9715 307.5930962  +6.4069081     19554.45     30767.14     31997.05     78.06031     155.9347     311.9003      1.660     4.42     846.1271      54.9775     2436.463        47     1.678     0.994 -35.25   0
       208    454.5461    713.1349 307.7252588  +6.3954018     608.0786     781.2684     288.6894     78.18412     155.9347     311.8693      1.574     5.88      844.655      54.9775     95.59839         9     1.263     0.769  -6.58   0
       209    902.8455    710.6358 307.5391180  +6.4113700     3474.028     5625.381     5990.914     77.93631     155.9347     311.8383      1.742     4.39     844.6631      54.9775     446.4464        24     1.595     0.870 -34.70   0
       210    471.7345    711.2476 307.7181824  +6.3967547     1353.687     2050.778     2035.317     78.06031     155.9347     311.9313      1.550     4.87     844.7277      54.9775     211.7784        17     1.529     0.748 -38.16   0
       211    500.5167    710.9270 307.7062372  +6.3978479     851.4022     1240.971     1094.407     78.43114     156.3064     311.9313      1.834     4.55      844.989      54.9775     149.2151         8     1.105     0.533 -36.07   0
       212    274.0308    710.9244 307.8003169  +6.3902807     529.6824     942.3894     587.7798     78.06031     156.0587     311.9003      1.649     3.58        843.9      54.9775     101.0797         5     0.975     0.378 -30.27   0
       213    246.3695    704.7261 307.8120162  +6.3919134     6121.313     9253.052      9345.45     78.06032     155.9967     311.9003      1.608     4.68     843.3909      54.9775     815.9308        27     1.537     0.837 -33.67   0
       214    653.4324    703.7764 307.6429567  +6.4058994     7039.041     11010.65      11759.6     77.68771     155.8726     311.7142      1.659     4.70     845.9973      54.9775     968.9141        31     1.630     0.882 -35.68   0
       215    635.7219    705.0543 307.6502708  +6.4047816     1028.859     1573.542     1901.259     78.30773     155.9967     311.9003      1.565     5.46     845.9072      54.9775     126.6135        11     1.244     0.677 -32.70   0
       216    348.5613    703.9535 307.7695933  +6.3956502     645.5411     1119.562     1080.212     78.06031     155.9967     311.7452      1.799     5.20      843.512      54.9775     89.42352         9     1.302     0.587 -21.65   0
       217    913.3171    696.5413 307.5352407  +6.4175356     1253.018      1839.75     1721.657     78.30773     155.9967     311.9623      1.660     6.50      843.972      54.9775      175.714        16     1.509     0.786 -35.70   0
       218    725.1723    692.2246 307.6135437  +6.4130573     3434.904     5697.563     5825.084     77.68771     155.8105     311.7452      1.719     4.39       845.98      54.9775     465.2603        27     1.500     1.005 -36.82   0
       219    680.4397    692.6647 307.6321113  +6.4113856     1045.914     1835.526     2169.667     78.18412     155.9347     311.9933      1.976     4.71     845.9419      54.9775     159.0092         9     1.316     0.478 -36.93   0
       220    991.4636    688.7298 307.5030390  +6.4233563     8036.806      13412.5     13740.95     78.18412     155.9967     311.9313      1.785     4.38     842.7468      54.9775     985.2919        39     1.643     1.083 -36.14   0
       221    929.8369    689.1187 307.5286270  +6.4211483     2421.214     3876.864     4399.896     78.18412     156.0587     311.8693      1.680     4.41     843.2084      54.9775     325.8373        20     1.479     0.797 -36.89   0
       222     10.3372    688.8667 307.9105945  +6.3905513     1914.192     3256.887     3518.638     78.18412     155.9967     311.9003      1.848     5.15     843.0416      54.9775     271.9197        24     1.722     0.972 -12.55  16
       223    544.5682    686.5779 307.6887581  +6.4093677     627.8563     1024.899     814.2133     77.68771     155.8105     311.7142      1.851     5.23     844.7235      54.9775      94.4104         6     1.189     0.650 -41.08   0
       224    427.3070    687.0050 307.7374542  +6.4052768     623.6784     864.4091     676.7808     77.81211     155.6864     311.6521      1.587     4.25     843.6875      54.9775     91.40479         7     1.222     0.421 -34.20   0
       225    529.9229    684.7029 307.6949050  +6.4096529     2101.984      3124.55     3101.258     77.81211     156.1826     311.9623      1.625     4.62      844.617      54.9775     317.7442        19     1.468     0.768 -32.98   0
       226     68.7391    683.8177 307.8865067  +6.3945935     25142.91      39691.7     41573.88     77.81211     155.9347     311.7142      1.685     4.51     841.9956      54.9775      3370.64        53     1.696     1.011 -30.54   0
       227    498.6725    682.0338 307.7079764  +6.4097116     1472.358     2135.342     2596.591     78.06031     155.9347     311.8693      1.615     4.86     844.4665      54.9775     227.3643        12     1.328     0.631 -28.66   0
       228    919.7841    680.9303 307.5330777  +6.4241939     1008.186     1768.668     1710.726     77.68771     155.8726     311.8073      1.847     5.49     843.2309      54.9775     126.5186        13     1.237     0.751 -28.49   0
       229    539.1735    678.4169 307.6912738  +6.4125561     993.6268     1610.379     1914.507     77.81211     155.8105     311.8073      1.733     4.67     844.4507      54.9775     182.0623        11     1.360     0.681 -30.67   0
       230    714.8134    675.8398 307.6183975  +6.4194750     3448.987     5450.964     5672.538     77.68771     155.8105     311.6521      1.681     4.73       845.63      54.9775     481.9523        25     1.597     0.841 -34.11   0
       231    736.7896    674.1522 307.6093250  +6.4209034     4124.244      6174.64      6035.01     77.68771     155.8726     311.5901      1.605     4.61     845.5893      54.9775     517.2919        26     1.589     0.821 -34.16   0
       232    568.2659    672.0667 307.6794023  +6.4161476     3201.375     4857.696     4915.298     78.18412     155.9967     311.9313      1.624     4.95     844.4397      54.9775     468.8187        23     1.583     0.783 -29.96   0
       233    404.3881    672.7075 307.7474567  +6.4104122     1427.757     1962.389     2399.974     77.93631     155.7485     311.7142      1.512     4.39     842.9832      54.9775     215.5336        13     1.261     0.679 -33.05   0
       234    228.6966    671.8171 307.8204684  +6.4049045     1551.357     2408.465     2137.684     78.06031     155.8105     311.6832      1.680     5.32     842.0256      54.9775      221.265        15     1.553     0.625 -32.56   0
       235   1009.6541    670.2291 307.4961021  +6.4315966     4542.472      7485.68      7694.88     77.93631     156.0587     311.8383      1.754     4.43     842.4228      54.9775     523.7053        30     1.567     1.045 -35.12   0
       236    312.5538    671.1121 307.7856584  +6.4080010       1399.6     2070.505     2206.045     78.18412     155.8726     311.9003      1.533     5.71     842.3862      54.9775     217.1532        14     1.403     0.654 -27.98   0
       237    975.0771    669.0460 307.5105060  +6.4309364     7491.829        12238     12970.73     78.06031     156.0587     311.9003      1.713     4.31     842.4677      54.9775     862.3766        35     1.647     0.994 -36.32   0
       238    529.1106    669.7721 307.6957451  +6.4157883     524.2896     693.7676     750.6266     78.30773     155.7485     311.8073      1.534     3.97     844.2481      54.9775     108.9774         6     1.004     0.448 -37.35   0
       239    694.8757    667.7305 307.6269526  +6.4221579      1022.61     1501.955     1504.094     78.30773     156.1206     311.9313      1.803     6.20     845.3596      54.9775     132.6902        15     1.531     0.706 -37.80   0
       240     86.2511    666.2265 307.8798275  +6.4024408      836.117     1497.055     1691.894     77.81211     156.1206     311.8073      1.769     5.02     841.3745      54.9775     111.7715        12     1.360     0.755 -20.12   0
       241    133.5293    662.7082 307.8603077  +6.4054772      24278.1     37025.05     38114.53     78.06032     156.1206     311.9003      1.657     4.54      841.543      54.9775     3251.694        48     1.678     0.951 -32.67   0
       242    802.0038    663.3093 307.5825978  +6.4275497     1214.082     1905.524     2366.208     77.68771     155.6864     311.6521      1.495     4.60     844.8885      54.9775     189.9413        12     1.249     0.695 -26.77   0
       243    420.3553    663.4609 307.7411355  +6.4147621     2759.294     4466.074     5014.074     78.06032     155.9967     312.0243      1.786     4.76     842.9967      54.9775     402.9904        20     1.565     0.768 -32.49   0
       244    353.0160    657.5090 307.7693093  +6.4149683     521.4528      961.584     1404.764     77.93631     155.8105     311.7762      2.446     4.75     842.2249      54.9775      88.8988         8     1.672     0.382 -29.10   0
       245    969.9749    652.0862 307.5131942  +6.4377671      6299.06     11057.66     11503.19     78.30773     155.8105     311.7452      1.872     4.15      841.961      54.9775     719.6097        40     1.633     1.195 -24.96   0
       246     14.4162    651.6282 307.9101604  +6.4060573     1192.534     1863.594     1931.312     77.81211     155.7485     311.8073      1.974     4.56     842.4877      54.9775     167.2206        12     1.223     0.679 -41.03   0
       247   1023.4477    647.7195 307.4911260  +6.4413454        38929     45819.34     47035.42     70.91885     127.3201     238.2347      1.104     2.85     841.1672      54.9775     8304.454        36     1.265     0.758 -86.84  24
       248    563.5186    647.3920 307.6822049  +6.4261734     48879.39      73994.7     76714.71     77.81211     155.6242     311.7452      1.673     4.58     843.9446      54.9775     6526.475        57     1.668     0.967 -34.25   0
       249    927.7161    648.9822 307.5308540  +6.4376440      668.671     1173.603     851.5724     77.81211     155.6864     311.8383      1.808     4.64      842.394      54.9775     109.5861         7     1.323     0.463 -39.95   0
       250    522.3866    647.6030 307.6992848  +6.4247140     534.9664     990.0572     1329.362     77.81211     155.6864     311.7762      1.968     4.73     843.7681      54.9775     76.80597         7     1.156     0.550 -44.60   0
       251    493.4522    644.7601 307.7114003  +6.4249216     690.6981     987.2891     792.2653     78.06032     156.0587     311.9003      1.499     4.80     843.6237      54.9775     101.4426         8     1.074     0.609 -30.83   0
       252    171.0999    644.0995 307.8453301  +6.4144159     2648.015     4105.166     4283.328     78.18412     156.3682     311.7452      1.624     4.34     841.4768      54.9775      390.809        17     1.448     0.704 -36.99   0
       253    974.5538    643.5621 307.5115777  +6.4414375     579.4132     875.4238     1063.855     77.93631     155.9347     311.7762      1.679     5.38     841.6434      54.9775     72.69049         7     1.196     0.683 -35.90   0
       254     63.5532    638.4899 307.8901940  +6.4131275     1384.163     2078.168     2271.896     78.18412     155.8726     312.0243      1.533     5.27     841.4527      54.9775     201.7882        12     1.245     0.630 -33.51   0
       255    460.7798    631.2285 307.7254289  +6.4294157      62930.8     96678.38     100859.5     77.81211     155.8105     311.8383      1.645     4.71     843.0225      54.9775     8813.449        70     1.673     1.006 -33.22   0
       256      4.0795    632.9276 307.9150870  +6.4134287     1616.357     2546.111     2542.687     78.43114     154.6266     274.5971      1.708     5.91     842.1632      54.9775     256.8306        19     1.647     0.820 -25.05  24
       257    135.1216    626.4847 307.8608707  +6.4204809     1715.445     2479.932     1939.401     78.18412     156.3064     312.0243      1.620     4.20      841.052      54.9775     248.1826        15     1.366     0.748 -35.22   0
       258    414.5543    623.7531 307.7448838  +6.4309571     701.2897     985.9138      738.321     78.18412     155.8726     311.9313      1.757     4.93     842.4405      54.9775     150.5472         9     1.639     0.420 -37.17   0
       259    606.4889    622.8843 307.6651787  +6.4377219     853.2612     1207.846     1149.737     77.93631     156.2445     311.9933      1.555     5.17     843.8412      54.9775     135.9081        10     1.280     0.589 -33.67   0
       260    306.1786    620.5674 307.7900123  +6.4286492     2129.993     3669.012     4078.081     77.68771     155.8105     311.7142      1.845     4.99     841.0859      54.9775     346.5178        20     1.513     0.902 -37.40   0
       261    488.7529    621.8690 307.7141236  +6.4342127     597.0563     1022.692      1356.75     78.18412     155.9347     311.9003      2.358     5.30     843.0398      54.9775      101.205         8     1.406     0.563 -36.72   0
       262    646.6740    628.4709 307.6482967  +6.4367557     777.0019     1146.922      1230.52     78.43115     156.1206     311.9313      1.541     4.45     843.8036      54.9775     125.4184         8     1.221     0.462 -34.29   0
       263    458.4631    618.9964 307.7268035  +6.4343869     941.0507     1343.198     1787.085     77.56311     155.7485     311.6521      1.482     5.17     842.7423      54.9775     128.7583        10     1.172     0.645 -36.80   0
       264    732.8275    614.6459 307.6129704  +6.4453323     5213.104     7823.126     8179.458     77.68771     156.0587     311.8073      1.626     4.86     843.1639      54.9775      747.854        25     1.525     0.818 -34.37   0
       265    786.3419    609.9027 307.5908977  +6.4490717      13774.1      20663.9     21655.62     77.93631     155.9347     312.0553      1.600     4.44     842.9531      54.9775      1796.14        34     1.574     0.876 -32.72   0
       266   1003.7423    610.3310 307.5005653  +6.4561230     946.9947     1474.941     1589.587     78.30773     155.9347     311.8383      1.657     5.14     839.6318      54.9775     157.8945        12     1.344     0.746 -30.93   0
       267    528.3794    610.1605 307.6980560  +6.4403679     1245.698     2118.108     2480.056     77.81211     155.8105     311.6521      1.657     5.56     842.9794      54.9775     182.3466        13     1.421     0.613 -27.77   0
       268     31.8487    609.1663 307.9043560  +6.4241669     430.4578     951.1395     1297.607     77.93631     155.9967     311.8383      2.111     4.80     841.3221      54.9775     74.69824         6     1.402     0.466 -67.76   0
       269    610.0706    608.0813 307.6641888  +6.4439511     3083.881     4465.455     4477.608     78.43114     156.3064     311.9313      1.542     4.45     843.5616      54.9775     387.7226        21     1.478     0.813 -33.84   0
       270    927.2678    604.4400 307.5325341  +6.4560137     1109.774     1729.276     2567.589     78.06032     155.9347     311.9623      1.840     6.36     841.7979      54.9775     147.6976        16     1.586     0.790 -38.46   0
       271    186.1801    602.2097 307.8404810  +6.4322100     672.5872     1063.804     1075.436     77.81211     155.6864     311.7452      1.815     5.32     840.6869      54.9775     113.4164         8     1.320     0.802  84.71   0
       272    368.8326    601.8001 307.7646177  +6.4384899     1017.639     1603.581     1657.572     77.43831     155.7485     311.6521      1.611     5.07     840.9969      54.9775     153.7246        14     1.412     0.753 -31.70   0
       273    222.5890    601.6912 307.8253738  +6.4336430     1298.915     2113.506     1931.129     77.93631     155.6864     311.7142      1.693     5.56     840.6094      54.9775     189.1935        15     1.507     0.721 -30.05   0
       274    862.3560    593.2253 307.5598780  +6.4584843     2744.358     4107.387      4334.95     77.68771     156.0587     311.7762      1.617     4.03      842.127      54.9775     424.3121        20     1.445     0.781 -36.46   0
       275    157.2238    593.3262 307.8528101  +6.4349067     742.9551     961.8558     821.3712     77.81211     155.8105     311.8383      1.551     4.79     840.6349      54.9775      121.069         8     1.011     0.643 -13.08   0
       276    821.1271    590.6198 307.5770940  +6.4581882      2341.06      3499.22     3857.357     77.81211     155.9347     311.8693      1.578     4.32     842.3755      54.9775     336.5844        15     1.386     0.698 -31.93   0
       277    801.7319    581.7991 307.5854479  +6.4611835     157028.6     240386.9     251497.2     77.56311     155.5621     311.6832      1.649     4.48      842.302      54.9775     21145.68       121     1.728     1.135 -36.04   0
       278    791.9316    586.5295 307.5893606  +6.4589049     2303.197     3599.699     4825.386     78.18412     156.1206     311.8693      1.865     4.42     842.4098      54.9775     358.1311        20     1.444     0.800 -31.46   1
       279    734.1893    587.1560 307.6133285  +6.4567239     743.2791     1359.745     2124.519     77.68771     155.8726     311.6211      1.821     5.16     842.3447      54.9775     111.4614         8     1.514     0.497 -41.00   0
       280    249.1803    585.7135 307.8148669  +6.4411275     7869.567     12118.31     12311.77     77.93631     155.7485     311.8383      1.611     4.60     840.2723      54.9775     1151.526        28     1.537     0.862 -34.34   0
       281    183.3521    580.2778 307.8423969  +6.4411672     57854.22     89708.68     94930.84     78.18412     156.0587     311.8383      1.695     4.84     840.3648      54.9775     7897.437        76     1.744     1.065 -35.15   0
       282    852.8762    583.6345 307.5641382  +6.4621276     585.5078     923.7354     1267.585     78.06031     156.0587     311.8693      1.340     3.39      842.056      54.9775     83.96283         5     0.790     0.421  20.47   0
       283    107.2894    576.5182 307.8741217  +6.4401707     6259.893     9830.508     10500.36     77.93631     156.1826     311.9623      1.715     4.54     840.4755      54.9775     833.0461        31     1.638     0.872 -32.00   0
       284    972.7293    573.6816 307.5146783  +6.4702198     1370.224     2391.653     2627.276     78.43115     156.3064     311.9313      1.754     5.42     839.5522      54.9775     178.5303        15     1.523     0.730 -29.33   0
       285    993.3665    572.5330 307.5061429  +6.4713794        736.6     1096.732     1064.018     78.06032     156.0587     311.9313      1.607     4.71     838.8928      54.9775     92.91821         7     1.050     0.599 -22.99   0
       286    221.9188    571.8634 307.8266597  +6.4459314      643.472     1002.352     1543.986     78.30773     156.0587     311.9003      1.896     4.71     839.9932      54.9775     120.6261         7     1.407     0.446 -40.53   0
       287    838.3540    569.0767 307.5706602  +6.4676531     4262.921     6565.756      6428.92     78.06031     156.0587     311.9003      1.620     4.59     841.8849      54.9775      533.114        25     1.526     0.841 -35.21   0
       288    356.7282    567.3628 307.7708078  +6.4522987     17422.85     26222.07     27208.47     78.06032     155.9967     311.9623      1.645     4.54     839.9384      54.9775     2501.403        38     1.617     0.884 -32.38   0
       289    446.9393    567.6340 307.7333216  +6.4552012     800.1813     1251.109     1637.337     78.06031     156.0587     311.8383      1.675     4.37     841.1786      54.9775      131.309         7     1.290     0.422 -24.59   0
       290    159.5564    565.8729 307.8527689  +6.4463155     1701.787     3046.123      4337.46     78.06031     156.0587     311.9313      2.276     7.74     840.3181      54.9775     257.9487        25     2.691     0.623 -27.94   0
       291    792.3008    562.4292 307.5900166  +6.4688644     5878.769      8900.03     9731.794     78.18412     155.7485     311.9313      1.661     4.62     841.8353      54.9775     845.5615        28     1.572     0.844 -33.33   0
       292    523.0779    562.2646 307.7018713  +6.4599593     6566.534     10082.25     10264.72     78.43114     156.0587     311.8693      1.616     4.47     841.4175      54.9775     909.4674        27     1.582     0.813 -33.69   0
       293    233.6267    564.1988 307.8220548  +6.4494867     964.1566      1557.94     2072.616     77.81211     155.6864     311.6832      1.658     4.50     839.8041      54.9775      144.331        12     1.326     0.695 -19.51   0
       294     96.0559    563.5941 307.8792253  +6.4451283     895.1974     1385.935     1245.115     77.68771     155.8726     311.6211      1.503     5.21     840.3448      54.9775     169.2496        11     1.338     0.572 -28.09   0
       295    381.6881    558.9283 307.7607230  +6.4566142     1393.867     2060.519      2128.55     78.30773     156.2445     311.9003      1.640     5.23     840.2168      54.9775      203.439        13     1.500     0.598 -24.11   0
       296    567.8217    555.2354 307.6835193  +6.4643535     2429.429     3913.254     4129.394     77.68771     155.7485     311.6521      1.692     5.23     841.1392      54.9775     388.4281        20     1.576     0.729 -36.35   0
       297    170.1317    555.4788 307.8487269  +6.4509597     6808.182     10382.33     11332.19     78.30773     156.1826     311.9003      1.628     4.71      840.108      54.9775     1022.122        28     1.551     0.860 -33.37   0
       298    808.9130    554.6194 307.5833772  +6.4726407     1389.625     2278.904     3044.744     77.93631     155.7485     311.7762      1.811     4.86     841.6877      54.9775     235.3977        17     1.513     0.730 -40.83   0
       299     41.7879    554.1713 307.9020880  +6.4471979     4935.398     8005.185     8717.516     77.68771     155.8105     311.8073      1.688     4.66     840.2958      54.9775     675.9052        31     1.658     0.966 -28.05   0
       300    265.3304    551.8755 307.8093003  +6.4556338     87653.36     133682.5     139173.6     78.30773     156.1206     311.9003      1.639     4.70     839.5402      54.9775     11572.47        77     1.696     1.026 -32.58   0
       301    553.5238    549.9561 307.6896371  +6.4660555     645.6842     957.2329     882.6218     78.06031     156.0587     311.9313      1.535     4.72     841.1264      54.9775     109.9787         8     1.145     0.551 -53.26   2
       302    556.0000    548.8472 307.6886457  +6.4665958     623.8339     618.8823     636.5898     77.43831     155.6242     311.4348      1.164     3.38     841.0652      54.9775     135.2919         5     1.064     0.347 -79.91   3
       303    249.2107    546.7292 307.8161707  +6.4572185     1452.261     2193.797       789.26     77.68771     155.6242     311.7452      1.600     5.16     839.4384      54.9775     204.6268        14     1.429     0.680 -34.68   0
       304    964.9047    545.3271 307.5188798  +6.4816630     1360.028     2234.005     2111.935     78.06031     156.1206     311.9003      1.656     5.11     838.9786      54.9775     188.5323        17     1.569     0.706 -37.34   0
       305    788.5040    544.1875 307.5922067  +6.4762671     16202.08     24179.37     24927.13     77.93631     155.7485     311.6832      1.614     4.66     841.4048      54.9775     2267.468        45     1.614     0.944 -34.84   0
       306    492.1115    542.6603 307.7153966  +6.4670171     40105.58     66264.16     70425.59     78.06031     156.1206     311.9313      1.799     4.69     840.4343      54.9775     5166.955        73     1.810     1.148 -26.15   0
       307    642.5608    540.9517 307.6529492  +6.4727413     857.0054     1425.618     1600.912     78.06031     156.0587     311.7452      2.053     6.15     840.5007      54.9775     130.1638        13     1.653     0.654 -41.39   0
       308    252.9867    539.2593 307.8148542  +6.4604279     516.8659     762.1265    -1006.794     77.56311     155.9347     311.6211      1.606     5.97     839.1337      54.9775     83.74091         8     1.528     0.657 -45.81   0
       309    204.5580    539.1302 307.8349776  +6.4588601     1840.117     2622.768     2795.978     78.06031     155.9967     311.9623      1.615     5.06     839.4035      54.9775     248.2535        17     1.518     0.709 -29.80   0
       310     89.7863    539.3783 307.8826489  +6.4549126     735.0715     947.0508     730.9893     77.93631     155.8105     311.8383      1.442     4.25     840.0764      54.9775     117.4261         7     0.940     0.548 -52.03   0
       311     40.1077    539.3984 307.9032859  +6.4532386       1231.6     1890.923     1439.859     77.56311     155.6864     311.6521      1.642     5.44     840.1115      54.9775     182.9546        13     1.341     0.723 -30.51   0
       312    662.1662    537.7100 307.6449130  +6.4747328     1377.184     2103.914      2261.16     78.30773     155.8726     311.9003      1.625     4.48     840.6503      54.9775     243.5667        15     1.468     0.748 -31.08   0
       313    652.0925    537.6739 307.6490994  +6.4744119     3016.808     4726.233     5263.082     78.18412     156.1206     311.9313      1.693     5.24     840.5165      54.9775     480.8376        20     1.513     0.751 -36.85   0
       314    714.1107    536.7606 307.6233640  +6.4768554      1273.25     2238.557     2229.289     78.18412     155.9967     311.9313      1.722     4.61     840.8524      54.9775     225.7188        16     1.471     0.786 -32.59   0
       315     70.8514    535.5302 307.8906451  +6.4558661     693.2019     1085.622     1203.868     78.06031     155.8726     311.9003      1.360     5.08     840.0644      54.9775     87.21503         9     1.139     0.641 -33.54   0
       316    389.6521    533.3492 307.7582771  +6.4674377     1824.714     2671.377     2779.929     78.30773     155.8726     311.9313      1.565     5.43       839.29      54.9775     254.9581        13     1.343     0.619 -35.06   0
       317    321.2639    531.5590 307.7867491  +6.4658902     3935.532     5896.913      5789.65     78.18412     155.9347     311.9933      1.604     4.82     838.7056      54.9775     532.8336        21     1.511     0.742 -32.64   0
       318    136.4148    530.2731 307.8635859  +6.4602332     25954.45     39883.05     41160.84     77.68771     155.7485     311.8073      1.654     4.45     839.7474      54.9775     3483.363        53     1.644     1.015 -33.72   0
       319    501.2260    530.9706 307.7120037  +6.4721461     2243.668      3431.75      3887.43     77.68771     155.8105     311.7452      1.578     5.47     839.7347      54.9775     309.9584        17     1.457     0.749 -28.58   0
       320    864.4250    530.2454 307.5611322  +6.4845478      1610.48     2398.748      2467.63     77.68771     156.0587     311.7762      1.601     4.23     841.0748      54.9775     243.4068        16     1.426     0.747 -27.91   0
       321    101.5601    528.5839 307.8781228  +6.4597624     2733.339     4088.775      4017.76     77.81211     155.8105     311.7142      1.644     4.71     839.9269      54.9775     386.4405        19     1.523     0.723 -30.05   0
       322    338.8061    526.6454 307.7796270  +6.4685048     1100.787     1753.022     1866.454     77.68771     155.7485      311.559      1.670     5.14     838.4465      54.9775     177.3128        12     1.348     0.656 -35.19   0
       323    962.0494    524.6485 307.5207595  +6.4901032     4809.678     7850.485     8385.738     78.18412     155.8726     311.8383      1.711     4.09     838.4504      54.9775      631.449        29     1.586     0.959 -30.29   0
       324    535.1722    517.3505 307.6983592  +6.4789007      1547.34     2402.115     2499.961     77.81211     156.0587     311.8383      1.582     4.87     839.0078      54.9775     247.3776        13     1.328     0.679 -34.64   0
       325      1.8156    514.1674 307.9200474  +6.4623675     17521.29     21126.26     21508.33     73.33266     130.9157     242.3404      1.225     3.17     840.1279      54.9775     2972.582        26     1.198     0.801 -71.05  24
       326    433.4253    511.3431 307.7408333  +6.4779829     43392.84     64701.91      67006.2     77.81211     155.9967     311.7142      1.617     4.65     838.2769      54.9775      6017.37        59     1.628     0.971 -32.35   0
       327    641.4528    510.9613 307.6544184  +6.4850826     12417.47     18362.97      18956.4     78.06031     156.0587     311.9003      1.609     4.91     839.4411      54.9775     1643.678        35     1.557     0.909 -33.00   0
       328    281.2337    511.4896 307.8040569  +6.4728344     932.9364     1388.157     1126.942     78.30773     155.8726     311.9003      1.681     5.63     837.6846      54.9775     122.7907        12     1.373     0.651 -33.09   0
       329    164.1383    510.0548 307.8527520  +6.4695066     1624.454     2484.839     2382.448     78.30773     155.9347     311.8693      1.619     5.48     838.9445      54.9775     231.6279        17     1.529     0.731 -36.57   0
       330    198.5755    508.9745 307.8384818  +6.4711058        19095     31050.72     32651.03     77.68771     155.8105     311.7762      1.756     4.29      838.435      54.9775      2275.35        51     1.660     1.113 -26.21   0
       331    975.6191    509.1299 307.5156419  +6.4969593     1176.444     1715.856      2050.66     77.81211     155.8726     311.8383      1.626     4.51     837.5157      54.9775     156.7264        13     1.237     0.740 -39.44   0
       332    815.3808    508.7936 307.5822289  +6.4917702     982.6874     1453.082      1750.04     77.81211     155.6864     311.7142      1.637     4.82     840.5154      54.9775     166.8387        11     1.250     0.693 -37.81   0
       333    563.2379    507.7959 307.6870207  +6.4837807     2831.549     4455.177     4434.799     77.31331     155.7485     311.6521      1.630     4.53     838.6157      54.9775     452.6852        19     1.484     0.742 -35.20   0
       334    904.4451    508.3492 307.5452396  +6.4949161     735.4992      795.994     761.0181     78.30773     155.8726     311.9313      1.393     4.50     839.5491      54.9775     115.9334         8     1.144     0.503 -22.13   0
       335    937.2955    504.7640 307.5317111  +6.4974878     4694.032     7300.115     7543.577     78.30773     155.8726     312.0243      1.696     5.01     838.6029      54.9775     645.4365        29     1.627     0.898 -34.05   0
       336    610.2289    503.2758 307.6676496  +6.4872137      6425.19     9793.465     10196.69     78.06032     156.0587     311.9313      1.633     4.63      839.006      54.9775     946.4479        30     1.562     0.854 -34.92   0
       337     97.7771    504.0037 307.8805257  +6.4697804     1096.368     1643.073     1877.946     77.81211     155.6864     311.7452      1.546     5.63     839.6561      54.9775     138.9048        12     1.324     0.676 -30.35   0
       338    959.6957    497.1830 307.5226584  +6.5013613     3247.842     5188.475     5251.901     78.06031     155.8105     311.7452      1.659     4.44      837.639      54.9775      413.701        25     1.537     0.895 -25.81   0
       339    398.1142    496.3854 307.7560080  +6.4829767     732.4889     1085.584     1081.388     77.81211     155.7485     311.7762      1.566     5.59     837.1573      54.9775     105.6047         9     1.202     0.732 -25.31   0
       340    522.4219    494.6643 307.7044206  +6.4878386     7532.413      11108.4     11985.09     77.81211     155.9967     311.7762      1.630     4.83     837.4212      54.9775     1039.385        27     1.532     0.818 -31.30   0
       341    368.3167    494.8536 307.7684393  +6.4826130     2631.065     3904.949     4053.919     78.18412     155.9967     312.0243      1.571     4.61     836.8914      54.9775     397.8425        18     1.478     0.705 -34.46   0
       342    737.6597    494.9550 307.6149852  +6.4948946     602.3749       814.99     944.1663     78.06031     155.9347     311.9933      1.649     4.63     839.0513      54.9775     112.8771         6     1.160     0.660 -25.95   0
       343    989.7811    493.3500 307.5102868  +6.5039428     445.5923     651.0944     892.6424     77.68771     156.0587     311.7142      1.143     2.95     836.5897      54.9775     109.5746         5     0.750     0.430 -19.64   0
       344    878.8391    490.4629 307.5564786  +6.5014471     3136.747     4775.062     5268.604     78.18412     155.9347     311.9623      1.620     4.34     839.6516      54.9775     426.5017        23     1.453     0.891 -27.87   0
       345    531.7167    491.5978 307.7006621  +6.4894144     814.7757     948.5245     1096.828     77.56311     155.6242     311.5901      1.393     3.46     837.2319      54.9775     135.7753         5     1.055     0.329 -21.28   0
       346    227.6138    489.2703 307.8270836  +6.4802105     597.0804     992.4633     866.4551     77.68771     155.8105     311.7762      1.562     4.35     837.3027      54.9775     92.28827         7     1.014     0.531 -28.66   0
       347    886.2454    484.8605 307.5535894  +6.5040058      1969.82     3154.241     3855.145     78.06031     155.9347     311.9933      1.821     4.94     839.3311      54.9775     257.9174        18     1.509     0.758 -32.57   0
       348    105.1649    484.3080 307.8781226  +6.4781569     810.8682     1279.332       1566.4     78.30773     155.8726     311.9313      1.906     5.45     839.2823      54.9775     139.8715        10     1.420     0.589 -22.47   0
       349    925.8471    483.9343 307.5371664  +6.5057047     1222.422     1730.452     1840.286     78.18412     155.9347     311.9313      1.541     5.74     838.2611      54.9775     156.3162        12     1.343     0.709 -28.98   0
       350    710.3812    480.7290 307.6267971  +6.4998577     2983.635     4451.853     4569.597     77.81211     155.8726     311.8383      1.587     4.90     838.4097      54.9775     421.3988        19     1.505     0.724 -33.97   0
       351    421.5644    479.2437 307.7468432  +6.4908352      1149.44     1830.218     1833.306     77.93631     155.9347     311.7142      1.566     5.50      836.241      54.9775     170.6031        14     1.579     0.606 -33.14   0
       352    381.1711    478.9670 307.7636346  +6.4895995     3816.576     5558.123     5816.362     77.68771     155.7485     311.6832      1.560     4.25     836.0891      54.9775     529.6021        24     1.523     0.807 -32.81   0
       353     72.1779    479.8169 307.8919788  +6.4789047     1842.195     2663.574     2710.647     77.93631     155.8726     311.8383      1.564     4.47     839.5668      54.9775     262.2465        16     1.345     0.742 -31.66   0
       354    608.9113    475.5510 307.6691300  +6.4986128     10134.22     15062.53     16048.86     78.18412     155.8105     311.9933      1.591     4.69     838.0511      54.9775     1531.003        31     1.555     0.843 -32.99   0
       355    771.8778    471.7515 307.6015479  +6.5056111     15932.69     24770.28     27028.92     78.18412     156.0587     311.8693      1.715     6.01     838.6653      54.9775     2286.163        53     2.151     0.929 -43.75   0
       356    291.2384    472.5118 307.8012162  +6.4892564     2793.016     4132.382     4263.687     78.18412     155.9347     311.9313      1.553     4.62     835.7245      54.9775      408.275        17     1.408     0.694 -27.43   0
       357    415.0474    471.8501 307.7498001  +6.4936690     668.9813     1019.589     544.8585     78.18412     155.8726     311.9003      1.751     4.46     835.9009      54.9775      94.8175         8     1.322     0.427 -28.26   0
       358    800.5712    469.1441 307.5897137  +6.5076424     1335.473     1854.663     1873.812     77.93631     156.0587     311.8073      1.526     5.28     839.0273      54.9775     204.0442        12     1.353     0.582 -29.57   0
       359    374.5255    468.9362 307.7667340  +6.4935174     1770.519     2643.428     2837.365     78.30773     155.9967     311.8693      1.547     4.19     835.6288      54.9775     267.5426        17     1.481     0.678 -40.66   0
       360    956.9742    466.9017 307.5248047  +6.5137693     1630.085     2642.348     2891.352     78.30773     155.7485     311.7762      1.697     4.50     836.6841      54.9775     234.8114        18     1.417     0.833 -41.43   0
       361    705.3320    465.8489 307.6293952  +6.5058311      663.051     949.1088     672.7436     78.06031     155.9347     311.9003      1.670     5.80     837.5899      54.9775      95.3653        10     1.566     0.605 -32.32   0
       362    108.8525    464.1499 307.8772723  +6.4866002      4465.83      6794.03     7040.872     78.30773     155.8726     311.9313      1.619     4.51     838.6588      54.9775     591.8411        25     1.504     0.840 -31.05   0
       363   1010.6959    461.7360 307.5026566  +6.5176860     3849.276     6941.568     7513.635     78.06032     156.1206     311.9003      1.946     4.52     835.1511      54.9775     446.8497        35     1.631     1.184 -17.16   0
       364    747.1402    463.0294 307.6121192  +6.5083874     2422.584     3547.291     3271.676     77.93631     155.9967     311.8693      1.537     4.18     837.7644      54.9775     336.3608        20     1.406     0.804 -35.45   0
       365    266.8293    461.3465 307.8117343  +6.4930480     1492.931     2331.472     3023.456     77.93631     156.0587     311.8383      1.790     5.85     835.5212      54.9775     213.8468        15     1.396     0.695 -24.67   0
       366    345.0070    458.7537 307.7793415  +6.4967332      3171.04     4859.568     4734.266     77.68771     155.8105      311.559      1.626     4.90     835.1312      54.9775     468.9937        21     1.545     0.818 -40.62   0
       367    700.9329    456.6945 307.6315308  +6.5094629     1588.157     2442.752     2081.013     78.06031     156.1826     311.9003      1.613     4.79     837.0691      54.9775     232.0947        15     1.352     0.799 -34.24   0
       368    974.0769    455.6905 307.5180745  +6.5189649     560.7886     843.7968     1268.277     78.06031     156.2445     311.9313      2.018     4.94     835.8643      54.9775     88.16815         6     1.288     0.536 -26.74   0
       369    231.3536    455.3001 307.8266774  +6.4943561     788.4366     994.9869     1201.179     78.18412     155.8726     312.1173      1.598     4.22     835.7399      54.9775     124.5807         7     1.033     0.562 -38.44   2
       370    234.0000    453.9841 307.8256223  +6.4949879      630.168     1027.686     986.0684     77.68771     155.4999     311.6211      1.578     3.37     835.6531      54.9775     113.9099         5     0.798     0.510  67.31   2
       371    542.0764    449.3156 307.6977819  +6.5072116     892.7906     1573.116     1287.374     78.30773     156.3064     311.9933      1.526     5.81     835.0177      54.9775     144.9958        13     1.498     0.635 -25.38   0
       372    443.3220    450.4925 307.7387728  +6.5034286     544.4562     796.6154     782.1219     77.93631     156.1826     311.9313      1.564     4.31     834.9217      54.9775     93.76801         5     0.990     0.534 -40.65   0
       373    826.9579    446.6828 307.5795046  +6.5177912      1335.27     1796.961     1325.497     78.18412     155.9967     311.8383      1.523     4.60     837.6663      54.9775     211.0248        16     1.468     0.744 -31.03   0
       374    464.7257    447.5050 307.7299807  +6.5053766     1486.583     2134.479     1771.745     77.93631     156.1826     311.9003      1.612     4.37     834.8502      54.9775     238.9344        14     1.434     0.612 -31.12   0
       375    710.0549    443.8136 307.6281737  +6.5150833      14634.6     22293.78     23566.73     77.56311     155.9347     311.6521      1.586     4.59     836.4432      54.9775     2198.719        40     1.642     0.878 -36.45   0
       376    812.7287    445.6743 307.5854507  +6.5177340     1911.023     2789.598     2719.112     78.43115     156.1206     311.9313      1.443     4.52     837.6044      54.9775     309.8079        15     1.471     0.602 -33.08   0
       377    612.2521    445.8583 307.6687412  +6.5109795     747.3973     1238.693       1591.1     78.18412     155.9967     311.9003      1.617     4.94     835.9117      54.9775     105.6591         9     1.429     0.483 -23.63   0
       378    631.2288    439.7618 307.6610617  +6.5141286     2598.761     3968.308     4870.003     77.68771     155.6864     311.7452      1.682     4.91      835.574      54.9775     356.2296        18     1.462     0.700 -30.54   0
       379    704.0107    438.3606 307.6308684  +6.5171326     952.9822     1424.784     1810.717     77.56311     155.8105     311.6521      1.660     4.46     836.0466      54.9775     146.6791        11     1.093     0.768 -30.60   0
       380    606.2114    436.9763 307.6715500  +6.5144440     5378.486     8495.403     9407.192     77.81211     155.8105     311.8383      1.688     4.93     835.2179      54.9775     717.6402        25     1.527     0.838 -33.76   3
       381    602.5425    434.2877 307.6731649  +6.5154314     14978.09     22181.55     23942.51     78.18412     155.9347     312.0243      1.644     4.58     834.9742      54.9775     2096.536        38     1.617     0.887 -33.22   3
       382    935.3514    433.5766 307.5349067  +6.5268055     3742.215     5632.178     5919.381     77.81211     155.9967     311.8073      1.638     4.67     835.7509      54.9775     505.4637        23     1.507     0.814 -31.18   0
       383    374.4529    429.7061 307.7680875  +6.5097065     29627.95     44134.16     45763.93     78.06032     155.9347     312.1483      1.645     4.64     833.9249      54.9775      4095.43        50     1.636     0.952 -32.82   0
       384    411.5576    431.1124 307.7526237  +6.5103662     636.9557     962.4615     894.9811     78.18412     155.8726     311.9313      1.596     4.19     834.0115      54.9775      114.613         7     1.252     0.400 -32.95   0
       385    890.9458    429.3859 307.5534982  +6.5270589     1357.915     2346.505     2315.229     77.56311     155.9347     311.6521      1.538     4.76     836.1697      54.9775       226.29        15     1.555     0.635 -31.83   0
       386    120.6002    429.1625 307.8735749  +6.5014341     2268.771     3662.434     3725.955      77.1881     155.8105     311.7142      1.702     4.38     837.4702      54.9775     315.1621        21     1.524     0.805 -35.32   0
       387    887.3061    425.4151 307.5551438  +6.5285768     640.2545     1011.161     972.5543     77.93631     155.8105     311.7452      1.728     6.08     836.0007      54.9775     93.37805         9     1.232     0.845 -43.89   0
       388    904.1668    424.0545 307.5481836  +6.5296990     4924.198     7546.678       7430.7     78.06031     155.9967     311.8383      1.602     4.53     835.7122      54.9775     634.9171        29     1.547     0.885 -30.81   0
       389    585.7351    425.2205 307.6804534  +6.5186131     645.4563     975.1147     993.7117     77.81211     155.9967     311.7762      1.573     5.31     834.2327      54.9775     103.5909         7     1.176     0.677 -12.31   0
       390     53.7779    424.6696 307.9014891  +6.5010481      1600.73     2369.523     2904.246     77.81211     155.9347     311.8693      1.674     5.82     838.5364      54.9775     216.1417        14     1.300     0.734 -36.93   0
       391    231.9929    420.3471 307.8275925  +6.5088036      13915.9     21583.58     22789.12     77.68771     155.8105     311.5901      1.627     4.45     834.0919      54.9775     2012.458        41     1.638     0.935 -33.36   0
       392    959.4341    422.1695 307.5252828  +6.5323140     700.3539     1006.826     910.4524     77.68771     155.7485     311.6521      1.564     4.51     834.9004      54.9775       146.17         8     1.263     0.484 -18.67   0
       393     67.3643    414.5284 307.8961876  +6.5056892      842.251     1274.534     1414.682     78.06032     155.9967     311.9003      1.690     4.34     838.0238      54.9775     130.1035        10     1.189     0.624 -41.16   0
       394    726.7268    414.0682 307.6222466  +6.5279158     843.9713     1092.534     1587.045     78.30773     156.1206     311.9003      1.414     4.43     835.2227      54.9775     125.3081         8     1.129     0.494 -35.07   0
       395    955.1551    412.4833 307.5273857  +6.5361697     1015.251     1464.574     1435.882     78.18412     155.9967     311.9003      1.545     3.63     834.5087      54.9775     150.4339        11     1.179     0.648 -22.57   0
       396    695.5917    413.0765 307.6352167  +6.5272879     749.0078      1113.01     1157.025      77.8121     155.4999     311.6832      1.564     5.43     834.6252      54.9775     126.5231        11     1.265     0.658 -18.67   0
       397    178.2861    410.3471 307.8502442  +6.5111324     781.8632     1433.406     1160.404     78.18412     155.9347     312.0243      1.931     6.78     835.8023      54.9775     122.0333        10     1.421     0.909 -37.81   0
       398    344.8140    410.0958 307.7810636  +6.5168094     1284.379     1963.093     1842.723     77.93631     155.7485     311.6832      1.465     5.14     833.0638      54.9775     180.7572        13     1.469     0.593 -35.84   0
       399    132.2422    408.9406 307.8694219  +6.5101703     5119.306      7832.41     8105.677     78.18412     155.9967     311.9623      1.614     4.62     836.8204      54.9775     668.1151        26     1.492     0.870 -31.99   0
       400    429.6075    407.6636 307.7459149  +6.5206474     583.4343     808.9892     683.2397     77.56311     155.7485     311.7142      1.559     4.95     832.9802      54.9775     107.0263         8     1.454     0.477 -26.18   0
       401    236.9555    407.9633 307.8259490  +6.5140808     1347.877     2055.517     2585.707     77.93631     155.9346     311.7762      1.537     5.26     833.7644      54.9775     196.1125        12     1.306     0.597 -23.43   0
       402    154.1972    404.8968 307.8604369  +6.5125749     2374.883     3968.041     3991.632     77.93631     155.6864     311.5901      1.833     4.51     836.4262      54.9775     292.1265        23     1.549     0.916 -36.44   0
       403    818.4525    405.1682 307.5844328  +6.5346430     896.0069     1351.656     1266.915     78.06031     156.0587     311.8073      1.653     4.74     835.2524      54.9775     142.1394         9     1.203     0.529 -28.40   0
       404    549.8604    403.9213 307.6960764  +6.5262072     1063.851     1752.612      1599.61     78.30773     155.9967     311.8693      1.662     5.63     832.9503      54.9775     171.4442        12     1.417     0.631 -39.42   0
       405    377.7208    399.4163 307.7677515  +6.5223173     2119.104     3267.276     3265.414     77.81211     155.7485     311.7452      1.679     5.03     832.5999      54.9775     276.7664        19     1.443     0.786 -31.66   0
       406    266.1473    400.0833 307.8140864  +6.5183102      894.163      1328.02     1310.871     78.18412     155.9967     311.9933      1.432     5.16     833.1573      54.9775     133.6814        11     1.257     0.599 -24.73   0
       407    966.1815    398.5821 307.5232702  +6.5422738     1094.357     1681.299     1689.773     77.93631     155.7485     311.8383      1.614     4.72     833.6901      54.9775     153.2598        13     1.361     0.676 -24.35   0
       408    312.0072    397.1380 307.7951317  +6.5210602     547.1268     1040.712     1115.954     77.56311     155.8105     311.7142      2.159     4.69     832.6115      54.9775     95.68744         7     1.029     0.606  -1.61   0
       409    431.6379    393.0169 307.7455651  +6.5267604     7577.543     11338.26     11756.26      77.8121     155.8726     311.6521      1.617     4.72     832.3237      54.9775     1030.936        30     1.552     0.881 -36.02   0
       410     28.0490    393.9485 307.9132184  +6.5128644     3107.201     5100.867     5452.637     78.30773     155.8726     311.8693      1.746     4.84     837.9878      54.9775     431.8029        26     1.697     0.844 -40.38   0
       411    764.1689    391.8874 307.6074346  +6.5383176     2076.035     3141.059     3385.262     78.30773     155.8105     311.8383      1.579     4.06      834.584      54.9775     320.3185        17     1.390     0.740 -34.01   0
       412    192.3412    393.0276 307.8449900  +6.5187513     540.3422     689.7722     578.9998      77.8121     156.0587     311.7762      1.219     5.94     834.9173      54.9775     85.60852         7     1.207     0.822  -4.70   0
       413    772.2695    390.3229 307.6041212  +6.5392331     13074.08     19469.67     20660.89     78.30773     156.1826     311.8693      1.617     4.54     834.5193      54.9775      2013.01        38     1.592     0.890 -32.79   0
       414    286.1660    389.6161 307.8061224  +6.5233002     373.4646      540.073     354.3534     77.81211     155.7485     311.7452      1.339     5.45     832.4908      54.9775     101.3586         7     1.364     0.615 -29.52   0
       415    335.4207    388.9616 307.7856796  +6.5252180     941.1122     1505.019     1421.636     77.81211     155.8105     311.6521      1.554     5.15     832.2359      54.9775     144.9258        10     1.425     0.526 -28.53   0
       416    485.1810    387.8080 307.7234935  +6.5306987     339.6958     631.0693     625.3584     77.81211     155.6864     311.7452      1.558     4.82     831.9911      54.9775     66.31079         5     1.281     0.515 -26.43   0
       417   1016.1719    385.3942 307.5029403  +6.5493776     3465.624     5376.146     5338.986     77.68771     155.8105     311.7142      1.642     4.34     831.8831      54.9775     416.9413        22     1.471     0.882 -33.64  16
       418    946.6886    381.7908 307.5319331  +6.5485565     535.3185     480.5371     1040.599     77.81211     155.6864     311.6832      1.377     5.31     833.2286      54.9775     91.17981         8     1.180     0.675 -45.43   0
       419    180.5435    381.5737 307.8502789  +6.5230835     806.0961     1375.083     1001.497     77.81211     156.0587     311.7452      1.876     4.50     835.0495      54.9775     145.6468        11     1.404     0.648 -28.64   0
       420    897.2990    380.6332 307.5524945  +6.5473925     628.9396      931.707     889.6794     78.18412     155.8726     312.0243      1.569     4.83     833.7939      54.9775     95.14178         7     0.896     0.739 -64.19   0
       421    479.6076    376.7228 307.7261829  +6.5350878     3098.976     4797.765     4809.867     77.81211     155.4999     311.7142      1.628     4.75     831.4608      54.9775     426.9842        23     1.518     0.800 -32.42   0
       422    451.8262    377.3282 307.7377058  +6.5339101     2191.011     3319.378     3416.088     77.81211     155.8726     311.8383      1.622     4.72     831.5566      54.9775      297.858        19     1.506     0.739 -34.27   0
       423    908.7702    376.0847 307.5478806  +6.5496512     697.8513     1085.614     879.0991     78.18412     155.8105     311.7762      1.436     4.96     833.5019      54.9775     121.0363         8     1.331     0.523 -41.14   0
       424    837.5827    373.2572 307.5775556  +6.5484506     32582.69     51314.71     53691.44     77.68771     155.9347     311.6521      1.704     4.50     833.6907      54.9775     4161.325        54     1.663     1.054 -40.39   0
       425    423.0227    370.7747 307.7498947  +6.5356526     451.6962     764.3207      455.817     77.68771     155.8726     311.8693      1.443     3.37     831.3985      54.9775     92.97076         5     1.498     0.219 -27.74   0
       426     54.8824    369.9552 307.9028819  +6.5236669     586.8014      1028.71     1285.095     78.18412     155.9967     311.8693      1.952     5.82     836.8305      54.9775     94.35345         9     1.348     0.707 -27.23   0
       427    329.7238    369.0878 307.7887174  +6.5332299     922.8971     1348.442      1559.08     78.18412     156.3064     311.9933      1.514     5.23     831.4688      54.9775     136.3113        11     1.333     0.580 -35.01   0
       428    609.2634    365.7415 307.6726794  +6.5439471      2724.65     4332.335      4217.03     78.30773     155.9347     311.9313      1.662     4.57     831.7405      54.9775     422.0773        22     1.563     0.796 -37.99   0
       429     17.6248    366.1735 307.9184896  +6.5239779     1085.068     1568.397     1899.239     77.68771     155.8105     311.7762      1.515     5.54     836.8769      54.9775     178.0353        12     1.254     0.689 -30.82   0
       430    140.5000    364.4733 307.8674946  +6.5287997     598.6315     759.1996     1242.123     77.93631     156.1206     311.8693      1.216     3.78     835.5991      54.9775     85.42615         6     1.002     0.409 -18.21   0
       431    694.0458    359.2623 307.6376687  +6.5494475     80741.09     120661.7     124855.8     78.06031     155.8726     311.9623      1.591     4.51     833.0917      54.9775     12086.65        76     1.642     0.996 -33.01   0
       432    852.3224    360.5683 307.5718570  +6.5541782     1356.958     2225.887     2514.777     78.06032     155.9967     311.8693      1.806     4.50      833.047      54.9775      193.946        15     1.248     0.801 -31.76   0
       433     73.2870    359.0688 307.8956035  +6.5287772     1372.031     1963.377     2230.447     78.18412     156.2445     311.9313      1.524     4.40     836.4337      54.9775     188.7913        14     1.269     0.750 -34.28   0
       434     60.3368    357.6498 307.9010321  +6.5289286     523.0855     670.5134     660.9122     78.18412     155.9347     311.9623      1.585     5.07     836.4339      54.9775     62.37415         6     1.178     0.616 -24.21   0
       435    935.6823    356.3600 307.5373597  +6.5586871     872.3494     1296.686     1313.843     78.18412     156.0587     311.8383      1.753     5.52     832.3726      54.9775     125.5424        11     1.387     0.619 -38.24   0
       436    556.3666    355.9939 307.6949870  +6.5462056     2734.381     4059.865     4443.546     77.56311     155.8105     311.7142      1.623     4.54     830.6121      54.9775     397.0318        19     1.420     0.778 -32.97   0
       437     93.7748    354.9628 307.8872300  +6.5311588     6265.079     9680.686     9997.424     77.81211     155.8105     311.6832      1.613     4.39     836.3082      54.9775     840.0375        32     1.599     0.924 -32.31   0
       438    384.3742    356.0961 307.7664484  +6.5404193     446.8041      739.576      836.188     78.30773     155.7485     311.7762      1.391     4.90     830.7859      54.9775     80.37598         7     1.169     0.583 -60.82   0
       439    539.7599    352.1288 307.7020176  +6.5472467     7285.642     11071.42      11703.4     78.06031     155.9967     311.9623      1.604     4.42     830.2641      54.9775     1000.512        26     1.527     0.818 -33.41   0
       440    268.7223    349.9142 307.8147109  +6.5391026     2602.408     3922.276     2936.927     78.18412     156.3064     311.9933      1.614     4.55     831.8185      54.9775     376.7063        20     1.498     0.753 -34.20   0
       441    402.6583    347.4050 307.7591444  +6.5446175     26044.31     39730.24     41448.75     77.68771     155.8726     311.6211      1.655     4.49     830.4888      54.9775     3535.009        51     1.646     0.960 -33.24   0
       442    581.7100    346.3759 307.6847802  +6.5510209     753.3146     1208.167     1034.047     78.18412     155.8105     311.7452      1.497     5.08      830.513      54.9775      104.576         9     1.113     0.657 -37.79   0
       443    510.4940    345.8950 307.7143880  +6.5488427     1364.031     1908.839      2406.64     78.18412     156.6155     311.8383      1.496     4.82     830.0454      54.9775      211.952        12     1.151     0.791 -32.06   0
       444    382.5643    345.5680 307.7675556  +6.5447041     1167.991     1756.176     1931.159     77.81211     155.7485     311.6521      1.611     5.69     830.5272      54.9775     185.8976        14     1.575     0.578 -33.24   0
       445    481.9680    342.8139 307.7263449  +6.5491619     1236.273     2032.189     2304.564     77.81211     155.7485     311.8383      1.924     5.11     829.9987      54.9775     182.4091        11     1.384     0.540 -29.97   0
       446    797.5341    339.9569 307.5953155  +6.5608622     952.0936      1488.28     1665.688     78.18412     155.9347     311.9313      1.630     5.65     832.6315      54.9775     125.1005        12     1.470     0.613 -28.41   0
       447    379.4744    339.6451 307.7690393  +6.5470453     854.3009     1167.756     1424.883     78.06032     156.0587     311.9313      1.554     4.71     830.4387      54.9775     144.9133         9     1.273     0.667 -20.69   0
       448    633.2853    339.4836 307.6635815  +6.5555857     502.5397     660.9776     622.2665     77.93631     156.1826     311.9933      1.349     3.37     831.1642      54.9775     110.2418         5     1.114     0.295 -22.05   0
       449    491.7458    337.7583 307.7224524  +6.5515751     8720.431     13169.09     13255.44     78.06031     156.0587     311.9313      1.625     5.05     829.8082      54.9775      1182.04        29     1.582     0.834 -34.80   0
       450    916.3014    336.0750 307.5460938  +6.5664153     948.2791     1126.048      1039.46     77.68771     156.1206     311.8383      1.474     5.86     831.9993      54.9775     141.5408        12     1.326     0.761 -38.47   0
       451    760.7558    336.4691 307.6107153  +6.5610773     3261.502     4855.394     5093.971     78.18412     155.9347     311.9313      1.609     4.51      832.541      54.9775     482.6616        18     1.466     0.706 -31.56   0
       452    708.1722    335.8380 307.6325866  +6.5595864     661.5546     848.7991     913.2379     77.68771     155.7485     311.7452      1.327     4.58     832.2798      54.9775     140.6653         7     1.461     0.407 -36.18   0
       453    318.2109    334.6843 307.7946624  +6.5470441     1108.542     1661.645     1806.789     77.81211     155.7485     311.7452      1.667     4.72     830.8212      54.9775     185.7681        11     1.369     0.512 -38.92   0
       454     77.3705    331.4159 307.8948426  +6.5403270     481.0326      738.739     607.8989     77.81211     155.7485     311.8383      1.415     3.41     836.2309      54.9775     83.46869         5     1.134     0.297 -21.07   0
       455    153.9075    328.1795 307.8631511  +6.5442282     1118.313     1653.589     1507.287     78.06031     155.8105     311.7452      1.679     3.90     834.7185      54.9775     187.2473        14     1.340     0.698 -39.14   0
       456    254.0914    328.2745 307.8215210  +6.5475441     630.8372     852.4736     525.0832     78.18412     156.1826     311.9313      1.442     3.87     832.0672      54.9775     116.0041         5     1.204     0.357 -13.47   0
       457    601.0845    326.8845 307.6773859  +6.5597120     539.7373     671.9414     714.4977     77.93631     156.1206     311.9933      1.324     4.01     829.9279      54.9775     102.4594         6     0.793     0.579 -33.58   0
       458    381.6236    321.9642 307.7687428  +6.5544146     7514.047     11553.29     12158.84      77.8121     155.7485     311.6832      1.641     4.64     830.0891      54.9775     1011.999        29     1.597     0.851 -32.89   0
       459    237.2966    322.5581 307.8286925  +6.5493412     2203.094     3245.551     3030.889     78.18412     155.9347     312.0863      1.601     4.61     832.5331      54.9775     343.7201        15     1.463     0.647 -31.81   0
       460    734.9100    322.0318 307.6219404  +6.5661754     1070.209     1427.815     955.3931     78.30773     155.8105     311.9003      1.420     5.14     832.1917      54.9775      170.157        11     1.195     0.625 -28.57   0
       461    749.4897    317.8194 307.6160236  +6.5683996     56111.42     81522.92     84070.51     78.06031     155.7485     311.7762      1.598     4.72     832.1342      54.9775     7615.231        63     1.609     0.978 -32.13   0
       462    421.1249    317.2210 307.7524892  +6.5576925     2451.528     3670.536     3484.386     77.81211     155.8726     311.8383      1.635     5.01      829.384      54.9775     339.5099        19     1.449     0.783 -35.50   0
       463    984.4587    314.7998 307.5184852  +6.5774617     1546.924     2298.933     1770.386     77.43831     155.6242      311.559      1.533     4.66     830.2932      54.9775      234.913        16     1.545     0.707 -32.51   0
       464    925.2141    313.9384 307.5431330  +6.5758483     2348.688     3524.732     3693.093     77.68771     155.8726     311.6832      1.608     4.11     831.2643      54.9775     365.7637        21     1.458     0.815 -34.40   0
       465    567.2960    314.6819 307.6918368  +6.5636212     1325.063     1889.362     1978.318     78.06032     156.3064     311.9933      1.544     4.96     828.8884      54.9775     218.9503        13     1.366     0.600 -33.26   0
       466    458.2344    313.7442 307.7371865  +6.5603673     1117.263     1442.533     1460.512     78.06031     155.9967     311.9003      1.366     4.81     829.1741      54.9775     198.7542        10     1.402     0.480 -31.29   0
       467    407.5089    313.0536 307.7582875  +6.5589575     2013.979     3126.403     3093.267     78.06031     155.8105     312.0243      1.671     5.64     829.4276      54.9775     265.5546        17     1.464     0.737 -34.91   0
       468    828.6368    307.6168 307.5834775  +6.5752454     1179.376     1765.703     1819.747     77.68771     155.8726     311.6521      1.623     4.60     831.8636      54.9775     159.2139        15     1.249     0.899 -65.66   0
       469    458.0238    308.1357 307.7374632  +6.5626751     667.4561     1046.155     848.3122     77.81211     155.9967     311.8383      1.554     3.95     828.9801      54.9775     113.1251         6     0.942     0.473 -32.85   0
       470    960.8274    305.4604 307.5286184  +6.5805312     642.9193     1079.844     866.0554     77.81211     156.0587     311.8073      1.976     4.81     830.4971      54.9775     92.99243         8     1.580     0.415 -51.64   0
       471    184.0857    304.4151 307.8514153  +6.5550474     2272.664     3700.359     3782.288      77.8121     155.7485     311.8073      1.694     4.79     833.6464      54.9775     336.8819        19     1.539     0.780 -37.08   0
       472    438.0991    304.7789 307.7458556  +6.5633949     1058.683     1763.674     1846.851     78.18412     155.8105     311.6832      1.957     4.46      828.928      54.9775      172.876        12     1.403     0.746 -20.17   0
       473    747.9458    302.2980 307.6171869  +6.5747545     6348.412     9348.714      9478.63     78.06031     155.9967     312.1173      1.548     4.24     831.7725      54.9775     953.3626        28     1.536     0.838 -34.68   0
       474    764.2426    300.3306 307.6104810  +6.5761092     2713.775     4022.202     4303.005     78.06032     155.9967     311.9623      1.659     4.26     831.7274      54.9775      423.151        20     1.443     0.818 -28.50   0
       475    338.4734    302.2183 307.7873389  +6.5611215     651.8978     718.7451     826.6938     77.68771     155.9347     311.8073      1.277     4.60     830.5052      54.9775     99.32355         8     1.103     0.676 -20.51   0
       476    219.5895    302.3239 307.8367337  +6.5570995     751.9506     968.0341     877.1176     77.81211     155.6242     311.7142      1.504     4.01     832.7153      54.9775     150.9688         6     1.089     0.422 -38.61   0
       477     80.3971    301.4795 307.8945980  +6.5527839     1096.646     1750.356     1476.305     77.56311     155.4999     311.6521      1.613     3.94     836.1616      54.9775     189.7765        12     1.122     0.748 -32.71   0
       478    466.4094    299.6694 307.7342641  +6.5664495     490.9422     763.4504     884.6464     77.68771     155.8105     311.7452      1.880     3.90     828.7062      54.9775     115.9908         5     1.415     0.309 -27.97   0
       479    353.7166    295.0326 307.7812474  +6.5645970     1782.995     3332.765     3057.478     78.18412     155.8105     311.8383      1.923     6.72      830.367      54.9775     238.3387        23     1.823     0.871 -20.83   0
       480     67.5470    295.7552 307.9001310  +6.5547155     1330.097     1868.619      1749.93     78.18412     155.9967     311.9003      1.622     5.42     836.1863      54.9775     200.3588        12     1.479     0.561 -28.04   0
       481   1002.5710    291.1647 307.5117512  +6.5878186     5855.719     8860.188     9413.845     77.81211     155.7485     311.7142      1.641     4.40     829.8732      54.9775     762.8917        30     1.599     0.896 -33.52   0
       482    480.6072    291.2484 307.7286483  +6.5703993     2118.236     3271.258     3313.442     77.68771     155.8105      311.528      1.663     4.39     828.4006      54.9775     275.0905        21     1.519     0.821 -35.28   0
       483    243.1997    286.8051 307.8274476  +6.5642950     6062.148      9494.81     10188.75     77.56311     155.6864     311.6521      1.651     4.62     831.9157      54.9775     813.6593        30     1.591     0.871 -33.51   0
       484    911.2840    285.3804 307.5498801  +6.5871723     629.0302     784.6694     721.5864     77.81211     155.6864     311.8693      1.567     5.12     830.5294      54.9775      120.059         6     1.219     0.609 -43.71   0
       485    807.3074    285.1073 307.5930970  +6.5838261     662.4233     1117.923     1272.958     78.18412     156.4919     311.8693      2.024     4.80     831.2833      54.9775     104.9758         9     1.355     0.482 -24.00   0
       486    934.0105    281.8431 307.5405546  +6.5893878     574.1544     931.9656      1111.44     77.68771     155.8105     311.6211      1.333     3.87      830.095      54.9775     125.0745         5     1.291     0.332 -30.25   0
       487    762.6387    280.2459 307.6118226  +6.5843455     912.0638     1410.373     1303.862     77.93631     155.9967     311.8073      1.597     3.71     831.0486      54.9775     165.1594        11     1.158     0.675 -28.18   0
       488    220.0760    279.9340 307.8372881  +6.5663567     670.5474     948.1067     954.3743     78.30773     155.9967     311.8693      1.547     4.09     832.5615      54.9775     94.16467         7     0.902     0.529 -42.57   0
       489    115.9780    280.4449 307.8805254  +6.5626582     446.7957     630.0322     813.9286     77.68771     155.9347     311.7452      1.646     4.66     835.3351      54.9775     82.55066         6     1.238     0.497  -0.29   0
       490    377.2960    277.5394 307.7720399  +6.5726054     1678.224     2666.121      2301.44     77.93631     155.9967     311.9933      1.669     4.88     829.2997      54.9775     246.0251        16     1.469     0.687 -33.15   0
       491    963.7927    276.4251 307.5283601  +6.5926139     928.3271     1443.024      1588.45     77.68771     155.8726     311.7452      1.672     5.97     829.7325      54.9775     140.5411        12     1.378     0.727 -12.28   0
       492    183.8901    274.4902 307.8525081  +6.5673915     572.7384     788.3736     948.0555     78.18412     156.4919     311.9933      1.654     4.57     833.3668      54.9775     83.96973         6     1.180     0.503 -46.77   0
       493    299.5744    273.5854 307.8044690  +6.5716379      1354.99     1853.205     1449.637     77.93631     155.8105     311.8383      1.490     4.62     830.5393      54.9775     200.0649        13     1.200     0.694 -32.55   0
       494    147.0449    273.4044 307.8678548  +6.5666052     1753.603     2754.039     2851.553     77.56311     155.6864     311.5901      1.587     4.59     834.2822      54.9775     234.4647        17     1.511     0.682 -29.10   0
       495    556.7462    268.9621 307.6977605  +6.5821393     2199.013     3570.322     3291.258     78.06031     156.0587     311.9003      1.730     4.16      827.131      54.9775     298.7789        24     1.463     0.958 -33.88   0
       496    900.2452    268.1681 307.5550451  +6.5939095     1638.925     2700.539     3161.939     77.93631     156.0587     311.7452      1.777     5.14     829.8472      54.9775     209.0503        18     1.413     0.990 -28.71   0
       497    720.3268    266.5348 307.6298663  +6.5885954      5203.52     7673.174     7400.828     78.30773     155.9967     311.9003      1.578     4.54     829.9045      54.9775     767.3911        26     1.563     0.789 -33.13   0
       498    661.1812    266.4964 307.6544457  +6.5866402     2284.992     3270.971      3534.74     78.06031     155.8726     311.6832      1.525     4.28     828.2781      54.9775     359.3906        18     1.464     0.715 -34.47   0
       499    958.2599    266.0243 307.5310083  +6.5967229     702.7767     952.3351      1153.93     77.81211     155.9967     311.7762      1.375     4.94     829.4108      54.9775     137.0499         6     1.063     0.650 -27.90   0
       500    375.8315    260.9495 307.7732081  +6.5794035     743.9222     999.9382     873.6066     78.06031     156.0587     311.8383      1.365     4.21     828.8123      54.9775     122.2151         7     1.150     0.440 -32.43   0
       501    916.2037    258.7916 307.5487280  +6.5983102     1207.515     1844.514     2146.214     77.56311     155.6864     311.7452      1.683     4.74     829.2555      54.9775     170.7687        15     1.360     0.727 -30.11   0
       502    219.9085    251.7946 307.8383087  +6.5779649     2302.034     3393.719     3258.346     77.81211     155.6864     311.6832      1.588     4.54     832.6814      54.9775     326.5602        20     1.553     0.751 -38.33   0
       503    862.4861    250.7717 307.5713204  +6.5998339     1798.673     2705.921     2714.855     78.30773     155.6864     311.7452      1.597     4.44     829.2499      54.9775     309.4581        16     1.384     0.737 -30.98   0
       504    753.2740    250.0504 307.6167291  +6.5964965     1604.012     2395.901     2519.778     78.18412     156.0587     311.9313      1.677     4.22     829.6151      54.9775       271.67        15     1.387     0.681 -32.85   0
       505    241.9003    245.7231 307.8293755  +6.5812070     731.1996     1293.571     1272.187     77.81211     156.1206     311.9313      1.659     4.51      832.118      54.9775     115.1863         8     1.359     0.426 -22.81   0
       506    453.7554    241.7276 307.7414758  +6.5899412     23835.18     35913.79     37166.71     78.06032     156.0587     311.9313      1.631     4.47     826.8365      54.9775     3297.815        44     1.623     0.922 -31.48   2
       507    459.2648    236.3969 307.7393661  +6.5923253     1387.767     2036.683     2287.791     77.56311     155.7485     311.6832      1.500     5.68     826.6186      54.9775     191.3663        13     1.340     0.678 -27.85   3
       508    779.8599    240.7863 307.6059924  +6.6012054     13177.37     20127.85     21978.79     77.56311     155.9347     311.6211      1.654     5.39      829.185      54.9775     1886.527        42     1.721     0.896 -31.53   0
       509    314.9723    243.2759 307.7990940  +6.5846626     791.7436     1203.652     726.4734     78.06031     155.9967     311.8693      1.637     5.27     829.9899      54.9775     133.3813         8     1.183     0.663 -26.99   0
       510    718.8594    236.5210 307.6314854  +6.6009342      742.277     1199.375     1548.443     78.30773     155.9967     311.8383      1.615     4.53     828.5178      54.9775     101.5112         7     1.175     0.496  -3.34   0
       511    141.8711    235.1807 307.8712973  +6.5822075     2490.511     3679.637     4216.499     77.81211     155.8726     311.8383      1.624     4.65       833.96      54.9775     318.4369        19     1.372     0.833 -35.99   0
       512    116.6657    234.1170 307.8818069  +6.5818017      1040.16     1567.191     1858.818     78.30773     156.2445     311.9623      1.599     5.24     834.6201      54.9775     138.3849        11     1.451     0.534 -30.76   0
       513    772.4244    233.1724 307.6093382  +6.6041004     669.4755     1271.686     1713.062     77.68771     155.8105     311.7452      1.808     6.00     828.8027      54.9775     111.3723        11     1.750     0.579 -33.06   0
       514    168.9049    232.9346 307.8601399  +6.5840404     740.6873     1221.001     1389.028     78.18412     156.1206     311.9313      1.850     4.94     833.3357      54.9775     110.3578         8     1.067     0.648 -36.75   0
       515    916.2814    231.3140 307.5496179  +6.6096539     1550.619     2563.337     2978.989     77.93631     156.2445     311.9933      1.768     4.56     827.9669      54.9775     214.8933        17     1.402     0.852 -29.18   0
       516    577.8752    227.4354 307.6903789  +6.5999838     4877.404     7493.775     7763.306     78.06031     156.0587     311.9003      1.623     4.51      826.353      54.9775     703.0706        23     1.509     0.795 -31.83   0
       517    540.3539    227.5351 307.7059678  +6.5986905     2139.752     3121.167     2885.812     78.18412     155.9347     311.9003      1.577     4.74      826.205      54.9775     302.1144        19     1.471     0.792 -37.51   0
       518    298.1518    228.2033 307.8065926  +6.5903206     1090.023     1584.371     1139.243     77.56311     155.7485     311.4969      1.714     5.24     830.3942      54.9775     176.3831        13     1.358     0.657 -26.88   0
       519    382.3384    226.5743 307.7716641  +6.5938087     1683.514     2617.402     2495.138     77.81211     155.9347     311.8073      1.698     4.21     827.5942      54.9775      258.032        17     1.389     0.778 -32.74   0
       520    938.6877    224.3488 307.5405402  +6.6132735     2599.712     3812.723      3219.13     78.18412     155.8726     311.9933      1.518     4.17     827.7614      54.9775     340.7285        20     1.500     0.774 -39.17   0
       521    884.8434    223.9505 307.5629299  +6.6116477     11310.76     16930.79     17972.44     78.18412     155.9347     311.9003      1.589     4.63     827.6516      54.9775     1480.192        36     1.578     0.935 -35.23   0
       522    559.9590    223.8053 307.6979464  +6.6008842     1026.775     1596.888     1487.622     77.43831     155.6864     311.6211      1.647     5.82     826.2025      54.9775      144.197        14     1.475     0.703 -36.31   0
       523    312.5045    224.4134 307.8007564  +6.5923650     1068.914     1572.394     2020.379     77.93631     155.7485     311.7142      1.490     5.42     829.8421      54.9775     144.8077        11     1.299     0.639 -25.31   0
       524    203.7003    224.4793 307.8459670  +6.5886957      662.407     1008.159     818.3058     77.93631     156.2445     311.9313      1.608     5.06     832.9417      54.9775     91.88544         9     1.279     0.565 -31.76   0
       525    971.4897    221.7509 307.5269956  +6.6154360     9911.275     14978.25     15431.06     78.18412     155.8105     312.0553      1.672     4.49     828.0136      54.9775     1289.161        33     1.548     0.932 -32.49   0
       526    682.8433    221.8097 307.6469473  +6.6058060       3083.1      4434.48     4737.068     77.68771     155.8105     311.6521      1.509     4.02     827.0236      54.9775      449.346        19     1.409     0.735 -32.01   0
       527     10.9456    220.7852 307.9261878  +6.5837580     25222.81      39752.2     41641.12     77.56311     155.9347     311.6211      1.664     4.60     836.8463      54.9775     3282.215        50     1.675     1.000 -33.82  16
       528    257.2688    221.5191 307.8238071  +6.5917111      1130.36     1617.426     1648.142     78.43115     156.2445     311.9313      1.472     5.63     831.7281      54.9775     143.4661        12     1.412     0.633 -42.04   0
       529    491.6020    216.5313 307.7265979  +6.6016045     2099.742     3159.779     3734.436     77.56311     155.5621     311.7142      1.662     5.29     826.0236      54.9775     278.3878        19     1.593     0.784 -38.89   0
       530    875.7928    212.5974 307.5670723  +6.6160326     1926.713     2802.869     3470.833     77.56311     155.6864     311.7452      1.697     4.83      827.207      54.9775     271.7979        15     1.446     0.653 -39.68   0
       531    823.2814    213.5243 307.5888637  +6.6139029     2014.291         2863     2601.866     78.43115     156.2445     311.9933      1.565     4.77     827.7125      54.9775     333.0833        14     1.396     0.649 -31.84   0
       532    735.0411    209.9224 307.6256553  +6.6124515     40662.93      60541.3     62838.93     78.06031     155.9967     311.9623      1.570     4.57     827.7605      54.9775      5697.73        57     1.618     0.966 -36.68   0
       533    503.4612    212.8069 307.7217952  +6.6035377     2819.595       4289.6     4008.207     77.56311     155.8105     311.6521      1.630     4.17     825.9635      54.9775     405.6082        19     1.413     0.770 -27.54   0
       534    338.1088    209.5052 307.7906199  +6.5993746     5861.797     11965.23     12937.22     78.18412     156.4919     311.9003      2.156     7.52     828.8308      54.9775     679.0566        45     2.020     1.166 -59.41   0
       535    968.8018    208.6560 307.5285519  +6.6207515     2710.305     4132.123     4035.497     77.56311     155.6864     311.5901      1.668     5.51     827.4709      54.9775     386.9127        22     1.552     0.868 -45.04   0
       536    902.9567    207.0260 307.5559706  +6.6192355       7332.9     11327.47     11868.38     77.81211     155.9967     311.8383      1.599     4.71     827.0269      54.9775      943.597        32     1.565     0.894 -32.91   0
       537   1007.0338    207.5626 307.5127000  +6.6224729     1622.935     2501.003     2305.684     77.93631     155.8105     311.6832      1.540     4.61      827.726      54.9775     236.0949        15     1.343     0.729 -34.11   0
       538    446.4440    206.1661 307.7457132  +6.6043742     5234.299     7870.445     8332.327     77.81211     155.9967     311.7762      1.646     4.71     826.0954      54.9775     712.8389        26     1.540     0.828 -35.34   0
       539    220.6313    203.0362 307.8396562  +6.5981128     845.2873     1192.558     1300.954      77.8121     155.7485     311.6521      1.425     4.90     832.7773      54.9775     149.2999         8     1.084     0.628 -32.62   0
       540    103.7336    197.6200 307.8884155  +6.5964311     4884.973     7510.948     7442.866     77.81211     155.9967     311.8073      1.646     4.53      834.559      54.9775     707.2886        25     1.589     0.797 -33.78   0
       541    923.0000    196.6200 307.5479902  +6.6241969     857.4607     1289.305     2039.553     77.68771     155.4999      311.559      1.951     4.94     826.7292      54.9775     143.6817        12     1.467     0.566 -24.65   0
       542    274.0945    194.2684 307.8177357  +6.6035213     34471.48     52824.78     55481.01     78.06031     156.1826     311.9313      1.625     4.40     831.1848      54.9775     4989.048        53     1.632     0.977 -31.41   0
       543    600.1947    196.0659 307.6821600  +6.6136756     636.4429     999.2516     954.2351     77.68771     155.6864     311.7142      1.222     3.54     826.0634      54.9775     131.4181         5     1.142     0.317 -25.12   0
       544    249.4502    195.2622 307.8279432  +6.6022862     6784.062     10400.25     10738.53     78.18412     155.9347     311.9623      1.659     4.43     831.9839      54.9775      959.678        27     1.514     0.869 -30.54   0
       545    703.2982    193.4007 307.6394025  +6.6182131     836.0198     1228.255     1982.941     77.68771     155.6242     311.5901      1.788     4.48      826.673      54.9775     146.7841         8     1.235     0.462 -21.86   0
       546    398.1902    189.7031 307.7663209  +6.6095563     50908.26     77537.32     80344.13     77.93631     155.6242     311.7142      1.619     4.67     826.7073      54.9775     7021.943        62     1.648     0.989 -34.24   0
       547    154.0587    190.9741 307.8677280  +6.6008609     4049.544     6341.032      6237.82     77.81211     155.9967     311.7452      1.589     4.53     833.2545      54.9775     546.3024        22     1.525     0.790 -33.07   0
       548    415.5654    190.3953 307.7590770  +6.6098514      1529.07      2213.33     1903.595     77.43831     155.8726     311.6832      1.596     5.68     826.1711      54.9775     224.0847        14     1.254     0.726 -29.09   0
       549    302.1846    187.4310 307.8062937  +6.6072833     18443.01     28409.65     29241.47     77.81211     155.7485     311.8383      1.638     4.80     830.1592      54.9775     2636.924        42     1.633     0.931 -33.46   2
       550    309.5789    187.4482 307.8032204  +6.6075236      2085.09     3620.035     4895.932     77.81211     155.9967     311.7452      2.153     4.64     829.8231      54.9775     277.3154        21     1.574     0.805 -33.19   3
       551    685.5439    187.7528 307.6469707  +6.6199525     1008.842     1637.216     1649.769     78.18412     155.9967     311.9933      1.762     5.00     826.3541      54.9775     143.3124        10     1.258     0.563 -33.45   0
       552    785.5681    186.3595 307.6054494  +6.6238595     1182.141     1941.543     2393.507     77.81211     155.8105     311.7762      2.023     5.36      826.803      54.9775     168.3363        14     1.400     0.742 -27.15   0
       553     24.9064    186.2628 307.9215557  +6.5984745     712.6626     1053.526     1033.713     78.18412     155.9967     311.9623      1.517     4.01     837.3267      54.9775     116.3387         6     0.815     0.564 -33.85   0
       554     54.2160    183.2538 307.9094783  +6.6006997     9147.084     14207.22     14764.64     77.56311     155.9967     311.6211      1.656     4.61     836.2614      54.9775     1248.012        35     1.611     0.932 -31.13   0
       555    561.2194    184.1609 307.6987579  +6.6172888     546.9293     596.6311     891.6639     77.81211     155.8105     311.6211      1.312     4.37     825.6417      54.9775     84.69995         5     0.767     0.709 -46.35   0
       556    737.4523    185.8326 307.6254632  +6.6224746     34531.45     50385.69     51922.71     78.06031     155.9967     311.8073      1.600     4.67      826.803      54.9775     4597.778        48     1.592     0.912 -34.35   0
       557     88.3527    181.1915 307.8953628  +6.6026957     1473.613     2321.436     2237.652     77.68771     155.8726      311.559      1.653     4.35     834.9214      54.9775     223.1773        14     1.379     0.724 -41.68   0
       558    995.6671    180.4525 307.5183330  +6.6332848     1104.583     1604.519     1697.351     78.06032     155.9347     311.8073      1.689     6.47     826.3901      54.9775     156.4505        14     1.529     0.769 -31.46   0
       559    571.4576    170.5436 307.6949619  +6.6232508      1055.26     1391.871      1596.14     78.30773     156.0587     311.9313      1.615     4.98     825.5363      54.9775     149.4365        13     1.238     0.746 -23.12   0
       560    996.6811    166.2356 307.5183884  +6.6391863      2184.63     3255.494     4184.522     78.06032     156.0587     311.9003      1.617     4.40     825.7657      54.9775     302.1503        17     1.334     0.750 -32.54   0
       561    579.7281    164.2405 307.6917371  +6.6261282      1198.17     1852.376     1646.918     78.06032     155.9967     311.9623      1.675     4.34     825.5153      54.9775     182.0276        12     1.159     0.771 -38.33   0
       562    272.9012    160.5623 307.8193703  +6.6173927     31394.02     48021.43     50661.38     78.18412     155.8726     312.1173      1.651     4.67     831.2168      54.9775     4566.319        63     1.889     0.959 -29.13   0
       563    588.2487    162.1494 307.6882665  +6.6272756     2092.892     2916.511     2856.805     78.18412     155.8726     311.8383      1.552     5.46      825.556      54.9775      298.309        17     1.385     0.766 -33.60   0
       564    332.1824    162.3591 307.7946743  +6.6186347     1077.393     1633.641     2160.882     77.68771     155.8105     311.7142      1.471     5.45     828.7231      54.9775     156.1243        13     1.419     0.602 -31.87   0
       565     18.3242    158.9872 307.9252146  +6.6095106     4571.981     6998.003     7081.958     77.81211     155.6864     311.7142      1.640     4.49     838.1921      54.9775     594.7073        23     1.525     0.819 -32.97   0
       566    182.1537    158.2515 307.8571596  +6.6153075     891.4084     1477.663     1222.661     78.30773     155.8726     311.9623      1.548     5.78     832.7485      54.9775     158.3367        13     1.476     0.637 -24.37   0
       567    704.7050    156.9954 307.6400424  +6.6332857     8472.029      12117.4     12659.24     77.93631     155.6864     311.6832      1.535     5.06     825.6104      54.9775     1123.255        27     1.501     0.818 -34.15   0
       568    258.9165    155.4498 307.8253546  +6.6190346     827.4078     1195.057     1068.047     78.18412     155.9967     311.9623      1.522     5.89     831.6395      54.9775      119.791        12     1.435     0.680 -37.24   0
       569    115.3781    154.1982 307.8850458  +6.6147425     4915.425     7482.209     7652.042     77.81211     155.6864     311.6211      1.644     4.60      833.681      54.9775     680.8694        22     1.577     0.762 -34.07   0
       570    386.0606    150.2546 307.7726927  +6.6254323     3909.554     6803.887     6922.544     78.30773     155.9347     311.8693      1.854     4.39     826.8253      54.9775     491.3912        32     1.541     1.148 -44.53   0
       571    577.4484    152.2420 307.6930886  +6.6310043     825.6271     1283.648     1298.436     78.18412     155.9347     311.8383      1.599     4.40      825.154      54.9775     131.6378         7     1.187     0.464 -40.54   0
       572    454.1475    151.4852 307.7443558  +6.6271999     1326.415      1835.22     1990.815     78.18412     155.9347     312.0553      1.482     5.10     825.2659      54.9775     208.1346        12     1.447     0.555 -32.37   0
       573    642.9315    151.0694 307.6659142  +6.6336725     809.6344     1338.081     1259.236     78.18412     156.1206     311.8693      1.858     4.89     825.3708      54.9775      144.281         8     1.378     0.490 -30.08   0
       574    350.5182    149.1189 307.7875015  +6.6247126     3471.459     5239.313       5462.2     78.18412     156.2445     311.9933      1.617     4.54     828.2569      54.9775     483.4698        24     1.532     0.818 -34.92   0
       575    563.0957    149.1408 307.6991579  +6.6318053     646.6456     1115.681      1601.31     78.06031     155.9967     311.9933      2.107     5.25     824.9584      54.9775     93.40009        10     1.675     0.465 -43.27   0
       576    104.9773    149.1312 307.8895394  +6.6164850     1723.066     2643.155     2846.029     77.81211     155.9347     311.8693      1.638     4.49     833.7135      54.9775     235.1307        17     1.453     0.801 -25.43   0
       577    666.5452    146.7740 307.6562451  +6.6362326     725.9265     1070.242     924.4407     77.81211     156.0587     311.7452      1.541     5.20      825.235      54.9775     103.3089        10     1.282     0.596 -33.71   0
       578    997.4073    143.1128 307.5188622  +6.6487542     1408.726     1965.354     1688.091     77.68771     155.6864     311.6521      1.511     5.19      824.551      54.9775     188.5488        14     1.389     0.663 -30.58   0
       579    202.4065    138.0295 307.8494270  +6.6243320     5698.037      8537.43     8495.867     77.68771     155.7485     311.6832      1.590     4.56     832.3414      54.9775     787.4293        26     1.566     0.812 -35.23   0
       580     85.0332    137.9478 307.8982058  +6.6204318     2084.857     3225.994     3775.816     78.06031     155.9967     311.8073      1.795     5.62     834.1081      54.9775     246.5723        18     1.457     0.808 -31.12   0
       581    664.1667    136.7760 307.6575701  +6.6402798     6439.101     9643.895     9908.786     77.68771     155.8105     311.7142      1.587     4.51     824.8573      54.9775     908.6911        29     1.545     0.857 -31.18   0
       582    841.5535    137.4780 307.5838248  +6.6458981     434.8624     680.5821     1253.843     78.06032     156.0587     311.9003      1.451     5.18     824.3434      54.9775     97.35303         7     1.561     0.486 -19.95   0
       583    812.2335    136.5595 307.5960411  +6.6453014     1133.082     1453.075     1051.665     77.93631     155.9347     311.7452      1.490     4.84     824.6353      54.9775     211.4152        11     1.326     0.590 -29.33   0
       584    616.3793    133.9839 307.6775242  +6.6398387     9752.419     14539.43     15251.92     77.93631     155.8105     311.8073      1.598     5.09     824.7244      54.9775     1341.841        38     1.591     0.991 -34.18   0
       585    251.4918    134.2614 307.8291560  +6.6275310     834.8626     1230.235     1626.284     78.06031     156.0587     311.9933      1.577     4.91     831.7434      54.9775     124.5418         9     1.386     0.493 -34.42   0
       586    554.5994    132.8182 307.7032387  +6.6382586     668.4785     1138.007     1586.458     77.81211     155.5621     311.5901      2.170     6.45     824.4193      54.9775     92.46594        10     1.419     0.822 -69.59   0
       587     15.0303    133.1633 307.9274580  +6.6200580     889.4682     1325.232     875.4464     77.81211     155.7485     311.7452      1.561     4.85     837.8498      54.9775     154.7994        10     1.486     0.601 -37.91   0
       588    343.5544    129.8034 307.7910475  +6.6324516     3884.217     6455.644     7278.892     77.56311     155.6864      311.559      1.845     5.07     829.1402      54.9775     545.8105        33     1.851     0.915 -41.31   0
       589    525.3356    129.1765 307.7155232  +6.6387848     1745.276     2617.668     2450.142     77.81211     155.9967     311.8073      1.581     5.05      824.373      54.9775     265.2151        15     1.480     0.654 -39.51   0
       590    989.5876    128.7531 307.5225938  +6.6544212     832.3871     1166.214     1199.652     77.56311     155.8105     311.6211      1.671     5.25     823.7845      54.9775     125.0232        10     1.373     0.567 -45.84   0
       591    619.9093    125.5713 307.6763404  +6.6434286     55370.49     82026.91     85273.56     78.30773     155.7485     311.8073      1.596     4.53     824.4293      54.9775     8305.186        58     1.598     0.974 -33.34   0
       592    299.0973    119.3399 307.8098764  +6.6352828     3668.626     5596.313      5748.73     77.93631     155.9967     311.9933      1.589     4.23     830.6528      54.9775     587.9907        23     1.492     0.814 -33.32   0
       593    494.6940    116.3474 307.7286900  +6.6430566     560.5239     979.5585     994.4504     78.06032     155.8726     312.1483      1.762     4.31      824.295      54.9775     79.83386         7     1.179     0.449 -28.45   0
       594    698.6151    114.0119 307.6440193  +6.6508235     983.8233      1445.58      1329.09     78.06031     155.6864     311.8383      1.532     5.75     823.9462      54.9775     146.7571        11     1.420     0.656 -38.24   0
       595      2.5234    101.3193 307.9337340  +6.6327806     13492.81     29323.26     41754.46     78.43115     140.3984     253.3455      3.112     8.79      838.015      54.9775     2939.667       172     4.534     1.898 -88.37  24
       596    670.2435    112.6185 307.6558575  +6.6504530     1256.335     2062.917     2242.516     77.68771     155.8726     311.6832      1.652     4.96     823.9561      54.9775     186.3936        14     1.518     0.655 -36.97   0
       597    684.3516    109.4529 307.6501007  +6.6522298     3325.625     4809.913     4931.433     78.30773     155.9347     311.9003      1.572     4.13     823.7833      54.9775     498.0813        19     1.399     0.738 -32.80   0
       598     56.1081    108.0054 307.9112396  +6.6318193     570.2379     779.2396     399.0591     77.81211     155.6864     311.6832      1.510     3.93     834.8216      54.9775     96.23218         5     1.289     0.344 -25.18   0
       599    793.5745    101.8734 307.6049616  +6.6589965     421.4983     515.9097     731.3222     77.81211     155.8726     311.8383      1.320     4.35     823.2651      54.9775     88.27094         5     0.987     0.546 -43.39   0
       600    425.9853    100.5738 307.7577768  +6.6472714     4310.636     6703.291     7244.053     77.93631     155.8105     311.8383      1.644     4.40     824.3229      54.9775     649.7087        27     1.539     0.866 -28.02   0
       601    880.5364     96.6891 307.5689932  +6.6640300     2247.524     3400.163     3971.556     78.06032     156.1206     311.9313      1.699     4.95     822.4868      54.9775     291.6464        19     1.422     0.795 -34.42   0
       602    898.5715     95.8777 307.5615247  +6.6649648     4040.528     6330.203     6413.756     78.06031     155.9347     311.9003      1.674     4.44     822.3248      54.9775      516.574        25     1.535     0.843 -35.49   0
       603    578.4404     96.4346 307.6945561  +6.6540708     690.2783     1125.085     1389.059     77.93631     155.9967     311.7142      1.792     4.66     823.3127      54.9775     100.1931         8     1.479     0.417 -31.39   0
       604    590.7513     94.5609 307.6895027  +6.6552549     1701.655     2668.811     2589.827     78.06031     156.0587     311.7452      1.609     4.66     823.2887      54.9775     242.5163        17     1.455     0.697 -26.10   0
       605    610.7032     94.1212 307.6812254  +6.6561020      540.832     668.3828      410.799     77.93631     156.2445     311.9933      1.258     3.57     823.2637      54.9775     117.0353         6     1.131     0.353 -27.02   0
       606    236.1938     94.2174 307.8368667  +6.6435458     803.3625     1335.674     1662.309     77.81211     155.7485     311.7452      1.712     4.56       831.66      54.9775     112.2238         8     0.976     0.606  -9.20   0
       607     79.8737     94.1723 307.9018316  +6.6383256     438.2812     709.4873     597.9644     78.06031     155.9347     311.8383      1.226     3.78     832.7642      54.9775     83.44788         5     1.297     0.317 -31.18   0
       608    389.4648     92.4447 307.7732288  +6.6494057     2049.225     3017.004     2604.743     78.18412     155.9347     311.9003      1.647     4.57     826.7958      54.9775      289.596        20     1.487     0.819 -32.79   0
       609     19.1842     87.3021 307.9272851  +6.6391249     12603.33     19754.55     21034.93     78.18412     155.7485     311.7142      1.656     4.44     836.0364      54.9775     1741.716        44     1.611     1.065 -31.93   0
       610    137.2407     89.4224 307.8781520  +6.6422095      3346.39     4905.599     5131.878     77.81211     155.8105     311.6832      1.573     4.57     830.9995      54.9775     475.1949        21     1.489     0.785 -32.19   0
       611    285.7685     87.6595 307.8164857  +6.6479120     1328.725     1911.035     2502.544     77.93631     156.0587     311.8693      1.569     5.57     831.0526      54.9775     197.2972        13     1.364     0.640 -38.18   0
       612    939.5945     86.0731 307.5448038  +6.6703755     629.8735     936.4355     563.4557      77.8121     155.5621     311.8073      1.628     4.77     821.8914      54.9775     93.99872         6     1.125     0.574 -55.05   0
       613    558.7657     86.7618 307.7030588  +6.6574065     621.1152     968.2656     549.4975     77.93631     155.8105     311.6832      1.531     6.60     823.0691      54.9775     94.45929        11     1.481     0.826 -11.06   0
       614    546.5073     86.6033 307.7081588  +6.6570628     891.6572     1303.321     1356.381     77.81211     155.6864     311.6521      1.635     4.44     823.0724      54.9775     164.0952         9     1.245     0.481 -36.87   0
       615    977.1724     85.2299 307.5292138  +6.6719724     485.9691     1065.632     989.8316     77.68771     155.7485     311.6832      1.788     4.50     821.6851      54.9775     88.44025         5     1.279     0.450 -28.73   0
       616    820.9459     81.6556 307.5942651  +6.6682522     6254.718     9385.602     9939.438     78.43114     155.9347     311.9003      1.584     4.59     822.5261      54.9775     924.5626        27     1.504     0.870 -33.41   0
       617    766.1159     82.0635 307.6170398  +6.6662584     3377.143      5012.32      5153.35     78.30773     156.1206     311.8693      1.586     4.47     822.6785      54.9775     475.2261        22     1.466     0.805 -30.45   0
       618    411.2974     82.4704 307.7644918  +6.6542522     1052.549      1506.57     1520.328     78.06032     156.1826     311.9313      1.455     4.42     824.7696      54.9775     160.7038        12     1.300     0.638 -33.55   0
       619    912.3080     81.6105 307.5562945  +6.6713102     645.6619     928.3692     998.8398     77.93631     155.6242     311.6832      1.370     4.40     822.0103      54.9775     104.3439         7     0.999     0.552 -57.43   0
       620    528.1140     80.4860 307.7160094  +6.6589736     1157.989       1766.2     1874.739     77.93631     156.1206     311.9313      1.614     5.69     823.0736      54.9775      171.314        13     1.591     0.574 -36.59   0
       621    752.6562     81.5685 307.6226504  +6.6660144     548.3701     971.2955     1683.997     78.06032     155.9967     311.8383      1.394     3.43     822.7051      54.9775     96.92694         5     1.093     0.311 -21.61   0
       622     59.5289     79.0211 307.9107993  +6.6438963      3266.71     4742.812     4733.152     77.81211     155.8726     311.8693      1.534     4.32     833.0246      54.9775     415.3687        22     1.553     0.790 -34.31   0
       623     43.9601     79.9109 307.9172392  +6.6430067     1091.943     1526.764      1309.64     78.18412     155.9347     311.9313      1.477     4.91     834.0026      54.9775     162.9592        11     1.304     0.591 -32.76   0
       624    648.0142     79.6019 307.6662074  +6.6633389     594.0847     914.6268     1441.417     77.81211     155.6864     311.7142      1.651     3.34     822.8154      54.9775     109.2935         5     1.419     0.227 -18.03   0
       625    420.4680     78.6212 307.7608103  +6.6561474      1063.58     1587.606     2267.225     77.81211     155.9347     311.8383      1.541     4.48     824.1722      54.9775     156.6077        11     1.253     0.632 -37.32   0
       626    583.4479     75.5000 307.6931801  +6.6628783      1473.34     1924.448     1794.412     78.18412     155.8726     312.1173      1.574     4.94     822.7264      54.9775     222.9451        15     1.316     0.793 -39.04   0
       627      2.1700     74.4052 307.9347926  +6.6438765     2785.262     3912.864     4741.351     76.17906     135.5616     247.7479      1.554     4.04     835.8193      54.9775     438.7402        18     1.213     0.869 -56.31  24
       628     74.1205     70.5115 307.9050235  +6.6478978     745.4453     1208.238     1479.381     77.93631     156.2445     312.0243      1.710     5.38     831.7486      54.9775     119.6682        11     1.571     0.520 -32.76   0
       629    760.4466     69.5915 307.6198154  +6.6712172     2011.473     3119.981     3252.413     77.68771     155.9347      311.559      1.727     5.18     822.3346      54.9775      278.149        18     1.525     0.720 -29.26   0
       630    401.4777     69.7849 307.7690009  +6.6591596     1215.363     1805.929     1893.646     77.81211     155.6864     311.7452      1.662     4.56      825.702      54.9775     186.1342        13     1.367     0.755 -30.07   0
       631     98.1110     68.5600 307.8951195  +6.6495078     962.3103       1378.1     1950.203     78.18412     155.9347     311.9313      1.529     4.92     830.4335      54.9775     135.7012        10     1.241     0.641 -28.79   0
       632     87.2298     63.3881 307.8998166  +6.6512774     9534.525     15200.28     15974.75     77.68771     155.7485     311.7762      1.697     4.80     830.6294      54.9775     1301.027        38     1.612     0.999 -35.44   0
       633    416.3742     63.0884 307.7630358  +6.6624214     2713.378     4231.875     4362.092     78.30773     155.8105     311.7452      1.635     4.43     824.2592      54.9775     359.5391        23     1.607     0.771 -32.55   0
       634    237.7856     62.8226 307.8372663  +6.6565563     596.8195     963.2556     1141.813     77.93631     155.8105     311.8073      1.597     4.30     831.3228      54.9775     103.2195         7     1.054     0.500 -23.76   0
       635    630.0351     55.2829 307.6744985  +6.6727765     18975.34     28434.39     29271.13     78.18412     155.9967     311.8383      1.588     4.49     822.0598      54.9775     2856.787        41     1.581     0.913 -35.26   0
       636    253.9760     57.5792 307.8307148  +6.6592625     1544.104     2410.087     3326.379     77.81211     155.8105     311.8693      1.871     6.05     831.1931      54.9775     194.1435        15     1.395     0.739 -35.14   0
       637    529.8535     51.3669 307.7162678  +6.6710499     5408.503     7938.092     7867.084     78.06031     155.9347     311.8693      1.570     4.28     822.2816      54.9775     773.8224        25     1.494     0.803 -34.01   0
       638    248.0361     51.7098 307.8333818  +6.6614860     1982.877     3109.884     4090.705     78.30773     155.9347     311.9313      1.735     4.40     831.1741      54.9775     255.4496        21     1.481     0.877 -36.18   1
       639    766.1199     50.0540 307.6181143  +6.6794699     506.9786     578.0477     719.2805     78.18412     155.9967     311.9623      1.374     3.97     821.7338      54.9775     73.81653         6     0.971     0.465 -52.27   0
       640    617.5339     49.1904 307.6798994  +6.6748741     923.7877     1501.667     2143.475     77.68771     155.8105     311.8073      1.691     5.79      821.902      54.9775     138.4225        13     1.599     0.657 -27.87   2
       641    616.2619     45.1030 307.6805658  +6.6765187     3320.711     5154.967     5761.948     77.93631     156.0587     311.9623      1.621     4.74     821.7859      54.9775     468.6398        21     1.489     0.781 -34.21   2
       642    435.3776     47.0020 307.7556805  +6.6696958     23721.15     35530.82     37166.41     77.81211     155.6864     311.6521      1.607     4.60     823.6814      54.9775     3209.607        49     1.609     0.972 -33.44   0
       643    255.9079     47.4469 307.8302543  +6.6635089     9358.277     14679.83     15784.15     78.18412     155.9347     312.0243      1.676     4.63     831.1114      54.9775     1345.508        38     1.599     0.974 -34.36   0
       644    913.2151     47.1420 307.5570747  +6.6855667     1946.286     3034.456      3104.56     77.56311     155.9347     311.6521      1.579     4.48     821.4807      54.9775     277.5968        17     1.389     0.755 -28.74   0
       645    315.7275     47.8710 307.8053788  +6.6653361     1059.418     1596.119     1584.225     78.43114     156.1206     311.8693      1.628     4.57     830.7776      54.9775     180.2509        11     1.355     0.678 -15.68   0
       646     21.3691     47.0599 307.9277402  +6.6558066     2367.362     3570.557       3692.7     77.93631     155.9967     311.8693      1.594     4.37     832.4615      54.9775     323.9103        22     1.463     0.855 -31.50   0
       647    547.7353     47.1304 307.7089786  +6.6733953     593.5334     885.6667     1025.428     78.18412     156.0587     311.9003      1.488     4.93     822.0499      54.9775     101.0846         6     1.128     0.609 -21.64   0
       648    520.8212     46.9310 307.7201712  +6.6725792     770.6942     1259.963     1091.145     77.81211     155.9347     311.8073      1.765     4.31     822.2449      54.9775     114.4846         7     1.165     0.454 -32.17   0
       649    243.8055     44.0049 307.8354005  +6.6645243     3144.116      4747.31     5162.649     77.56311     155.7485     311.7762      1.609     4.62     831.1179      54.9775     403.6873        22     1.532     0.812 -36.91   0
       650    297.0883     42.3237 307.8133127  +6.6670019     1055.605     1842.916      2138.59     78.18412     156.3064     311.9933      1.883     6.20     830.9542      54.9775     143.9498        14     1.436     0.802 -22.66   0
       651    934.0551     36.9898 307.5487537  +6.6904498     874.8728      1102.49     691.0079     77.56311     155.9346     311.5901      1.527     4.60      821.157      54.9775     135.3935         9     1.275     0.471 -30.36   0
       652    685.1796     36.5734 307.6522089  +6.6823371     2077.023      3097.87      3185.43     77.81211     155.8105     311.8073      1.602     4.25     821.3826      54.9775     300.9373        17     1.390     0.765 -35.18   0
       653     89.9538     37.1429 307.8995729  +6.6622005     650.5596     813.0273     286.8893     78.18412     155.9967     312.0243      1.450     3.93     829.1043      54.9775     94.30646         6     0.916     0.483 -36.74   0
       654    196.0490     32.3917 307.8556407  +6.6677177     757.9406     959.0073     923.4052     77.68771     155.8105     311.5901      1.423     5.03     829.9235      54.9775     123.0289         8     1.109     0.645 -30.30   0
       655    251.4456     30.8081 307.8326712  +6.6702267     688.5685      867.429     1428.984     77.68771     155.8726     311.5901      1.800     4.54     831.0048      54.9775     106.6758         9     1.066     0.777 -78.81   0
       656    173.4579     29.5714 307.8651250  +6.6681248     10983.91     16891.92     17453.75     77.81211     156.0587     311.8073      1.682     4.52     828.9986      54.9775     1416.785        39     1.650     0.950 -32.37   0
       657    517.6149     27.6150 307.7221549  +6.6804443     3131.721     4654.688     5047.438     77.93631     155.6864     311.8383      1.636     4.53     821.7441      54.9775     408.5832        20     1.468     0.797 -30.23   0
       658    918.9482     27.0531 307.5553663  +6.6940487     4207.833       6304.9     6474.994     78.30773     155.8726     311.9313      1.569     4.14     821.1597      54.9775     581.7994        23     1.436     0.832 -32.07   0
       659    455.8332     26.0818 307.7478845  +6.6790135      1818.74     2681.516     2600.479     78.06031     155.9347     311.8693      1.562     4.60     822.7541      54.9775     253.1756        16     1.389     0.716 -32.52   0
       660    720.0622     25.6799 307.6380771  +6.6879956     1889.278     2675.192     2536.335     78.30773     156.0587     311.8693      1.478     4.97     821.0365      54.9775     319.2976        15     1.423     0.695 -29.59   0
       661    983.8934     23.2654 307.5284994  +6.6977707     1837.895     3066.536     2954.392     78.18412     156.1826     311.9313      1.735     4.68     819.6617      54.9775     258.0957        21     1.549     0.833 -40.08   0
       662    745.0522   1010.7876 307.5945858  +6.2822348     6691.762     12429.46     13454.68     77.56311     155.9347     311.6211      1.945     4.64     851.5872      54.9775     802.2283        40     1.746     1.140 -39.79   0
       663    623.4384     19.1335 307.6784575  +6.6874764       4132.4     5889.925     6155.915     78.06031     155.9347     311.9933      1.580     5.25     820.9766      54.9775      560.697        24     1.494     0.815 -31.96   0
       664    325.4684     18.9090 307.8023085  +6.6776153     1041.275     1427.823      1661.57     78.18412     156.1206     311.9003      1.614     5.47       830.83      54.9775     144.1768        12     1.339     0.630 -32.56   0
       665    378.7202     17.8259 307.7802127  +6.6798434      711.884     1062.953      795.421     78.06031     155.8105     311.9003      1.546     4.36     827.9923      54.9775     107.6204         7     1.079     0.501 -20.09   0
       666    540.5392   1011.4389 307.6794984  +6.2751509     3802.135     6421.418     7370.385     78.18412     156.0587     311.9313      1.903     4.38     854.2457      54.9775     449.7419        31     1.601     1.059 -42.99   0
       667    510.7927   1012.6641 307.6918108  +6.2736528     1043.883     1685.469     1552.662     77.68771     155.6864     311.7452      1.872     4.86     854.2847      54.9775     141.4299        13     1.276     0.683 -35.69   0
       668    290.7734   1010.1884 307.7832658  +6.2673253     13617.97     23401.86     25878.27     77.81211     155.8105     311.8383      1.863     4.61     852.6295      54.9775      1715.19        54     1.977     1.070 -34.97   0
       669    415.0035   1010.6844 307.7316580  +6.2712722     991.5137     1655.349     1782.279     77.68771     155.6242     311.6211      1.749     5.07     853.1995      54.9775      147.446         9     1.153     0.631 -24.96   0
       670    805.6634   1010.1859 307.5694338  +6.2845004     864.1827     1377.473     1508.399     77.68771     155.8105     311.7452      1.552     4.83     850.2643      54.9775     127.1185         9     1.132     0.583 -25.35   0
       671    261.9262   1007.7027 307.7953294  +6.2673865     762.7157     1212.497     1371.611     77.81211     156.1826     311.9003      1.857     6.55     852.2237      54.9775      113.127        10     1.563     0.770 -44.28   0
       672    906.3568   1004.1672 307.5278165  +6.2903330     6877.348     13164.17     14215.27     77.81211     155.9347     311.7452      2.005     4.60     849.8898      54.9775     778.8531        44     1.751     1.274 -35.01   0
       673    537.7495   1003.6300 307.6809197  +6.2782809     7623.998     12747.66     13652.93     77.81211     156.1206     311.8073      1.788     4.42     854.1093      54.9775     968.3306        38     1.677     1.028 -34.09   0
       674   1001.7299    999.8672 307.4883506  +6.2952762     3643.493     7258.433     6975.408     78.18412     156.1206     311.9003      2.030     4.82     845.8585      54.9775     419.7051        41     1.724     1.362 -39.29   0
       675    879.9486   1000.3939 307.5389107  +6.2910125     10072.87     19423.96     20699.12     77.68771     155.8105      311.559      2.017     4.69     849.8492      54.9775     1090.954        53     1.829     1.318 -29.84   0
       676    592.8384   1000.9203 307.6581324  +6.2812364     1250.059     2061.445     2082.073     78.06031     156.0587     311.8693      1.692     5.76     853.7364      54.9775     169.5885        14     1.281     0.806 -34.95   0
       677    524.0307    999.4697 307.6867571  +6.2795403     3698.871     6572.449     6979.521     78.06031     155.9967     311.8693      1.893     4.76     854.0118      54.9775     469.7961        31     1.748     1.028 -30.18   2
       678    529.0394   1000.6600 307.6846370  +6.2792161     497.8267     588.2539         1529     78.18412     155.9967     311.9623      1.307     3.61     854.0508      54.9775     98.53156         5     1.237     0.304 -37.32   2
       679    633.6356    998.6929 307.6412641  +6.2835157     1233.451     2152.009     2003.174     78.30773     155.8726     311.9933      1.820     5.22     853.3281      54.9775     161.3934        17     1.641     0.794 -32.04   0
       680     59.5109    997.0000 307.8797493  +6.2650266     690.9089     1389.218     1840.607     77.43831     155.4999      311.559      2.135     4.24     848.2938      54.9775     94.63135         6     0.957     0.535  -2.07   2
       681    477.2649    996.1053 307.7062922  +6.2793683     2126.837     3710.318     3594.863     78.06031     156.1206     311.9313      1.827     5.06     853.8964      54.9775     237.8026        22     1.543     0.895 -32.95   0
       682    911.7563    987.9258 307.5261185  +6.2972160     35453.12     67145.84     72176.36     78.06031     156.0587     311.9313      2.014     4.62     849.4384      54.9775     3966.218        73     1.871     1.362 -37.25   0
       683    317.7258    989.4916 307.7727708  +6.2767686     539.1026     901.4724     1561.465     78.18412     156.1206     311.9313      2.067     5.65     852.5898      54.9775     85.13239         5     1.220     0.736 -47.01   0
       684    218.9123    986.4301 307.8139103  +6.2747272     1705.314     2837.614     3197.053     78.30773     155.8105     311.8073      1.773     5.87     851.1193      54.9775     220.3427        21     1.724     0.836 -41.13   0
       685    107.4108    985.8394 307.8602349  +6.2712378      508.897     1033.978     1132.586     77.56311     155.8105     311.6521      2.482     6.64      848.758      54.9775      84.8728         8     2.156     0.575 -48.04   0
