#   1 NUMBER                 Running object number                                     
#   2 X_IMAGE                Object position along x                                    [pixel]
#   3 Y_IMAGE                Object position along y                                    [pixel]
#   4 ALPHA_J2000            Right ascension of barycenter (J2000)                      [deg]
#   5 DELTA_J2000            Declination of barycenter (J2000)                          [deg]
#   6 FLUX_APER              Flux vector within fixed circular aperture(s)              [count]
#   9 FLUXERR_APER           RMS error vector for aperture flux(es)                     [count]
#  12 FLUX_RADIUS            Fraction-of-light radii                                    [pixel]
#  13 FWHM_IMAGE             FWHM assuming a gaussian core                              [pixel]
#  14 BACKGROUND             Background at centroid position                            [count]
#  15 THRESHOLD              Detection threshold above background                       [count]
#  16 FLUX_MAX               Peak flux above background                                 [count]
#  17 ISOAREA_IMAGE          Isophotal area above Analysis threshold                    [pixel**2]
#  18 A_IMAGE                Profile RMS along major axis                               [pixel]
#  19 B_IMAGE                Profile RMS along minor axis                               [pixel]
#  20 THETA_IMAGE            Position angle (CCW/x)                                     [deg]
#  21 FLAGS                  Extraction flags                                          
         1    680.8564     24.7929 307.6504220  +6.6519026     1598.133     3749.277     4100.123     90.83334      182.248     364.3872      2.356     7.30     1167.564     64.28031     189.7628        30     1.747     1.363  65.98   0
         2      2.1641     17.2222 307.9332072  +6.6322260     2960.956     6473.154     10895.39     89.06941     158.3333     289.5783      4.092    10.40     1202.596     64.28031     451.2932        67     3.890     1.410 -89.52  24
         3    422.9843     15.8031 307.7580774  +6.6469694     1620.951     5343.509     6344.687     90.97879     181.9576      364.496      2.787     8.38     1175.923     64.28031     238.6992        48     1.986     1.800  37.60   0
         4    895.1072     10.9177 307.5616946  +6.6647971     2377.628     5307.407     5813.288     91.12401     182.7552     364.7861      2.290     5.69     1160.347     64.28031     299.1415        38     1.743     1.453  75.94  16
         5    877.2354     11.8662 307.5691031  +6.6638084     1299.313     2654.593     3085.783     91.26899     182.3931     364.7498      2.253     7.75     1160.365     64.28031     174.9857        20     1.479     1.179   1.23   0
         6    588.9555     11.2759 307.6891370  +6.6544057     691.4696     1640.037     2298.047     91.26899     182.4655     364.7136      2.468     6.40      1168.52     64.28031     110.3979         9     1.446     0.796 -67.01   2
         7    385.7463      9.7577 307.7737839  +6.6482154     803.9576     1750.753     2407.124     91.41375     182.3931     364.6773      2.138     4.42     1180.768     64.28031     105.8391         7     1.246     0.445  30.27   0
         8    134.4499      4.7106 307.8785656  +6.6418491     1540.437     4254.676     5130.244     91.41375     182.1754      330.118      2.626     8.14     1191.657     64.28031     194.0442        35     1.754     1.564 -81.96  24
         9     16.3204      3.3031 307.9277873  +6.6384504     5771.264     14452.26     15857.06     91.12401     173.8566     309.1449      2.375     6.44     1201.198     64.28031     586.4869        52     1.892     1.609 -16.41  24
        10    282.4100      3.1835 307.8170243  +6.6474577     540.8434     1585.013     1249.213     91.12401     172.0216     306.9128      2.050     3.45     1192.378     64.28031     81.47217         5     1.228     0.281 -35.15  16
        11    822.6436    998.2607 307.5586163  +6.2546718     2610.083     4541.986     4745.657     91.41375     182.3931     364.8224      1.869     4.60     1224.115     64.28031     280.8716        24     1.469     1.030  79.93   0
        12    999.5968   1023.7507 307.4841496  +6.2500528     1289.603     1350.311     1106.486     77.81902     143.0667     272.3058      1.019     2.79     1222.783     64.28031     322.1924         6     0.872     0.428   4.59  24
        13    880.0097   1021.3772 307.5339755  +6.2470422     1484.449     2495.507     2595.216     90.97878     176.7977     313.9407      1.738     5.19     1223.418     64.28031     208.3706        18     1.387     1.036  74.34  24
        14    662.8796   1023.6519 307.6242197  +6.2388452     577.2418     824.3356     930.8339     79.99736     145.2678     274.6267      1.685     3.95     1225.825     64.28031     89.39368         6     1.045     0.428 -12.72  24
        15    210.5308   1022.8102 307.8124060  +6.2240233     1836.908     2861.292     2639.047     89.21774     158.9167     290.1258      1.639     4.10     1224.241     64.28031     266.6718        16     1.220     0.943  30.77  24
        16    142.4100   1023.0558 307.8407319  +6.2216317     2786.238     4136.415     4502.524     86.66169     155.0422     285.5783      1.562     4.08     1224.691     64.28031     350.4165        18     1.325     0.897  10.76  24
        17      9.5666   1022.9487 307.8959896  +6.2172055     985.7596     1531.306     1345.976     88.62295     157.0756     287.7002      1.839     3.94     1224.694     64.28031     148.3037         9     1.153     0.719  17.63  24
        18    743.2455    996.5441 307.5917025  +6.2527269     1273.552     2304.109     2033.395     91.41375     182.3931     364.6773      1.878     6.61     1224.588     64.28031     145.2074        15     1.380     0.889 -37.74   0
        19    806.4178    995.9595 307.5654434  +6.2550799     828.5741     1340.844     1153.391     90.97878     182.1754     364.4597      1.785     4.50     1224.417     64.28031     131.5789         7     1.230     0.468  52.44   0
        20    566.6187    993.8166 307.6652675  +6.2479424     2059.071     4485.125     4959.591     91.12401     182.1028     364.6048      2.182     5.83     1225.541     64.28031     226.6073        30     1.507     1.387 -88.93   0
        21    273.1877    984.7878 307.7876303  +6.2418285     704.4888      1365.79     1522.191     91.26899     182.0302     364.6048      1.730     3.72     1224.606     64.28031     106.3551         5     1.012     0.393 -30.95   2
        22    270.5615    983.2524 307.7887747  +6.2423743     843.1024     1294.754     1226.509     91.12401     182.4655     364.6773      1.594     4.52      1224.58     64.28031     121.4293         6     1.105     0.525   4.25   2
        23    695.6143    981.5656 307.6120208  +6.2573190     3291.657     6566.929     7134.611     90.97879     182.1028     364.5323      2.099     4.75     1223.719     64.28031     343.0792        37     1.592     1.405  66.39   0
        24    891.1498    980.9234 307.5307015  +6.2641189     627.7405     711.1232    -106.1829     91.26899     182.4655     364.6773      1.371     4.35     1221.508     64.28031     87.29858         5     1.057     0.510  51.73   0
        25    605.5599    980.1180 307.6495307  +6.2549030     1319.385     2476.038     2191.781     91.41375     182.4655     364.6048      1.922     6.27     1224.738     64.28031     169.4054        16     1.330     0.992 -86.65   0
        26    225.9618    978.9456 307.8074721  +6.2426542     825.6295     1707.629     1971.745     91.41375     182.4655     364.6773      2.114     7.20     1224.144     64.28031     118.4456        12     1.633     0.889  42.41   0
        27     61.5472    971.3286 307.8761191  +6.2402698     5671.013     11087.11     11592.68     91.26899     182.3205     364.6411      2.039     4.62     1223.097     64.28031     646.8837        40     1.696     1.332  66.29   0
        28    790.7471    970.4766 307.5728199  +6.2650789     11088.04     20516.55     21880.43     91.55827     182.3931     364.6773      1.962     4.43     1222.533     64.28031     1123.858        47     1.608     1.361  71.75   0
        29    574.2296    961.5372 307.6631903  +6.2615263       110806     229702.7     254060.2     91.12401     182.3931     364.6048      2.179     4.74     1224.261     64.28031      11162.1       116     1.903     1.687  67.76   3
        30    575.7993    954.4062 307.6627778  +6.2645235     50147.79     106450.1     118155.8     90.68765     182.0302     364.4597      2.179     4.97     1223.938     64.28031     5057.516        82     1.834     1.600  47.64   3
        31    208.2745    964.6222 307.8153142  +6.2479741     2624.495     5436.607     6418.119     90.97879      182.248     364.6048      2.283     5.26     1224.039     64.28031      286.746        35     1.644     1.362  74.56   0
        32    750.0909    963.5360 307.5899663  +6.2665858     790.4917      1188.13     859.9022     91.41375     182.6104     364.7498      1.750     5.72     1222.259     64.28031     108.0631         9     1.263     0.729  32.11   0
        33    785.0723    958.3289 307.5755895  +6.2699053     5219.489     9716.407     10214.08     91.70258      182.538     364.6048      1.977     4.48     1221.639     64.28031     540.3986        34     1.514     1.301  66.64   0
        34    882.7327    955.2738 307.5350655  +6.2744294     1416.938     2280.744     2339.196     91.55827      182.538     364.6411      1.818     6.13     1220.713     64.28031     168.9867        17     1.527     0.981 -72.29   0
        35    205.6751    953.9008 307.8167583  +6.2523138     1397.754     3110.364     3309.752     90.83334      182.538     364.5685      2.193     6.35     1223.983     64.28031      185.615        23     1.411     1.343 -59.02   0
        36    423.9294    951.0367 307.7260672  +6.2608247     2775.103     5842.527     7426.355     91.26899     182.4655     364.7498      2.346     5.71     1224.553     64.28031     307.5852        35     1.751     1.351  55.57   0
        37    565.3672    950.0210 307.6672654  +6.2659849     2837.522     6310.029     7942.143     90.83334     182.1754      364.496      2.471     5.48     1223.865     64.28031      291.656        39     1.699     1.487  61.70   1
        38    740.8766    945.7402 307.5943987  +6.2736262      837.665     1831.672     2448.499     91.55827     182.4655     364.6411      2.459     5.37     1221.053     64.28031     104.9609         9     1.133     0.719  82.58   2
        39    948.3519    940.1762 307.5082751  +6.2828541     5861.547     10007.63     10400.77     90.97879     182.3931     364.5685      1.824     3.89     1218.836     64.28031     690.7832        36     1.506     1.201  60.06   0
        40    234.0050    941.2020 307.8054038  +6.2585094     836.6136     1655.539      1891.19     90.68765     181.9576     364.4235      1.894     5.92     1224.172     64.28031     100.7002        10     1.352     0.730 -63.44   0
        41    708.2006    938.2736 307.6082434  +6.2756166     1965.332     4034.067     5717.092     90.54174     181.6667      364.496      2.877     6.31     1221.118     64.28031     201.5258        29     1.593     1.370 -54.57   2
        42    709.0698    950.7639 307.6074610  +6.2704880     5311.797     10857.68     12886.49     91.26899     182.4655     364.7498      2.181     4.70     1221.857     64.28031      568.675        43     1.573     1.518  61.99   0
        43    724.0684    937.3043 307.6016750  +6.2765475     761.9569     1282.866     737.8905     91.26899      182.538     364.7136      1.720     4.73     1220.732     64.28031     111.1012         7     1.093     0.635  57.28   0
        44    355.0821    935.9418 307.7552164  +6.2647477     1177.353     2469.105     3104.237     91.55827     182.3931     364.7498      2.283     5.77     1224.689     64.28031     137.8616        16     1.379     1.028  10.22   0
        45    741.7540    925.5271 307.5947144  +6.2820021     5818.342     11540.08     12813.15     91.26899     182.4655     364.6773      2.087     4.72     1219.664     64.28031     602.0614        47     1.723     1.430  63.37   0
        46    537.1959    926.1126 307.6797911  +6.2749135     2730.878     5837.038     7092.884     90.83334     182.0302     364.3146      2.291     5.07     1223.054     64.28031      321.406        34     1.603     1.365  84.69   3
        47    534.5512    918.3535 307.6811531  +6.2780288     5480.179     11917.28      13801.3     91.41375      182.248     364.7136      2.279     5.05     1222.631     64.28031     594.2899        53     1.827     1.593  80.54   3
        48    287.4644    925.1290 307.7837098  +6.2669422     9564.042      21297.8     24860.72     91.41375     182.3931     364.7136      2.339     5.16     1224.465     64.28031      995.792        71     1.947     1.710  60.20   0
        49    507.4554    927.2521 307.6921245  +6.2734464     782.2226     1606.053     1314.729     91.41375     182.3931     364.6411      2.262     5.37     1223.129     64.28031      110.262         6     1.144     0.710 -40.43   0
        50    802.5321    924.4302 307.5694671  +6.2844867     794.3839     1505.864     1558.936     91.12401     182.3931     364.6411      1.913     6.49     1218.992     64.28031     98.03357         9     1.404     0.841 -79.94   0
        51    411.5102    924.8836 307.7321169  +6.2712073     732.8245     1156.263     890.9568       91.124     182.6828     364.7861      1.746     5.16     1223.839     64.28031     86.29565         8     1.191     0.631 -28.48   0
        52    903.0677    918.8130 307.5278320  +6.2901642     7194.423     13085.91     13859.12     90.83334     182.1754     364.5685      1.902     4.09     1218.648     64.28031      760.611        40     1.509     1.349  65.19   0
        53    876.6660    914.9976 307.5389438  +6.2908582     9797.803     18638.53     19555.88     90.68765     182.0302     364.4235      1.986     4.33     1218.648     64.28031     1112.111        51     1.611     1.488  64.54   0
        54    998.3163    914.3092 307.4883582  +6.2952024     4349.704     6984.482     7635.489     91.12401     182.7552     364.8224      1.728     3.97     1215.628     64.28031     495.5732        30     1.449     1.116  70.79   0
        55    520.7999    914.1738 307.6870147  +6.2792939     2670.073     6108.784     7637.212     90.83334     182.0302     364.4597      2.442     6.15     1222.496     64.28031     283.6598        36     1.764     1.424  74.12   0
        56    588.9482    915.2344 307.6586292  +6.2811389     844.7653     1436.906     1558.208     91.26899     182.3931     364.5685      1.800     4.40     1222.094     64.28031      136.248         8     0.970     0.697 -66.96   0
        57    630.2647    913.3057 307.6415064  +6.2833187     846.2921     1672.844     1527.508     91.26899     182.4655     364.7136      2.125     6.63     1221.318     64.28031     109.6622        12     1.147     1.076  20.45   0
        58    473.8015    910.9093 307.7066762  +6.2790666     1440.082     3219.049     3417.658     90.54173     181.9576     364.3872      2.148     7.80     1222.695     64.28031     196.9701        20     1.478     1.255 -33.48   0
        59    908.3861    902.4988 307.5261680  +6.2970785     36638.53     65973.66     70341.51     91.26899     182.1028     364.3872      1.948     4.18     1217.224     64.28031     3990.595        76     1.687     1.478  75.19   0
        60    215.5462    901.0034 307.8144429  +6.2744877     1074.063     2072.848     2411.773     90.68765     182.1028      364.242      2.205     6.58     1223.622     64.28031      161.077        14     1.315     1.134  42.70   0
        61    754.5587    894.3455 307.5904375  +6.2953061     5049.831     10222.74     11667.29     91.26899     182.3931     364.7136      2.188     4.72     1217.451     64.28031     546.3295        50     1.860     1.489  67.97   0
        62    806.1218    896.1862 307.5689243  +6.2962695     1748.072     3418.848     3309.204     90.97878     182.1028     364.4597      1.950     5.54     1217.348     64.28031     206.1094        25     1.506     1.152  79.86   0
        63    224.6423    893.5959 307.8109099  +6.2778520     958.2062     2094.675     1410.446     90.68765     182.0302     364.3509      2.150     7.52     1223.685     64.28031      137.762        14     1.508     1.049  61.42   0
        64     49.2132    891.9771 307.8839399  +6.2726196     1840.511     3991.649     4098.955     91.12401     182.1754     364.5685      2.131     5.60     1221.013     64.28031     240.2389        29     1.563     1.310  63.74   0
        65    942.6548    889.1765 307.5123592  +6.3037235     5840.078     10260.94     10796.33     90.97879     182.3931     364.4597      1.863     4.18     1215.526     64.28031     657.8745        36     1.488     1.263  86.02   0
        66    916.3812    880.9305 307.5235670  +6.3062517     1768.565     3316.633     3221.925     90.97878      182.248     364.6048      1.953     5.54     1215.442     64.28031     181.2784        23     1.400     1.182   6.09   0
        67    249.5726    877.5479 307.8010822  +6.2853163     2488.086     5876.168     6201.553     90.97879      182.538     364.6048      2.314     6.46     1223.709     64.28031     261.0172        36     1.807     1.417  87.23   0
        68    775.9532    877.6566 307.5820989  +6.3029127     944.6643     2079.141     2522.233     91.41375     182.3931     364.7861      2.293     7.34     1216.364     64.28031     139.2524        13     1.695     0.891  71.53   0
        69    637.1916    876.9355 307.6398509  +6.2985688     2995.094     6584.009     6992.053     90.83334     182.1028     364.5323      2.180     5.52     1218.889     64.28031     331.3888        38     1.661     1.468  84.21   0
        70    986.1004    876.6590 307.4947052  +6.3103420     561.8727     1238.601     1246.537     91.12401     182.3931     364.8224      2.296     4.91     1213.485     64.28031     95.52612         5     0.963     0.762  83.53   0
        71     18.4625    874.8353 307.8973129  +6.2786622     1575.109     3090.084      2981.41     91.26899     182.3931     364.6411      2.018     5.96     1220.753     64.28031     198.4924        20     1.421     1.076  79.59   0
        72    868.5198    873.3079 307.5437350  +6.3078013     624.0642     1173.281     905.9912     91.12401     182.6828     364.7498      1.845     4.91     1215.385     64.28031     86.00012         6     0.965     0.707 -66.07   0
        73    993.0310    869.1583 307.4920738  +6.3136705     816.6472     1658.818     1806.778     90.83334      182.248      364.496      1.856     6.47     1212.766     64.28031     124.2756        10     1.644     0.716 -76.17   0
        74    941.1530    870.7704 307.5136027  +6.3112739     618.8113     1152.154     1237.824     90.97879     182.4655     364.5685      1.498     3.43     1214.183     64.28031     81.13843         5     0.992     0.344  44.67   0
        75    562.2311    868.6798 307.6713142  +6.2994677     1042.779     1995.602      2471.33     91.26899     182.3205     364.6411      1.966     6.10     1219.705     64.28031     150.6837        13     1.426     0.733  12.31   0
        76    601.7110    865.3685 307.6550015  +6.3021573     753.0681      1200.16     1401.296     91.55828     182.1754     364.6048      1.898     7.57     1219.236     64.28031     95.79932         9     1.668     0.962  35.28   0
        77    547.9767    863.7222 307.6774115  +6.3010373     427.7217     1100.915      1647.97     90.97879     182.1754     364.6048      2.403     5.17     1219.519     64.28031     86.21289         5     1.211     0.624 -88.42   0
        78    281.4443    862.4109 307.7883359  +6.2926374     692.4329     1344.348     1369.986     90.83334      182.248     364.3509      2.028     6.29     1223.812     64.28031      97.8446         8     1.467     0.759  33.94   0
        79    885.4220    856.2158 307.5372781  +6.3154236      5564.47      10600.2     11808.31     91.12401     182.1754     364.6048      2.082     4.37     1213.902     64.28031     587.8649        39     1.575     1.345  61.02   0
        80    421.3199    853.4629 307.7304491  +6.3010276     1089.659     2780.152     2785.462     91.55828     182.4655     364.6773      2.488     7.49     1221.333     64.28031     153.7377        22     1.713     1.391  53.31   0
        81    323.0845    852.1445 307.7713607  +6.2982750     5152.012     12801.46     15061.16     91.41375     182.3931     364.8223      2.445     5.78     1223.123     64.28031     555.3689        50     1.846     1.609  76.33   0
        82    243.3103    851.0812 307.8045831  +6.2960344     4071.636     9394.806     10313.98     91.12401     182.6104     364.7861      2.331     5.45     1223.172     64.28031     411.7427        48     1.817     1.612  79.37   0
        83    755.1968    844.5458 307.5918490  +6.3158913     704.1367     1152.803     1585.207     90.68765     182.1754     364.2783      1.835     4.87     1214.644     64.28031     98.87524         6     1.140     0.589  27.00   0
        84    571.9602    844.1637 307.6680938  +6.3099169     708.8588     1347.778     1885.887     91.12401     182.3205     364.5323      2.989     5.01     1218.186     64.28031     97.92712         6     0.934     0.761 -54.82   0
        85    857.4313    839.3539 307.5494905  +6.3214517     661.9744     1176.745     792.1351     90.97879     182.3931     364.5685      1.231     3.47     1212.973     64.28031     94.00659         5     1.037     0.335 -68.20   0
        86    737.5082    834.2147 307.5995561  +6.3195658     1234.037     2353.544      2790.52     91.12401     182.1754     364.4597      2.042     7.50     1214.329     64.28031     159.1139        17     1.447     1.088  70.36   0
        87    968.9604    830.1891 307.5033976  +6.3289593     1116.669     2089.955     2730.173     90.68765     182.1754     364.3872      2.231     6.62     1210.898     64.28031     126.1824        14     1.282     0.958  12.76   0
        88    655.9159    827.4293 307.6337301  +6.3196380     1517.696     3045.368     3564.954     91.41375     182.1028     364.5685      2.180     6.96     1215.143     64.28031     164.0692        22     1.356     1.258 -89.90   0
        89     52.7908    824.3618 307.8847445  +6.3006590     1750.335      4517.42     4700.334     90.54174     182.1754     364.3509      2.417     8.53     1219.206     64.28031     197.0276        34     1.896     1.401  75.99   0
        90    196.6524    823.3566 307.8249317  +6.3059141     1097.941     3017.438     3728.568     91.41375     182.3931     364.7136      2.648    10.35     1221.559     64.28031     165.6952        28     1.850     1.612  69.57   0
        91     70.2216    824.0860 307.8775027  +6.3013597     1127.627     2759.493     3038.055     91.41375     182.1028     364.5323      2.371     8.28     1219.206     64.28031     139.4766        20     1.700     1.126 -61.52   0
        92    934.7018    822.4609 307.5179106  +6.3310073     648.2736     1149.101     1240.126     91.12401     182.3931     364.8224      1.441     4.97     1211.159     64.28031     105.3047         5     1.300     0.537  44.41   0
        93    650.7133    817.0926 307.6362430  +6.3237322     4280.457     9866.353     11511.49     91.41375     182.8998     364.7861      2.360     5.39     1214.635     64.28031     409.8639        46     1.709     1.568  73.24   0
        94    888.5368    813.1519 307.5374305  +6.3333101     2105.678      4126.25     4726.597     91.26899      182.248     364.7498      2.090     5.08     1210.819     64.28031     272.2015        24     1.397     1.232 -24.39   0
        95    333.8646    810.4213 307.7682870  +6.3158653     8836.522      21934.2     24929.46     90.97879     182.3931     364.5323      2.445     5.74     1221.888     64.28031     987.4745        64     1.959     1.721  61.86   0
        96     69.6322    812.2441 307.8781494  +6.3062295     729.7861     1636.809     2257.219     91.12401     182.3931     364.5323      3.050     5.91     1218.778     64.28031     112.7924         9     1.507     0.652 -86.72   0
        97    204.0457    809.4590 307.8223266  +6.3119012     584.8412     1523.648     1718.462     91.26899     182.3931     364.7861      2.193     4.92     1221.302     64.28031     104.2277         5     1.489     0.460   7.76   0
        98     97.1544    800.6146 307.8670943  +6.3119578     945.5109     2276.918     3149.546     90.68765     182.1754     364.4235      2.905     7.48     1218.385     64.28031     139.0819        16     1.491     1.300 -81.50   0
        99    409.5989    799.4457 307.7371506  +6.3229392     453.5217     850.3008     1064.011     90.68765     182.1028     364.2057      1.922     3.90     1219.505     64.28031     77.91626         5     1.063     0.411 -74.18   0
       100    812.7980    793.8347 307.5695918  +6.3387569     1891.983     4269.457      5018.91     90.39558     182.1754     364.4597      2.273     6.81      1210.87     64.28031     187.9316        30     1.766     1.291  67.45   0
       101     80.6957    794.5251 307.8741477  +6.3139183     1352.391     3740.637      4621.43     91.12401     182.6104     364.6773      2.675     8.65     1218.179     64.28031     177.0725        33     1.914     1.575  59.88   0
       102    878.8802    794.5374 307.5420743  +6.3406742     1385.483     2890.486     3478.531     91.55827     182.4655     364.6773      2.245     8.08     1209.704     64.28031     166.1282        23     1.637     1.191  24.55   0
       103    849.3358    794.4614 307.5543690  +6.3397189     1415.937     2693.659     2910.496     91.41375     182.3931     364.7136      1.989     6.49     1210.064     64.28031     176.5768        19     1.321     1.243  55.69   0
       104    548.8882    785.4275 307.6796745  +6.3333977     185875.2     453662.9       514741     91.55827     182.1028     364.5685      2.426     5.67      1215.41     64.28031     18354.76       171     2.065     1.899  70.38   0
       105    393.2003    788.1752 307.7443538  +6.3270428     3933.303     10247.09     11728.16     90.97878     182.0302     364.4597      2.448     6.07     1219.066     64.28031     417.4943        50     1.875     1.655  84.57   0
       106    636.8255    789.0636 307.6429659  +6.3348414     833.2156     1814.389     1667.372     90.97878     182.3931     364.6048      2.089     5.94      1213.31     64.28031     114.4169         8     1.386     0.716 -79.41   0
       107    336.4348    786.6060 307.7680231  +6.3257854     6442.298     16725.15     19182.26     90.54174     182.1028     364.4235      2.458     6.10     1220.672     64.28031     664.6621        56     1.885     1.686  62.26   0
       108    654.8857    782.7772 307.6356639  +6.3380417     2035.622     4908.322      5614.55     91.41375     182.1754     364.5323      2.393     6.21     1212.862     64.28031     214.0757        36     1.641     1.566  85.07   0
       109    886.8485    781.2241 307.5392068  +6.3464379     3721.694     7551.578     8427.996     90.97879     182.3931     364.5685      2.089     4.87     1209.007     64.28031     412.8981        36     1.587     1.358  68.77   0
       110    629.3277    776.5677 307.6465067  +6.3397503     1806.433     4151.766     5041.018     91.26899     182.3931     364.7136      2.440     6.29     1212.901     64.28031     235.1417        33     1.639     1.450  70.95   0
       111   1020.4572    775.3729 307.4838137  +6.3533126     3873.655     6843.329     7081.462     90.97879     182.4655     327.5446      1.866     4.25     1207.041     64.28031     422.9564        29     1.433     1.205  78.67  16
       112    817.4374    775.5292 307.5682777  +6.3464708     1070.856     2362.461      1984.88       91.269     182.3931     364.7498      2.223     7.02      1209.76     64.28031     135.8875        15     1.330     1.039 -72.90   0
       113    621.3799    773.6798 307.6499108  +6.3406766     1019.449     1955.701     3130.819     91.12401     182.0302     364.6773      2.664     6.30     1212.863     64.28031     120.6023        12     1.506     0.741  -0.16   3
       114    622.7057    770.2233 307.6494758  +6.3421483     1051.282     1842.474      2539.43     91.41375     182.1754     364.5323      2.165     5.08     1212.674     64.28031     147.5424        13     1.408     0.887  17.41   3
       115    905.9352    769.2393 307.5316687  +6.3520241     2253.055     4478.753     4422.723     91.41375     182.3205     364.7861      2.026     5.29     1208.145     64.28031     249.7561        26     1.387     1.286  78.15   0
       116    364.1191    765.4079 307.7572223  +6.3354679     1293.759     3489.638     4080.364     90.97879     181.9576      364.496      2.591     8.22     1218.093     64.28031     146.4861        24     1.582     1.450  50.12   0
       117    500.3074    757.6342 307.7008246  +6.3432462     915.7046     1301.503     2110.254     91.55828      182.248     364.7498      1.839     4.66     1214.702     64.28031     140.4673         7     1.067     0.577  37.24   3
       118    501.0486    754.3596 307.7006267  +6.3446232     1424.734      2984.41     3490.307     91.26899     182.3931     364.6048      2.155     7.26     1214.324     64.28031     178.2859        23     1.761     1.024  13.13   2
       119    844.5347    754.0491 307.5577264  +6.3562460     759.4906     1456.227     1621.985     91.26899      182.248     364.6411      2.414     5.21     1208.326     64.28031      126.427         8     1.187     0.655  78.81   0
       120    548.0197    751.1769 307.6811918  +6.3475116     2965.025     8030.557     11230.11     91.12401      182.248     364.6048      3.050    10.23     1212.866     64.28031     296.9446        60     2.644     1.760  -6.62   0
       121    882.4008    749.7083 307.5421175  +6.3593033     932.9908     1729.776     1477.785     90.54174     181.8849     364.4235      1.791     5.61     1207.635     64.28031     105.0133        10     1.115     0.795 -89.33   0
       122    465.7519    749.5074 307.7154759  +6.3454434     823.6727      1702.47     1915.467     91.26899      182.248     364.8224      2.307     5.66     1214.735     64.28031     149.8422         9     1.416     0.707  15.38   0
       123    517.9249    745.2183 307.6939140  +6.3489636     10070.27      26022.4     29790.78     90.83334     182.1028     364.5685      2.480     5.85     1213.113     64.28031      987.973        69     1.942     1.801  76.61   0
       124    106.7436    748.3253 307.8648775  +6.3338714     690.4421     1346.875     2034.581     91.26899     182.3205     364.6048      2.188     5.35     1216.891     64.28031     81.32214         7     1.438     0.561  30.26   0
       125    931.4127    743.1166 307.5219466  +6.3636616     2799.168     5421.906     5308.209     90.97879     182.1754      364.496      2.043     4.83     1206.031     64.28031     302.6327        30     1.575     1.222  81.43   0
       126    310.5997    734.0582 307.7805489  +6.3466159     1678.912     4383.514     4676.396     90.54173     181.9576     364.3146      2.403     8.36     1218.593     64.28031      196.038        34     1.843     1.423  62.86   0
       127     29.6296    736.0826 307.8973740  +6.3363305     891.8647     1757.703     1712.786     91.26899     182.1754     364.6411      1.973     7.02     1216.175     64.28031     134.0542        12     1.446     1.006  54.33   0
       128    776.0399    729.5574 307.5870496  +6.3640704     33372.56     76454.62     84741.72       91.124     182.3931     364.5323      2.294     5.26     1207.606     64.28031     3142.428        89     1.905     1.724  78.25   0
       129     10.8136    732.4290 307.9053259  +6.3372053     1260.843     2942.986     3617.019     90.97879     182.1754     364.5685      2.500     8.45     1216.154     64.28031     147.7811        21     1.708     1.168  78.40  16
       130    233.4417    727.5714 307.8128697  +6.3467020     2704.791     7367.735     10296.27     90.97879      182.248     364.5323      3.563     6.65     1218.754     64.28031     318.7166        49     1.971     1.689  70.06   1
       131    699.2466    721.3948 307.6192762  +6.3648728     40924.71     113967.9     161073.7     90.68765     182.1754     364.3146      3.083     9.05      1208.72     64.28031     4738.042       164     3.430     1.889  31.29   0
       132    901.2263    724.6508 307.5351275  +6.3702790     6019.654      12008.4     13098.47     90.97879     182.4655     364.5685      2.126     4.53     1205.673     64.28031      638.615        47     1.754     1.434  78.32   3
       133    898.1324    715.9902 307.5367061  +6.3737520     4511.113     9218.492     10191.31     90.83334     182.1754     364.5685      2.107     4.97     1205.171     64.28031     478.5203        41     1.702     1.407  74.53   3
       134    343.0120    721.8199 307.7674778  +6.3527577     9726.132     27290.02     31673.75     90.97879     182.0302     364.5685      2.548     6.36     1216.123     64.28031     1087.811        69     2.004     1.816  63.66   0
       135    404.8626    719.6572 307.7418177  +6.3557267     10913.21     29194.38     34368.74     91.55827     182.3205     364.7136      2.587     6.36     1214.127     64.28031     1225.609        79     2.041     1.896  65.15   0
       136    941.6892    718.1129 307.5185115  +6.3743295     1475.702     2615.307     2838.396     91.12401     182.8998     364.8224      1.870     5.45     1204.327     64.28031     164.5505        21     1.394     1.071  58.87   0
       137    232.9413    706.3416 307.8137966  +6.3554513     776831.9      2518465      3077267     91.41375     182.3931     364.7136      2.845     5.60     1216.805     64.28031     63189.68       489     2.523     2.228  69.10   4
       138    638.8322    715.3588 307.6446164  +6.3653433     3534.675     8684.453     10423.42     90.97879     182.3205     364.5323      2.487     5.83      1209.26     64.28031     359.2181        46     1.785     1.637  69.13   0
       139    428.0156    712.6438 307.7324217  +6.3593995     778.1062     2064.005     2634.953     90.83334     182.1754     364.4235      2.438     7.33     1213.227     64.28031     119.4343        12     1.708     0.882  35.20   0
       140    673.7930    705.4722 307.6304034  +6.3705960     1326.987     3279.579     3612.646     90.97879     181.8849     364.6048      2.431     8.09     1208.104     64.28031      148.528        25     1.626     1.335 -76.53   0
       141    407.8116    702.2930 307.7411777  +6.3629957     25514.08     70120.05     82331.08     91.12401     182.0302     364.4597      2.605     6.38     1213.273     64.28031     2633.875       102     2.128     1.926  71.44   0
       142    525.4037    701.2229 307.6922876  +6.3673810     3666.318     9572.331     10797.01     90.97879     182.0302      364.496      2.485     6.04     1210.194     64.28031     386.8662        48     1.813     1.667  75.99   0
       143    439.2076    692.2283 307.7284550  +6.3682050     1101.076     2547.621     4529.471     90.97878     182.1754     364.4597      3.331     9.08     1211.952     64.28031     143.1302        22     1.581     1.458 -76.34   2
       144    442.2291    700.1903 307.7269288  +6.3650187     1940.917     5819.778     7610.177     90.83334     182.1754      364.496      2.993     8.64     1212.247     64.28031     207.3793        39     1.929     1.677 -22.78   2
       145    770.6259    697.6768 307.5903758  +6.3770540     6596.145     15775.04     17650.85     91.12401     182.3931     364.6411      2.372     5.63      1205.67     64.28031       630.23        58     1.850     1.699  84.97   0
       146    120.4930    685.1273 307.8612994  +6.3604293     1423.531     4056.852     7365.485     91.26899      182.538     364.7498      3.815    13.48     1214.982     64.28031     163.8861        52     3.260     1.550  85.49   2
       147    136.7663    690.2094 307.8543566  +6.3588784     1794.157     4531.726     5782.288     90.83334     182.1754      364.496      2.637     6.97     1215.321     64.28031     213.7162        34     1.694     1.585  82.94   3
       148    128.6010    690.0585 307.8577589  +6.3586659     5836.799     15458.28     18370.15     90.68765     182.0302     364.3146      2.553     6.16     1215.251     64.28031     661.1302        62     2.044     1.695  50.59   3
       149      1.5477    694.3870 307.9104717  +6.3526010     575.4487     833.9156     642.7909     81.63347     148.4193     278.2617      1.400     4.16     1215.999     64.28031     103.7419         5     0.966     0.510  44.49  24
       150    794.2068    691.9309 307.5807577  +6.3802149     720.3348      1178.59      1641.84     90.83334     181.9576     364.5685      1.849     4.58     1205.157     64.28031     89.08801         7     1.294     0.461 -42.65   0
       151    916.1152    686.1111 307.5302286  +6.3866905     4302.132     8907.316     9842.528     91.12401     182.6828     364.7861      2.145     4.98     1202.577     64.28031     427.3367        42     1.654     1.459  82.87   0
       152    965.0060    687.0000 307.5098556  +6.3879552     972.3063     1566.009     1791.257     90.54174     181.9576     364.4235      2.035     5.50     1202.203     64.28031     120.5651         9     1.317     0.647 -14.01   2
       153    965.0029    684.6574 307.5099356  +6.3889225     1004.877     1407.542     2075.232     90.68765     182.1754     364.3872      1.893     4.66     1202.066     64.28031     128.9376         8     0.932     0.711 -48.86   3
       154    558.6946    683.3605 307.6790391  +6.3758725     961.9407     2883.463     3722.422     91.55828     182.3205     364.7861      2.828     9.10     1208.267     64.28031     135.3643        22     1.864     1.240  29.82   0
       155    673.0012    683.6242 307.6314694  +6.3795912     866.2092     2251.072     2607.319     90.97878     182.0302     364.4235      2.699     5.25     1206.372     64.28031     104.3438         7     1.086     0.717  71.47   0
       156    939.6721    677.7385 307.5207083  +6.3909342     2377.084     4683.722     5296.292     91.55827     182.3931     364.7498      2.166     5.22     1201.587     64.28031     264.7903        29     1.503     1.323  78.29   0
       157    910.2389    677.9933 307.5329467  +6.3898464     1779.842     4033.831     4956.857     90.54174     182.0302     364.3509      2.542     5.85     1202.244     64.28031     210.1461        27     1.577     1.315 -71.16   0
       158    662.6819    677.5295 307.6359686  +6.3817625     847.8467      1919.72     2760.228     91.70258     182.7552     364.7136      2.888     9.43     1205.937     64.28031     107.2949        14     1.626     1.527  78.98   0
       159    970.6952    677.5762 307.5078050  +6.3920365     1207.943      2503.15     2097.005     91.55828     182.1028     364.5323      1.998     6.61     1201.587     64.28031     151.0376        18     1.513     1.008  65.23   0
       160    235.2307    672.7176 307.8139826  +6.3694122     997.0552     2749.867     3516.476     91.26899     182.1754     364.6411      2.892     6.33     1213.882     64.28031     168.9478        18     1.636     1.323  68.52   0
       161    954.5044    665.7594 307.5149393  +6.3963758     1856.036       3695.5      4168.74     91.41375     182.3205     364.8586      2.087     5.49     1200.789     64.28031     241.5682        26     1.518     1.275 -83.31   0
       162    996.4360    659.1679 307.4977129  +6.4004967     1319.579     2620.909      2633.42     90.97879     182.1028     364.3872      2.088     7.15     1199.996     64.28031     140.6777        19     1.440     1.155  69.16   0
       163    883.9970    654.7407 307.5446482  +6.3985720      969.027     1997.157     2407.005     90.68765     182.1754     364.3872      2.090     6.55     1201.611     64.28031     112.9366        13     1.132     1.063  88.74   0
       164    840.3881    646.1861 307.5630819  +6.4006477     908.5507     1954.914      2095.87     91.26899     182.0302     364.6048      2.354     6.46     1201.788     64.28031      119.567        12     1.372     0.855  71.69   0
       165     40.3344    645.0367 307.8960090  +6.3742846     1341.959     3420.557     3581.096     91.26899     182.3931     364.7498      2.381     8.61     1213.812     64.28031     167.5435        27     1.634     1.450  10.09   0
       166    652.7032    633.5859 307.6416024  +6.3995741      3191.17      8190.08     9364.521     91.26899     182.1028     364.4235      2.466     6.41     1203.559     64.28031     309.1292        46     1.846     1.654  77.53   0
       167    115.8861    629.8528 307.8650898  +6.3830978     1684.297     4502.013     5185.623     91.41375     182.3205     364.8223      2.505     8.30      1211.55     64.28031     215.0647        37     1.790     1.632  80.54   0
       168    626.1117    629.9149 307.6527909  +6.4001997     1079.441     2804.659     3284.479     91.12401     182.6828     364.7861      2.604     8.99     1203.818     64.28031     116.2765        22     1.726     1.410   8.11   0
       169    989.7313    628.9775 307.5015175  +6.4127398     1886.481     3896.066     4287.589     90.97879     182.3205     364.6411      2.103     5.59     1197.477     64.28031      216.455        25     1.459     1.211  86.33   0
       170    769.6315    625.7722 307.5932115  +6.4067124     10818.65     26948.64     30959.93     90.83334     182.1028     364.4597      2.432     5.79     1201.407     64.28031     988.8848        71     1.969     1.733  75.52   0
       171    899.7017    625.1251 307.5391096  +6.4113257     2246.438     4946.798     5136.193     90.83334      182.538     364.6411      2.235     5.50     1199.334     64.28031     248.1567        35     1.569     1.533 -34.26   0
       172    469.8980    625.2037 307.7179498  +6.3969104     649.9032     1367.283     1867.157       91.124     182.0302     364.3146      2.615     5.65     1207.448     64.28031     80.49268         6     1.364     0.659   7.14   0
       173    242.6629    621.6608 307.8126189  +6.3907442      2466.14     3877.993     5450.551     91.41375     182.3931     364.7136      1.843     5.13     1210.763     64.28031     258.6813        15     1.159     0.999 -10.86   3
       174    244.6427    619.1218 307.8118812  +6.3918591     2928.791     6097.547     8633.213     91.26899     182.3931     364.7136      2.758     7.20     1210.567     64.28031     381.4354        40     2.321     1.491  29.44   2
       175    649.9937    618.6063 307.6432350  +6.4056689     3433.307     9079.196     10481.78     90.68765     182.1754     364.4597      2.503     6.00     1202.841     64.28031     333.9474        51     1.864     1.699  63.20   0
       176    909.3424    610.8945 307.5355767  +6.4175239     927.1836     1767.982     1957.882     91.26899     182.3931     364.8948      2.006     6.65     1198.382     64.28031     115.1368        12     1.240     1.103  33.50   0
       177    721.8201    606.8973 307.6137422  +6.4129074     1841.173      4836.46      5438.87     91.26899     182.1754     364.3872      2.454     7.24     1201.128     64.28031     203.5289        35     1.782     1.456  78.86   0
       178    988.0210    603.3687 307.5030899  +6.4232575     6237.824     12714.35     14005.69     90.83334     182.1754     364.5323      2.115     4.77     1195.479     64.28031     645.9703        50     1.693     1.515  79.23   0
       179    926.5042    603.7661 307.5286751  +6.4210405     1757.468     3708.627     3734.538     91.55827      182.248     364.8224      2.166     6.28     1197.812     64.28031     180.4512        28     1.473     1.423 -77.64   0
       180      8.5522    602.3367 307.9106813  +6.3908453     803.1329     1619.239     2566.356     91.26899      182.248     364.7136      2.264     5.24     1212.431     64.28031     146.1738         7     1.482     0.523  41.77  18
       181     65.7566    598.8456 307.8869987  +6.3942135      12271.5     33945.57      40626.8     91.41375     182.3931     364.6048      2.654     6.34     1210.518     64.28031     1545.869        81     2.148     1.858  61.34   0
       182    526.2693    600.3163 307.6953344  +6.4090769      924.319     2593.975     3290.287     91.70258     182.6828     364.7136      2.718     7.46     1204.807     64.28031     112.2296        13     1.618     0.963 -55.62   2
       183    495.2415    598.0974 307.7083202  +6.4089530     539.6435     1345.683     1544.899     91.41375      182.248     364.9311      2.044     3.81      1205.16     64.28031     91.16028         5     1.484     0.281  77.19   0
       184      7.7303    605.5911 307.9109128  +6.3894739     792.5369     1786.035      2910.12     90.83334     182.0302     361.2165      2.678     6.39     1212.655     64.28031      140.491         8     1.692     0.677   3.32  18
       185    711.3490    590.6384 307.6186473  +6.4192709     1757.513     4782.488     5460.646     91.12401     182.3205     364.6048      2.610     8.96     1200.069     64.28031     191.4474        35     1.837     1.473  63.77   0
       186    733.4192    589.1600 307.6095134  +6.4206197      2167.61     5385.051      6163.07     90.97879     182.1754     364.3509      2.447     6.24     1199.598     64.28031     243.8059        38     1.722     1.521 -85.49   0
       187    564.3467    588.6789 307.6798830  +6.4151584     1208.134     1938.041     2812.599     91.41375     182.3931     364.7136      1.635     4.68     1203.274     64.28031     131.7258        10     1.059     0.682  26.79   3
       188    565.0697    585.8403 307.6796780  +6.4163547     1382.426     3190.602     3621.516     91.26899     182.3931     364.7498      2.360     8.05     1203.057     64.28031     157.6019        24     1.863     1.179  15.97   2
       189   1006.3307    584.8845 307.4960920  +6.4315011     3638.144     7238.695     7349.375     91.70258     182.6828     364.7136      2.088     5.22     1193.678     64.28031     388.3556        34     1.597     1.349  66.99   0
       190    310.2715    586.4070 307.7856812  +6.4075728     724.4675     1746.007     1654.928     90.83334     181.8849     364.6048      2.400     7.15     1206.929     64.28031     98.97852        10     1.410     1.015 -64.57   0
       191    971.7791    583.7195 307.5105091  +6.4308294      5510.25     11525.36     13066.47     91.12401     182.0302     364.6411      2.190     5.02     1194.979     64.28031     590.2891        46     1.772     1.451  66.51   0
       192    226.2595    585.6520 307.8206635  +6.4050614     722.8827      1769.27     2521.334     91.41375     182.3205     364.6773      2.143     4.47     1208.302     64.28031     155.8495         6     1.818     0.313  49.67   0
       193    417.3336    578.4922 307.7414003  +6.4144354     1328.342     3777.142     4445.963     91.26899     182.6104     364.6773      2.590     9.65     1205.446     64.28031      161.176        35     2.118     1.554  81.76   0
       194    130.4716    577.7345 307.8607879  +6.4051089     10980.19     31331.36     37499.16     91.41375     182.4655     364.7498      2.680     6.61     1208.404     64.28031     1329.201        80     2.149     1.893  71.35   0
       195    966.6331    566.8717 307.5132170  +6.4376148      4698.25     10009.37     11943.86     91.26899     182.3931     364.6773      2.315     4.96     1194.193     64.28031     481.0283        47     1.857     1.466  58.01   0
       196   1021.7106    561.8355 307.4904664  +6.4415318     66701.02     124985.2     132342.3     91.55827     173.4759     308.8881      1.994     4.47     1191.581     64.28031     7181.338        78     1.830     1.372  83.15  24
       197    560.3472    562.2808 307.6824384  +6.4259248     21521.46     61641.98     73110.38     91.41375     182.3931     364.7136      2.667     6.63     1201.679     64.28031     2124.308        95     2.123     1.979  76.08   0
       198    168.9235    561.6926 307.8453322  +6.4130265       560.32     1082.568     2268.664     91.12401     182.6104     364.6773      2.450     4.06     1207.371     64.28031     129.0889         5     1.653     0.285 -10.61   3
       199    168.2667    558.2355 307.8457226  +6.4144319     1413.314     3438.286     4611.521     91.26899     182.4655     364.7498      2.744     9.44     1207.157     64.28031     180.4451        27     1.806     1.528 -29.08   2
       200     60.5709    553.5226 307.8906938  +6.4127532     790.9814     1975.242     2504.713       91.269     182.4655     364.7136      2.542     7.79     1208.349     64.28031     117.6864        11     2.091     0.812 -68.28   0
       201    457.5949    546.1805 307.7257392  +6.4291283     26449.24     79956.96     97067.62     90.97879     181.9576     364.4597      2.732     7.00     1201.747     64.28031     2786.459       108     2.207     2.021  71.66   0
       202      2.7042    547.9142 307.9149616  +6.4131197      867.418     1506.652     1617.478     91.41375      166.713     299.3227      1.764     6.46     1210.025     64.28031     117.2938         9     1.174     0.998 -74.27  24
       203    131.7050    541.9899 307.8614865  +6.4199098     679.8882     1988.062     2847.834     90.97878     181.9576     364.4235      2.469     4.54     1206.509     64.28031     114.6864         8     1.433     0.409 -30.09   2
       204    304.2474    534.7277 307.7899367  +6.4287098      1060.79      2539.97     3785.798     91.41375     182.4655     364.6773      3.376     7.47      1201.87     64.28031     141.8936        12     1.711     0.913  33.92   2
       205    729.5463    529.6440 307.6131307  +6.4450661     2580.618     6900.851     7863.113     91.41375     182.3931     364.6773      2.534     6.63      1195.92     64.28031     251.2294        48     1.880     1.671  85.68   0
       206    783.0957    524.7306 307.5910122  +6.4488858     7060.077     18337.46     20581.43     91.26899      182.538     364.7136      2.454     6.04     1195.663     64.28031     704.3282        62     1.895     1.774  69.75   0
       207   1000.4383    524.5215 307.5005728  +6.4562306     753.2929     2186.131     2530.192       91.269     182.4655     364.6773      2.579     9.34     1189.775     64.28031     107.6479        12     1.788     1.361  64.87   0
       208   1022.6022    523.8030 307.4913734  +6.4572666     1410.393     2429.484     2343.749     90.39558     161.5573      293.569      1.835     5.67     1188.511     64.28031     165.6008        20     1.436     1.048 -88.57  24
       209    606.7191    523.0894 307.6644645  +6.4436614     1323.506     3437.703     3260.719     91.12401     182.6104     364.7861      2.460     8.99     1197.822     64.28031     137.8831        27     1.675     1.346  75.76   0
       210    922.8445    519.3828 307.5330363  +6.4557631     645.7975      1323.57     2032.125     90.97879      182.248     364.4235      2.168     4.48     1193.125     64.28031     105.4528         6     0.953     0.600  66.55   0
       211    858.8743    507.9150 307.5600434  +6.4583621     1490.299     3700.313     3946.592     91.55827     182.7552     364.7136      2.380     7.80     1193.491     64.28031      151.741        32     1.776     1.388 -88.46   0
       212    817.9120    505.2651 307.5771791  +6.4580876     1466.725     3192.584     3289.863     91.41375     182.6104     364.6411      2.127     8.38     1194.657     64.28031     140.5341        24     1.556     1.288 -53.57   0
       213    798.3638    496.7104 307.5856022  +6.4609666     81536.95     209084.1     242356.6     91.55828     182.3205     364.6773      2.505     6.05     1195.054     64.28031     7377.805       170     2.259     2.079 -36.94   0
       214    244.7326    502.5004 307.8157928  +6.4400170     1904.617     2988.461     3738.672     91.41375      182.538     364.6411      1.869     6.13     1202.041     64.28031      293.912        14     1.744     0.607  52.78   3
       215    247.0455    500.0210 307.8149143  +6.4411186     3358.344     7774.462     10020.85     90.97879     182.3205      364.496      2.543     7.93     1201.732     64.28031     366.3099        45     2.172     1.629  53.07   3
       216    180.2914    495.3687 307.8428495  +6.4407949     24574.11     74369.63     90734.49     91.55828     182.1754     364.6773      2.765     6.92     1204.238     64.28031     2965.599       104     2.231     2.020  71.90   0
       217    103.4459    493.4079 307.8748924  +6.4390187     2017.066     3898.801     5075.383     90.83334      182.248     364.3146      2.136     5.88     1205.363     64.28031     247.6873        17     1.491     0.801  31.44   3
       218    105.3539    491.0545 307.8741783  +6.4400547     2752.053     5760.638     7538.417     91.41375     182.3931     364.7136      2.434     7.22     1205.289     64.28031     363.0067        32     2.260     1.083  39.74   3
       219    968.3972    489.0699 307.5150987  +6.4698007     729.4955     1578.239     1553.362     90.83334     181.9576     364.4597      2.192     5.04     1188.762     64.28031     106.7839         6     1.075     0.669  38.73   0
       220    834.8743    484.0922 307.5708331  +6.4673974     2262.402     5389.562     5340.288     91.41375      182.538     364.6773      2.366     6.15     1193.156     64.28031     248.5312        36     1.643     1.512 -71.34   0
       221    352.5152    484.3506 307.7715560  +6.4511326     5578.292     9916.151     11280.89     91.41375     182.3931     364.7861      1.921     5.92      1197.21     64.28031     622.1467        31     1.872     0.987  33.20   3
       222    354.2899    481.3355 307.7709195  +6.4524372     6944.576     15957.17     18898.01     91.26899     182.6104     364.7136      2.384     6.82      1196.96     64.28031     780.7035        49     2.229     1.246  37.58   3
       223    519.7302    477.0674 307.7022177  +6.4597503     2653.723     7999.422     9768.702     91.41375      182.538     364.6773      2.735     7.38     1194.964     64.28031     280.2307        55     1.981     1.914  53.81   0
       224    787.8342    477.2219 307.5906406  +6.4686620     2579.021     5443.482     6826.471     90.83334     182.1754     364.3872      2.304     7.06     1194.356     64.28031      289.124        25     1.879     0.935  77.61   3
       225    790.3172    476.6676 307.5896259  +6.4689740       1973.8     3571.909      4478.85     91.55827     182.6828     364.7136      2.318     4.75     1194.349     64.28031     247.0366        17     1.403     0.909  61.33   3
       226    167.1537    470.5163 307.8491586  +6.4506149     2753.005     8368.204     9930.486     91.41375     182.3931     364.7136      2.721     7.26     1203.206     64.28031     345.1304        51     1.957     1.786  74.66   0
       227    564.9576    469.3308 307.6836576  +6.4644607     1017.648     3080.148     4156.148     91.26899     182.3931     364.7498      3.285     8.76     1193.905     64.28031     122.0596        19     2.124     1.010  16.08   2
       228    262.2375    466.9600 307.8097120  +6.4552806     33911.45     108030.8     133245.2       91.124     182.3931     364.5323      2.821     7.24     1198.432     64.28031     4063.451       119     2.271     2.086  69.74   0
       229    805.0775    469.3949 307.5837282  +6.4724705     870.4075     1821.932     1757.367     90.97878     181.8122     364.4597      2.114     6.95      1193.35     64.28031     114.4583        14     1.413     1.302 -46.23   0
       230    785.2432    458.9393 307.5923347  +6.4761249     8126.424     20744.65     23784.68     91.41375     182.3931     364.8224      2.479     6.09     1192.601     64.28031     765.6102        68     1.934     1.796  71.29   0
       231    488.9101    457.5815 307.7157016  +6.4667631     17121.75     53256.55     67576.95       91.124     182.1028     364.5685      2.853     6.98     1194.221     64.28031     1709.724       109     2.301     2.118  58.18   0
       232    961.1156    460.4028 307.5190930  +6.4813954     1088.856     2259.703     2392.987     90.68765     181.9576     364.3509      2.192     6.96     1187.407     64.28031     156.2305        17     1.569     1.121  67.33   0
       233     38.6576    469.1172 307.9026757  +6.4468669     2261.022     6638.219     8308.574     91.41375     182.3931     364.7498      2.810     7.79     1204.885     64.28031     235.1143        51     2.019     1.812  73.64   0
       234    647.2858    452.9955 307.6499477  +6.4739636     1115.097     2669.045     3817.506     90.83334     182.0302     364.3509      2.664     7.78     1192.533     64.28031     169.0826        18     2.095     0.809  59.72   2
       235    650.0480    451.6982 307.6488419  +6.4745917      1131.16     2052.147     3459.605     91.41375     182.3205     364.8948      3.254     6.70     1192.451     64.28031     151.1481        15     1.468     0.975  40.99   3
       236    201.8136    454.4655 307.8352795  +6.4584083     905.2744     2253.334     2715.867     90.83334     182.1754     364.6048      2.464     8.28      1200.42     64.28031     120.7948        14     1.488     1.288 -29.79   0
       237    658.4492    451.6581 307.6453470  +6.4748896     660.7433     1771.564     2270.927     91.41375     182.3931     364.7498      2.925     5.51     1192.442     64.28031     85.34705         8     1.063     0.804 -62.84   0
       238    499.8705    445.6559 307.7115433  +6.4720550     814.8957     1876.392     2751.924     91.41375     182.3205     364.6411      2.879     4.41      1193.17     64.28031      98.4635         7     1.381     0.401 -10.07   2
       239    387.2752    447.6851 307.7583313  +6.4674395      703.537     1807.144     1994.636     91.55827     182.7552     364.7498      2.461     7.95     1194.881     64.28031     92.12207        10     1.625     1.087 -67.35   0
       240    318.1176    446.8815 307.7871380  +6.4654490      1397.02     4345.643     5023.637     91.26899     182.6828     364.7861      2.688     7.28     1195.795     64.28031     181.6769        36     1.794     1.613 -62.52   0
       241    133.3552    445.3799 307.8640751  +6.4598567      10781.3     32672.81     39294.91     90.97879      182.248      364.496      2.743     6.86       1202.1     64.28031     1379.651        82     2.191     1.928  71.78   0
       242    860.9889    445.0334 307.5612801  +6.4843986     877.3152     2032.569     2287.339     90.83334     182.0302      364.496      2.383     6.87     1189.812     64.28031     115.6763        12     1.438     0.921 -35.99   0
       243     98.9518    443.4402 307.8784571  +6.4594996     1232.697     3176.905     3430.648     91.26899     182.3931     364.5323      2.518     7.22     1203.099     64.28031     158.3618        26     1.668     1.466  29.91   0
       244    958.5077    439.3868 307.5208851  +6.4899866     3065.405     6514.766     7105.831     91.12401     182.1028     364.4235      2.227     5.28      1186.23     64.28031     349.0094        38     1.688     1.428  84.48   0
       245      1.2974    430.2863 307.9195400  +6.4616417     2046.023     3012.426     3669.324     78.99944     144.6293      273.807      1.516     3.59     1203.351     64.28031      495.691        14     1.513     0.508  88.31  24
       246    429.2072    428.2115 307.7415397  +6.4768879     13988.24     25996.87     28265.32     90.97878     182.1754     364.5685      1.960     5.91     1192.581     64.28031     1489.072        41     1.866     1.053  37.37   3
       247    431.3011    425.6263 307.7407557  +6.4780257     16313.51     36131.23     42838.88     91.55828     182.1028     364.6048      2.380     7.80      1192.43     64.28031     1794.562        61     2.420     1.263  38.24   3
       248    637.3115    427.6242 307.6549546  +6.4841061     4481.438     7917.852     8711.206     91.41375     182.1754     364.5323      1.909     5.03     1190.553     64.28031     542.4091        22     1.492     0.925  39.50   3
       249    638.7018    425.1314 307.6544600  +6.4851820     4821.809     11714.13     13569.85     91.41375      182.538     364.6773      2.408     6.71     1190.313     64.28031     455.0677        41     2.144     1.240  36.52   3
       250    195.5517    424.1165 307.8389137  +6.4707292     8098.243     24444.27     30432.14     91.41375     182.3931     364.7136      2.812     7.21      1197.75     64.28031      872.739        82     2.253     1.987  63.88   0
       251    160.0768    427.4016 307.8535648  +6.4681794     685.5035     1247.701     2013.667     90.68765     181.7394      364.496      2.217     4.93     1199.702     64.28031     127.6913         6     1.269     0.556  40.57   2
       252    163.0105    424.9854 307.8524259  +6.4692758     776.1096     1517.791     2373.015     91.12401     182.1028     364.5685      2.427     2.98     1199.396     64.28031     134.9344         5     0.744     0.699  55.36   2
       253    812.3674    424.2098 307.5822162  +6.4913725     632.7563     934.9909     643.7243     90.83334     182.1028      364.496      1.807     5.96      1188.97     64.28031      89.3938         6     1.151     0.868 -59.15   0
       254    558.5859    424.3254 307.6878288  +6.4828311     953.8657      1963.77     2916.942     90.83334     182.1028     364.4597      2.885     4.74     1190.468     64.28031      129.912         8     1.042     0.611  64.18   3
       255    561.1663    422.0894 307.6868304  +6.4838409     1218.782     2799.256     3503.336     91.55827      182.248     364.6773      2.409     6.27     1190.306     64.28031     153.5212        17     1.620     0.763  63.10   2
       256    971.3049    423.8973 307.5160801  +6.4968098     769.8302     1366.289     1562.846     91.41375     183.0443      364.496      2.006     4.40      1185.16     64.28031     118.2261         6     0.946     0.581   3.22   0
       257    933.7713    419.5833 307.5318461  +6.4973384     2934.855     6613.446     6859.627     90.97879     182.1028     364.6048      2.175     5.74     1185.323     64.28031     301.1859        38     1.723     1.473  67.45   0
       258    606.9943    418.1588 307.6678910  +6.4869993     2578.144     8052.307     9483.125     90.54174     182.0302     364.3509      2.735     7.60     1189.767     64.28031     278.1027        53     1.983     1.824  88.55   0
       259    956.2599    412.0077 307.5227414  +6.5012173     1983.112     4580.829      5179.93     90.68765     182.1754     364.3872      2.277     5.72     1184.642     64.28031     235.8468        34     1.638     1.416  55.27   0
       260    518.3442    411.6806 307.7050030  +6.4867036     2479.118      4077.54     4760.152     91.55828     182.3931     364.7136      1.714     4.98      1190.15     64.28031      278.219        14     1.390     0.810  26.03   3
       261    519.5761    408.8517 307.7045859  +6.4879130     2910.975     7813.295     9472.631     90.83334     182.3931     364.5685      2.595     7.01     1189.774     64.28031     295.3071        43     2.043     1.468  22.52   2
       262    363.9939    410.4403 307.7692796  +6.4820370      923.297     2213.732     3032.626     90.54173     182.0302     364.3146      2.284     8.23     1193.361     64.28031     110.8373        17     2.076     0.911  63.57   2
       263    366.8273    408.7923 307.7681562  +6.4828126     964.7634      1985.76     2743.015     90.97878     182.1754     364.4597      2.328     6.72     1193.121     64.28031       113.36        14     1.591     0.797  72.87   3
       264    875.1627    405.1724 307.5567230  +6.5013320     1625.629     3970.062     5695.299     90.83334     182.0302     364.4597      2.800     7.48     1186.891     64.28031     173.8329        33     1.789     1.392  81.05   0
       265    882.6953    399.3643 307.5537835  +6.5039819     1130.486     2842.533     4061.241     91.55828      182.248     364.7861      2.954     8.73     1186.141     64.28031     118.6941        21     1.540     1.383  41.31   0
       266    921.4932    397.8178 307.5376883  +6.5059162      831.478     1528.362     1403.108     91.26899     182.1028      364.496      1.820     4.74      1184.73     64.28031     119.9099         8     1.354     0.472 -82.49   0
       267    706.7637    396.7156 307.6270928  +6.4991939     1320.679     3446.329     4400.765     91.41375     182.3931     364.6411      2.614     9.07     1187.908     64.28031      153.397        21     1.679     1.396  -5.49   2
       268    378.0851    394.0162 307.7639711  +6.4892919      1501.79     4426.346     5244.913     90.97879     182.1028     364.5685      2.737     9.52     1191.013     64.28031     191.3357        41     1.918     1.712  75.97   0
       269     70.0493    395.4229 307.8921133  +6.4783532     777.9906     2093.823     2838.962     90.97878     182.4655     364.5685      2.620     6.00     1201.351     64.28031     116.5751         8     1.676     0.605 -73.92   0
       270    607.2380    389.9801 307.6687406  +6.4986432     3662.212     7428.136     8527.012     90.97878     182.1754     364.3509      2.161     5.24     1187.723     64.28031     377.2482        22     1.571     0.969  70.76   3
       271    604.7390    391.1411 307.6697415  +6.4980801     3924.723     9156.902     11615.34     91.41375     182.3205     364.7136      2.499     8.09     1187.783     64.28031     414.1503        42     2.355     1.200  78.82   3
       272    768.5172    386.7701 307.6017272  +6.5053665     7671.536     21166.19     25737.32     91.26899     182.1754     364.6048      2.665     6.47     1186.405     64.28031     744.3649        77     2.156     1.906 -63.00   0
       273    288.4183    389.4244 307.8014423  +6.4881762     812.8006     2032.322      2811.29     90.97879     182.1754     364.5685      2.162     4.85     1193.277     64.28031     107.4677         7     1.297     0.515   0.31   2
       274    289.7054    386.4038 307.8010089  +6.4894667     866.8734     1826.393      2747.25     91.12401     182.0302     364.4235      2.468     4.30     1193.065     64.28031     136.5679         7     0.973     0.542  55.65   3
       275    953.1678    381.9797 307.5250383  +6.5135137     1148.182     2306.696     2744.466     90.83334     182.1754      364.496      2.263     7.39     1183.085     64.28031     156.8397        15     1.258     1.215  85.36   0
       276    796.8343    383.1593 307.5900636  +6.5078043     761.3982     1540.317       1847.7       91.124     182.3931     364.4597      1.923     5.55     1185.585     64.28031      112.838         7     1.451     0.599 -12.41   0
       277    104.6132    380.9168 307.8782218  +6.4855067     1399.068     2535.801     3475.279     90.97878     182.1028      364.496      1.998     7.55     1199.734     64.28031      184.229        19     1.930     0.827  66.30   3
       278    107.6322    378.6049 307.8770439  +6.4865630     1787.401     3988.826      5303.62     90.68765      182.248     364.4235      2.612     8.26     1199.495     64.28031     242.3734        35     2.112     1.428  57.57   3
       279    743.1446    380.0214 307.6125144  +6.5073046     880.4395     2206.679     3511.631     90.83334     182.3931     364.4597      3.161     7.04     1186.395     64.28031     129.7373        12     1.279     1.087   9.40   2
       280   1007.4337    376.5941 307.5026340  +6.5175483     2817.726     6601.716     7330.405     90.68765     182.1754     364.4235      2.403     6.55     1180.796     64.28031     272.3577        41     1.928     1.429  36.19   0
       281    342.8238    373.2538 307.7793480  +6.4966810     1332.409     3535.099     4430.274     90.83334     182.3931     364.4597      2.792    10.88     1189.782     64.28031     145.4456        30     2.308     1.639  22.27   2
       282    265.2695    375.8881 307.8115343  +6.4929875     689.7363     1529.603     1968.165     91.41375     182.6828     364.6773      3.101     4.38     1193.258     64.28031     90.02051         7     0.883     0.619  63.78   0
       283    697.2464    372.8604 307.6318581  +6.5087259     694.0626     1438.129     2083.851     91.26899     182.3931     364.7498      2.077     6.18     1186.343     64.28031     92.82214         8     1.735     0.620  18.00   0
       284    823.5847    361.4585 307.5796612  +6.5176594     921.5034     2143.013     1929.711     90.68765     182.3205     364.3872      2.113     7.41      1183.64     64.28031     108.6803        14     1.607     0.956  68.40   0
       285    808.9446    360.9459 307.5857716  +6.5173817     1001.656      2346.73     2524.097     91.70258     182.3931     364.6773      2.265     7.95     1183.667     64.28031     124.1565        18     1.552     1.138  66.66   0
       286    706.8444    358.6892 307.6283414  +6.5148988     6711.689     19370.95     23469.76     91.41375     182.3205     364.7136      2.703     6.85     1185.317     64.28031     663.9098        69     2.044     1.870  74.47   0
       287    626.7523    354.1289 307.6618289  +6.5141006     997.5175     3008.601     3914.909     91.41375     182.3205     364.7136      2.739     7.12     1185.148     64.28031     131.6506        15     2.003     0.709  88.21   2
       288    600.2709    349.8725 307.6729940  +6.5149712      6924.85     20669.62      29650.7     91.70258      182.538     364.6048      3.133     7.78     1184.547     64.28031     722.7225       102     2.812     1.976  39.73   0
       289    931.8669    348.5469 307.5350285  +6.5266081     2295.975     5178.485     5911.298     91.41375     182.3205     364.6048      2.252     5.80     1182.319     64.28031     271.0623        33     1.615     1.469  42.11   0
       290    370.4042    346.4406 307.7687771  +6.5086789     9970.594     19736.89     22265.25     90.54174     182.1028     364.3872      2.052     5.80     1186.324     64.28031     1024.854        38     1.988     1.071  35.91   3
       291    372.5002    343.8072 307.7679938  +6.5098366     10851.87     24978.22     30347.37     91.12401     181.9576     364.4235      2.432     8.26     1186.189     64.28031     1232.471        52     2.367     1.231  36.76   3
       292    118.7590    345.1356 307.8735486  +6.5007573      941.512     2614.592     3464.194     91.41375     182.3205     364.7861      2.923     8.12     1197.606     64.28031     133.1013        17     1.708     1.080 -75.97   2
       293    886.4821    343.8470 307.5540761  +6.5270332     878.7944     2234.563     3185.439     91.41375     182.3931     364.7136      2.870     6.47      1182.26     64.28031     111.3512        11     1.271     0.925  39.22   0
       294    900.7548    338.9169 307.5483016  +6.5295457     2813.068     6576.038     7212.186     91.41375     182.3931     364.6773      2.308     5.54      1181.76     64.28031     329.2542        43     1.721     1.591  51.90   0
       295     50.8411    339.9411 307.9019895  +6.5006151     669.7053     1714.417         2168     91.41375     182.3931     364.7498      2.582     5.77     1200.695     64.28031     134.6758         7     1.307     0.718  74.11   0
       296    228.9613    335.4462 307.8280144  +6.5084659     5391.385      16883.5     19995.74       91.124     182.3931     364.5323      2.725     7.35     1192.851     64.28031     638.2947        72     2.139     1.928  68.16   0
       297    127.6437    326.3281 307.8704889  +6.5088222     1255.243     2064.155     2332.733     91.26899     182.3931     364.7136      1.773     5.07     1196.915     64.28031     203.0811        11     1.481     0.592  48.58   3
       298    130.6945    323.6335 307.8693106  +6.5100375     2332.503     5139.229     6187.932     91.55828      182.248     364.7861      2.433     9.67     1196.748     64.28031     293.7152        37     2.136     1.452  37.71   2
       299    952.4164    327.0251 307.5271995  +6.5361811     666.2513     1567.144     1582.755       91.124      182.248     364.6048      2.107     6.22      1179.08     64.28031     101.3192         7     1.080     1.007 -52.18   0
       300    152.5926    320.1726 307.8603146  +6.5122036     1108.588     2082.978     3140.896     90.83334     182.1754     364.4597      3.399     7.47      1195.68     64.28031     142.6614        16     1.610     0.970 -87.06   2
       301    545.2061    319.1410 307.6969493  +6.5258158     605.3638     1124.965     1068.925     90.83334      182.248     364.3872      1.932     5.36      1180.58     64.28031     91.23645         5     1.168     0.695  81.50   0
       302    375.6429    315.2075 307.7676534  +6.5217515     907.9961     2284.205     2902.163     90.83334     182.1754     364.3509      2.601     6.64     1184.926     64.28031     129.9781        12     1.483     0.834 -40.44   0
       303     24.9057    309.1333 307.9138285  +6.5124620     1629.433     4354.232     5434.711     91.26899     182.6104     364.6773      2.626     8.10      1201.84     64.28031     203.6284        38     1.883     1.596 -79.32   0
       304    429.0321    308.6261 307.7456559  +6.5262612     2779.289     8352.658      10198.9     90.83334     182.1028      364.496      2.749     7.65     1182.528     64.28031     290.9928        50     2.123     1.644 -39.19   2
       305    427.0000    305.9785 307.7465911  +6.5272863      1797.01     2758.098     3509.531     90.83334     181.9576     364.2783      1.403     3.32     1182.435     64.28031     240.3535         8     1.043     0.617  79.55   3
       306    768.8928    305.2721 307.6043173  +6.5390319     6149.062     16600.07     20292.22     91.26899      182.538     364.7498      2.666     6.38     1180.419     64.28031     611.6989        69     2.029     1.901  68.01   2
       307    761.1929    306.7455 307.6074724  +6.5381659     937.8798     2397.607     3421.957     90.83334     182.1028     364.3509      2.992     8.29     1180.602     64.28031     128.4766        16     1.931     0.995 -57.15   3
       308   1012.6667    300.2326 307.5030231  +6.5492551     2389.454     4998.017     5090.514     91.26899     182.4655     364.6048      2.120     5.63     1173.574     64.28031     250.3436        31     1.578     1.347  73.02   0
       309    475.7723    293.7856 307.7267044  +6.5339574     1041.762     1763.487     2759.613     90.97878     182.1754     364.5685      2.048     6.12      1178.76     64.28031     138.1284        13     1.418     0.743  29.52   3
       310    476.5366    290.6020 307.7264939  +6.5352976     1267.947     3190.521     3832.486     90.68765     182.1028     364.4235      2.526     8.73     1178.442     64.28031      152.115        23     1.801     1.181  17.38   2
       311    449.0172    292.2263 307.7378926  +6.5337036     943.5911     2628.714     2943.077     90.97879     182.1028     364.5685      2.624     8.88     1180.197     64.28031     111.6774        18     1.597     1.377 -19.64   0
       312    834.2958    288.1225 307.5776731  +6.5482999     17006.12     43657.75     51746.23     91.12401     182.6104     364.7498      2.523     6.03     1179.321     64.28031     1630.541        87     2.118     1.827  77.64   0
       313    608.6865    280.5038 307.6718329  +6.5438971     839.8448     1499.923     2282.109     91.41375     182.8275     364.7136      2.354     6.45     1177.378     64.28031      120.676         9     1.249     0.934  66.37   3
       314    605.9348    283.0000 307.6728940  +6.5427742     821.3976      1492.95     1671.715     90.54174     181.9576     364.3509      1.728     5.77     1177.501     64.28031     135.2363         8     1.438     0.651   1.39   3
       315    605.1976    279.0208 307.6733351  +6.5443926      1049.76     2097.893     2449.607     90.97879     182.0302     364.3872      2.543     6.21     1177.249     64.28031     143.7527        13     1.142     1.038  66.99   3
       316    689.7581    274.6780 307.6382860  +6.5490174     33818.01     80308.06     97707.85     91.26899     182.3931     364.7498      2.496     7.19     1177.994     64.28031     3641.874        83     2.410     1.573  82.08   3
       317    692.3170    273.6609 307.6372553  +6.5495230      24710.8     40622.65     44869.47     91.55828     182.3931     364.7136      1.766     4.39     1177.937     64.28031     2999.206        26     1.554     1.064  39.79   3
       318    552.5528    272.0736 307.6954812  +6.5454972     1196.194     2843.862     3429.579     91.26899     182.4655     364.6773      2.629     9.09     1176.727     64.28031     166.2341        23     1.870     1.234  53.67   2
       319    554.0027    269.0027 307.6949815  +6.5468138      776.017     1431.764     2221.282     90.68765     181.8849     364.4597      2.335     5.04     1176.526     64.28031       118.34         5     1.264     0.573  54.84   3
       320     90.9968    270.7018 307.8876274  +6.5305569     2712.866     7779.017      9268.74       91.124     182.1028     364.3146      2.634     6.89     1198.056     64.28031     351.4767        44     1.929     1.616 -53.36   2
       321     89.0000    268.0133 307.8885496  +6.5315998     1548.079     2783.186     3598.221     90.83334     181.9576     364.4235      2.323     5.87     1198.163     64.28031     177.3378        11     1.649     0.589  86.99   3
       322    535.7528    269.0056 307.7025773  +6.5462009     2478.885     4349.041     5416.252     90.68765     182.1754     364.3146      1.855     5.06     1176.548     64.28031     287.1407        17     1.412     0.818  40.24   3
       323    538.4404    266.7492 307.7015349  +6.5472227     2633.856     4896.623     6262.406     91.41375     182.3931     364.6411      2.117     5.40     1176.403     64.28031      305.064        23     1.705     0.910  70.29   3
       324    535.3027    265.6676 307.7028774  +6.5475642     2373.247     3980.278     5179.811     91.41375     182.4655     364.6773      1.947     4.31     1176.349     64.28031     279.7576        15     1.248     0.885  62.81   3
       325    398.5049    264.4993 307.7598537  +6.5434574     9170.166     16600.23     18138.75     91.41375     182.9721      364.496      1.998     7.13     1181.341     64.28031      942.848        34     2.004     0.996  53.20   3
       326    401.3776    262.1730 307.7587368  +6.5445144     9400.063     19808.03     25599.61     90.83334     182.1754     364.6048      2.423    11.03     1181.121     64.28031     1075.211        57     2.664     1.272  47.03   3
       327    266.9300    264.8271 307.8146046  +6.5389020     1053.064     3017.832     3655.014     90.97878      182.248     364.6048      2.664     9.87     1188.078     64.28031     150.3958        24     2.029     1.338  38.53   2
       328    505.8946    262.9910 307.7152079  +6.5476834     596.5521     1276.938      1701.34     90.97879     181.9576     364.4235      2.619     4.02     1176.289     64.28031     118.5509         5     1.315     0.352  24.69   0
       329    487.9375    254.9788 307.7229527  +6.5503895     2856.229     4922.925     6976.023     90.97879     182.3931     364.5323      1.920     5.29     1175.875     64.28031     358.0127        22     1.691     0.840  25.47   3
       330    489.5650    252.0189 307.7223753  +6.5516663       3408.6     7959.098     9960.606     90.83334     182.1754     364.4235      2.457     7.57     1175.674     64.28031     359.7351        40     2.218     1.225  30.73   3
       331    756.8038    253.3244 307.6110998  +6.5600782     1154.125     1819.699     2105.611     90.83334     181.8122     364.5685      1.574     6.27     1176.829     64.28031     163.3873        13     1.561     0.708  39.53   3
       332    758.1266    250.2089 307.6106543  +6.5614089     1399.496     3214.982      4164.23     90.97878     181.8849      364.496      2.468    10.23     1176.631     64.28031     174.7351        29     2.571     1.135  38.17   2
       333    378.4756    237.0916 307.7691174  +6.5541020     2778.647     9230.575     11482.11     91.41375     182.6828     364.6773      2.873     7.82     1181.026     64.28031     285.6766        63     2.171     1.919  77.88   0
       334    234.2983    237.1958 307.8291220  +6.5492142     822.5185     2763.541     3340.389     91.12401     182.0302     364.3146      2.852    12.08     1190.283     64.28031     127.8344        26     2.238     1.816  83.27   0
       335    746.2667    232.7814 307.6161783  +6.5682084     24684.14      68692.4     81233.98     90.97879     182.3205     364.5685      2.612     6.49     1175.497     64.28031     2533.789        99     2.122     1.936  74.05   0
       336    417.9439    231.9084 307.7528653  +6.5575672     935.4783     2819.385     3280.334     91.26899      182.248     364.8223      2.776     7.34     1178.391     64.28031     125.9404        14     1.885     0.800 -22.18   2
       337    980.6147    229.5846 307.5187401  +6.5773585     1045.533     1995.848     1646.745     91.12401     182.0302     364.6048      1.982     7.20     1171.703     64.28031     138.0493        14     1.456     1.098  78.82   0
       338    922.0198    228.9330 307.5431520  +6.5756716      1388.89     2978.356     3885.771     90.97879     182.3931     364.5685      2.449     6.55     1173.503     64.28031     160.0958        21     1.434     1.176  41.49   0
       339    403.3119    229.3560 307.7590418  +6.5581300       774.92     1905.261     2494.165     91.41375      182.248     364.7136      2.641     7.37     1179.109     64.28031     124.7019        10     1.417     1.074  62.76   2
       340    406.4466    227.2180 307.7578094  +6.5591180     770.7198     1534.022     2099.815     90.83334     182.3205     364.3872      1.802     3.73     1178.812     64.28031     124.0782         5     1.481     0.270  21.81   2
       341    179.8992    221.6874 307.8522889  +6.5537879     831.6903     2191.672     3400.884     91.41375     182.8998     364.7136      3.252     8.19      1193.13     64.28031     152.8525        10     2.231     0.840 -75.02   2
       342    744.7212    217.4062 307.6173399  +6.5745055     2844.953      7703.39     9687.682     90.97879     181.8122     364.4235      2.700     6.46     1174.795     64.28031       282.02        50     1.978     1.643  47.98   0
       343    761.1386    215.4363 307.6105727  +6.5758681     1396.916     3321.467     4310.297     91.41375     182.3931     364.6411      2.659     8.67     1174.713     64.28031     146.8354        28     1.674     1.382  58.51   0
       344    351.9814    210.1178 307.7810576  +6.5643501     821.5816     1970.928     2265.457     90.97879     182.0302     364.6048      2.461     6.08     1181.986     64.28031     115.3212         9     1.390     0.749  37.98   0
       345    476.3649    208.3609 307.7293452  +6.5692508     729.5722     1471.555     2186.448     91.12401      182.248     364.4597      2.093     5.19     1173.961     64.28031     124.8138         8     1.503     0.507  35.65   0
       346    999.2231    206.0223 307.5117867  +6.5877090     3841.691      7877.27     8634.713       91.124     182.1754     364.6411      2.174     4.98     1169.883     64.28031      401.042        38     1.614     1.433  71.34   0
       347    240.6978    202.8324 307.8276228  +6.5636184     2243.096     6266.975     7803.374     91.41375      182.248     364.8224      2.582     8.38     1190.241     64.28031     266.6039        37     2.010     1.423 -55.14   3
       348    238.4129    200.3708 307.8286572  +6.5645580      1724.93     3088.698      3754.98     90.83334     182.1028     364.5685      1.967     6.52      1190.55     64.28031     210.9933        16     1.815     0.657 -68.39   3
       349    374.3356    192.6215 307.7723453  +6.5723254     686.3444     2255.325     2564.426     90.97879     182.3931     364.5323      2.775     9.88     1180.211     64.28031     101.0656        12     1.694     1.608  71.79   0
       350    960.5854    191.3338 307.5283641  +6.5924849     824.1631     1787.199     1618.093     90.83334      182.248     364.6048      2.304     7.76     1169.758     64.28031     102.0817        13     1.784     0.945  75.95   0
       351    553.5154    183.7210 307.6980649  +6.5820121     930.3402     2644.007     3055.948     91.41375     182.7552     364.7861      2.633     9.39     1172.432     64.28031     123.4421        20     1.707     1.442 -54.52   0
       352    898.4128    182.8498 307.5545296  +6.5939123     960.0652     2170.773     2813.472     90.68765     182.3205     364.3509      2.447     4.84     1171.095     64.28031     131.9342         9     1.072     0.759 -57.01   2
       353    716.2621    182.9062 307.6303493  +6.5877992     2268.019     4549.098     6244.641     91.41375     182.3931     364.7498      2.531     8.83     1173.753     64.28031     249.7002        32     1.943     1.701 -52.66   2
       354    715.9776    180.0000 307.6305657  +6.5889898     1586.743     3009.983     4270.288     90.83334     181.9576     364.3509      1.963     6.40     1173.677     64.28031     226.3407        12     2.000     0.575  -8.57   3
       355    657.7265    180.1821 307.6548068  +6.5869647     840.1462     2411.677      3643.54     90.83334     182.3205     364.5685      2.881     8.38     1172.788     64.28031     114.4919        14     2.026     0.968  22.90   2
       356    217.5259    166.2848 307.8385060  +6.5779300      939.178     2555.807     2859.241     91.55828     182.7552     364.7498      2.660     7.49     1192.542     64.28031     135.6383        13     1.525     1.029  16.59   2
       357    858.1241    165.9385 307.5718698  +6.5995495     797.3441     1694.988     1820.307     91.70258     182.3931     364.6773      2.298     6.01     1171.724     64.28031     108.5377         9     1.450     0.700  82.22   0
       358    749.2579    165.5068 307.6172013  +6.5960879      882.389     1953.927      2352.59     91.26899     182.3931     364.8224      2.347     6.45     1173.605     64.28031     124.9585        10     1.472     0.794  11.16   0
       359    450.7841    156.7954 307.7417363  +6.5896848     8523.133      27895.1     35579.56     90.97878     182.0302      364.496      2.908     7.61     1173.902     64.28031     902.3267        89     2.261     2.115 -71.25   0
       360    776.3810    155.8840 307.6062353  +6.6009686     6533.927      17460.3     21548.62     90.97879     182.0302     364.6411      2.632     6.48     1172.737     64.28031     665.3834        66     2.023     1.799  47.47   0
       361    140.2105    150.0212 307.8712382  +6.5820437     1014.015     2527.612     3134.537     90.97879     182.1028      364.496      2.880     8.75     1194.942     64.28031     137.0742        15     1.713     1.425  49.30   2
       362    912.3741    146.2228 307.5499510  +6.6095029     722.4589      1549.55     1778.651     90.83334      182.248     364.6048      2.165     6.46     1167.913     64.28031     111.8953         9     1.526     0.769  48.62   0
       363    573.8236    144.1740 307.6909473  +6.5990225     1813.584     3490.766     4249.991     90.83334      182.248     364.5685      2.044     5.41     1171.617     64.28031     217.4242        20     1.429     1.090  43.65   3
       364    576.3287    141.6854 307.6899887  +6.6001341     1415.384     2859.844     3343.999     91.55827     182.6828     364.7136      2.161     5.06     1171.595     64.28031     194.8873        13     1.356     0.799  57.94   3
       365    573.7161    140.6570 307.6911109  +6.6004712      1553.53     2540.182     3297.094     91.41375     182.3931     364.7861      1.921     5.58     1171.584     64.28031     205.9971        13     1.421     0.935 -33.68   3
       366    537.9636    143.0481 307.7059124  +6.5982854     942.2104     2388.057     2580.767     91.12401     182.3205     364.5685      2.452     8.56     1171.687     64.28031     128.5244        18     1.864     1.098 -67.74   0
       367    881.5177    138.9377 307.5630410  +6.6114804     6354.189     14921.91     16817.24     91.55827     182.3931     364.6411      2.368     5.53     1168.592     64.28031     660.6943        55     1.857     1.665  65.35   0
       368    935.2081    139.1312 307.5406844  +6.6131937     1754.887     3603.478      3361.89     90.83334     182.1028     364.5685      2.110     6.63     1166.758     64.28031     233.2056        23     1.542     1.270  71.85   0
       369      8.0572    136.1282 307.9267153  +6.5833285     11500.08      33243.7     39843.18     91.55827     182.3931     363.2606      2.691     6.58     1201.605     64.28031     1267.047        84     2.207     1.897  72.87  16
       370    968.1805    136.6971 307.5270406  +6.6152995     6189.844     13147.94     14902.94     91.26899     182.1754     364.3872      2.215     5.06     1166.178     64.28031     670.2828        48     1.809     1.465  72.19   0
       371    678.9341    138.7801 307.6473759  +6.6047705     1015.873     2379.911     4039.845     90.97878     182.3931     364.5685      3.077     6.97     1171.569     64.28031     129.7126        14     1.718     0.793  23.22   2
       372    681.3701    136.6908 307.6464324  +6.6057148     901.2564     2001.869     3058.074     91.55828     182.1028     364.6411      2.843     4.84     1171.524     64.28031     114.0345         7     1.077     0.616  35.15   3
       373    487.3072    134.0720 307.7273018  +6.6002930     804.6904     1560.695      1657.96     91.26899      182.538     364.7498      1.697     5.45     1172.144     64.28031     104.9198         9     1.384     0.605  37.67   2
       374    820.4857    129.0773 307.5887792  +6.6135125     1102.808     2545.574       2335.3     91.41375     182.7552     364.7861      2.268     7.72     1169.662     64.28031     125.1761        21     1.479     1.406  25.34   0
       375    731.8249    124.9996 307.6258239  +6.6122310     19047.71      51661.3     60978.12     90.97879     182.0302     364.4597      2.570     6.24     1171.532     64.28031     2042.116        94     2.148     1.870  70.53   0
       376    872.7471    127.7008 307.5670704  +6.6158274     1142.258     2805.481     3460.749     91.26899     182.3931     364.9311      2.510     7.72      1167.95     64.28031      164.875        23     1.529     1.435  51.99   0
       377    499.0720    127.5898 307.7226237  +6.6033642      892.044      2516.28     2926.992     90.83334     181.9576      364.496      2.740     6.91     1171.925     64.28031     147.6128        12     1.648     0.812  78.06   2
       378    334.9307    124.7294 307.7910451  +6.5990353     2980.496     8568.431     12089.34     91.41375      182.538     364.6411      3.056     8.17     1184.838     64.28031     321.4901        70     2.453     1.919 -82.64   0
       379    965.6783    123.4572 307.5285277  +6.6206831     1719.046     3818.344     4428.174     91.41375     182.3931     364.6411      2.380     6.22     1165.371     64.28031     177.5939        30     1.550     1.380  77.65   0
       380    899.5858    122.0867 307.5560870  +6.6190422     4040.081     9529.517     10681.47     90.97878     182.1754     364.5685      2.376     5.81     1166.721     64.28031     461.3932        47     1.864     1.522  55.77   0
       381    441.8021    122.4587 307.7466363  +6.6035615     1943.639     4139.188     5362.704     90.68765     182.0302     364.3509      2.286     9.11     1174.084     64.28031     230.8732        30     2.209     1.048  64.41   3
       382    445.0519    120.0479 307.7453651  +6.6046661     1569.821     3168.966      4008.86     91.55827      182.248     364.6773      2.186     8.43     1173.911     64.28031      190.814        23     1.882     1.056  50.88   3
       383   1003.7397    122.2211 307.5127249  +6.6224637     1051.003     2435.782     2997.179     90.97879     182.3205     364.6048      2.313     7.43     1164.633     64.28031     125.9437        17     1.377     1.215  81.28   0
       384    100.7348    112.8084 307.8889318  +6.5960799     2218.826     6167.801     6966.162     90.83334     182.1028     364.5323      2.665     5.24     1196.749     64.28031     479.8647        51     2.092     1.693  70.42   0
       385    270.0202    111.5147 307.8185117  +6.6023103     11743.25     22180.59     25457.68     90.97879     182.1028     364.6048      2.054     8.62     1190.863     64.28031     1275.468        41     2.248     1.035  51.27   3
       386    272.7635    109.0032 307.8174549  +6.6034396     12562.74     26566.77     32888.12     90.39558     182.1754     364.4597      2.330     9.63     1190.858     64.28031     1407.209        53     2.454     1.265  44.91   3
       387    246.4390    110.6721 307.8283559  +6.6018653     2710.559     8660.713      11034.6     91.26899     182.3931     364.7498      2.894     7.71     1191.577     64.28031     295.7736        61     2.157     1.922  76.07   0
       388    394.0321    106.5388 307.7670595  +6.6085315     18255.75     35095.62     40287.72       91.124     182.4655     364.6048      2.086     6.92     1178.276     64.28031     2029.295        52     2.180     1.166  43.48   3
       389    396.5363    104.4845 307.7660867  +6.6094638      19474.5     42438.57     52402.85     91.55828      182.538     364.6411      2.467     9.53     1177.928     64.28031     2035.045        52     2.398     1.252  44.21   3
       390    152.2874    106.1564 307.8676992  +6.6005623     1637.515     4435.883     5464.663     91.41375      182.248     364.7136      2.813    10.60     1193.965     64.28031     171.4774        30     2.038     1.536  39.81   2
       391    299.2941    102.6330 307.8066272  +6.6069617     7542.374     23327.28     31389.37     91.55828      182.248     364.7861      2.999     7.34     1189.539     64.28031     802.7736        96     2.333     2.220  41.42   2
       392    308.1331    101.9997 307.8029694  +6.6075202     1041.191     2506.939     4380.064     90.54174     181.8122     364.3509      3.780     8.22     1188.568     64.28031     138.6508        18     1.755     1.281  51.45   3
       393    734.1973    100.8820 307.6256497  +6.6222691     15891.22     42706.13     50187.96     90.68765     181.9576     364.3146      2.551     6.21     1170.181     64.28031     1614.215        92     2.105     1.888  69.34   0
       394     51.2688     98.7369 307.9099991  +6.6002237     4064.707     11903.92     14233.37     91.41375     182.3931     364.7498      2.687     6.87     1199.029     64.28031     416.5796        60     2.078     1.805  79.88   0
       395     86.2866     96.7685 307.8954901  +6.6022162     655.7856     1749.161     2156.855     91.55827     182.1754     364.6048      2.679     6.43     1197.435     64.28031     107.9258         9     1.640     0.708 -78.00   0
       396    992.5582     96.2563 307.5182530  +6.6328122     745.1009     1514.975     2420.622     91.26899     182.3205     364.7136      2.609     3.48     1163.074     64.28031     101.4523         5     0.755     0.464 -72.74   0
       397    993.3278     81.3725 307.5184333  +6.6389838     1376.472     2885.198      3754.34     91.12401     182.3205     364.5685      2.911     6.97     1161.438     64.28031      197.126        19     1.760     0.941  68.59   0
       398    269.9442     75.8017 307.8197532  +6.6170540     12246.22     38890.17     48858.58     90.68765     182.0302     364.3146      2.839     7.17     1191.479     64.28031     1292.966        92     2.216     2.045  72.34   0
       399    584.5923     78.2300 307.6886919  +6.6266129     999.2423     2322.888     3652.743     90.83334     182.1754     364.4235      2.964     5.33      1170.59     64.28031     163.2124        10     1.233     0.728 -65.62   2
       400     14.9566     76.3149 307.9258750  +6.6082579     1566.715     2827.482     3717.469     91.41375      182.248     364.6411      1.788     6.60     1200.784     64.28031     198.0203        14     1.610     0.760  36.69   3
       401     16.6147     73.8357 307.9252691  +6.6093375     1864.454     3786.329     5241.043     90.97879     182.1754     364.4597      2.461     9.83     1200.674     64.28031     201.3524        28     1.858     1.790  15.76   2
       402    701.4639     72.1511 307.6402452  +6.6330373     3855.202     10326.94     12185.16     91.26899      182.248     364.7498      2.604     6.72     1168.947     64.28031     400.3651        54     1.973     1.700  52.46   0
       403    112.3703     69.5160 307.8855576  +6.6143473     2174.365     6295.454     7497.667     91.41375     182.1754     364.5323      2.720     7.27      1194.83     64.28031     234.5924        49     1.914     1.764  61.33   0
       404    383.1253     65.7433 307.7729802  +6.6250102     1698.484      5203.53     7024.821     91.26899     182.3205     364.6048      2.895     9.21      1180.29     64.28031     191.2562        45     1.935     1.785  28.32   0
       405    346.6371     66.1836 307.7881543  +6.6236029     1231.254     2626.226     3848.461     90.97879     182.1754     364.3872      2.968     8.40     1184.942     64.28031     187.8499        17     2.121     0.930  64.08   2
       406    349.5869     64.1386 307.7869956  +6.6245464     1106.159     1926.612     3193.843     90.83334     182.1754     364.3509      2.554     7.60     1184.647     64.28031     191.3243        16     2.267     0.714  38.03   3
       407    102.7341     62.7625 307.8897979  +6.6168113     759.3993     1672.497     2440.767     91.26899     182.3205     364.7498      2.923     6.67      1194.83     64.28031     108.7814        11     1.698     0.735  62.15   0
       408    994.1544     57.9993 307.5188754  +6.6486628     1014.764     1923.594     2186.666     90.68765     182.1028     364.1694      1.969     6.60      1158.87     64.28031     144.1549        15     1.477     1.030  50.58   0
       409    197.3280     50.6457 307.8508333  +6.6249987     1311.339     2204.772     2920.129     91.26899     182.4655     364.6773      2.147     6.50     1192.194     64.28031     173.8168        13     1.474     0.806  61.65   3
       410    199.0149     55.5189 307.8499659  +6.6230433     1974.346     3597.205     4172.234     90.97879     182.1028      364.496      1.975     7.18     1192.227     64.28031     221.4865        19     1.623     0.889  28.27   3
       411    201.4864     52.9802 307.8490231  +6.6241747     1922.957     3850.824     4979.882       91.124     182.1028     364.6048      2.278     6.92     1192.182     64.28031     226.4496        21     1.722     0.979  60.97   3
       412     83.1692     52.3989 307.8982936  +6.6204315     1033.561     2465.312     3795.573     90.68765     182.1754     364.4597      2.985     9.18     1195.552     64.28031     124.0956        17     1.973     1.191  21.89   2
       413    659.8113     52.5257 307.6582471  +6.6397465     2751.796     5879.103     7236.165     90.83334     181.9576      364.496      2.430     7.95      1168.77     64.28031     305.4288        34     2.239     1.176  70.33   2
       414    662.6901     51.3834 307.6570872  +6.6403146     2154.093     3898.323     4913.456     91.12401     182.1028     364.5685      1.943     4.55     1168.684     64.28031     273.7559        16     1.391     0.814  63.64   3
       415    613.0851     49.4156 307.6778039  +6.6394657     4332.017     12243.82     15031.64     90.97878     182.1028     364.5685      2.682     7.22     1168.875     64.28031     496.4166        59     2.124     1.772  69.35   3
       416    616.6931     40.6731 307.6765971  +6.6431964     24115.38     68842.45     83038.48     91.26899      182.538     364.7136      2.694     6.71     1168.502     64.28031     2394.181       102     2.208     1.963  74.31   3
       417    339.2824     47.5154 307.7918479  +6.6310641     1297.182     1760.278     2467.715     91.12401     182.6828     364.7498      1.700     5.80     1186.175     64.28031     156.8151        12     1.371     0.690  36.37   3
       418    341.6345     44.8892 307.7909577  +6.6322275     1678.387     3877.837      5524.82     91.55827     182.3205     364.6773      2.957     9.68     1185.901     64.28031     181.3828        29     2.122     1.230  36.52   2
       419    522.8644     43.6178 307.7155577  +6.6388356     648.5977     1848.929     2371.282     90.97879     182.3931     364.4597      2.808     7.63     1171.453     64.28031     126.4053        10     1.976     0.825  33.73   0
       420    296.2053     34.9700 307.8102047  +6.6347965     1581.021     4620.235     5220.386     90.83334     182.1754     364.4235      2.612     8.02     1191.144     64.28031     185.1945        37     1.786     1.592 -60.09   0
       421    665.4519     27.5157 307.6567430  +6.6502625     658.2408     1508.725     1876.837     91.41375     182.3205     364.7861      2.173     4.44     1167.911     64.28031     119.2953         7     1.596     0.351  76.90   0
       422    931.3162   1021.0097 307.5126453  +6.2489067     1085.921     1513.148     1373.961     90.97878     179.6908     319.4932      1.578     5.36     1221.489     64.28031     135.5833        13     1.317     0.781  48.47  16
       423    959.9733   1015.4346 307.5009117  +6.2521651     3621.524     5851.589     6423.554     90.83334     182.1028     364.4235      1.745     3.79     1221.692     64.28031      456.718        28     1.400     1.128  75.91  16
       424    182.1861   1014.6476 307.8244721  +6.2264410     874.9823     1660.861     1755.906     90.68765      182.248     364.3872      2.120     6.85     1224.329     64.28031       113.86        13     1.443     0.912   9.93  16
       425    817.7534   1013.2489 307.5601463  +6.2483193     881.6815     1487.898     1856.602     91.41375      182.248     364.7136      1.761     4.64     1225.295     64.28031     136.5627         6     0.927     0.658  67.35   0
       426    275.5132   1009.3096 307.7858335  +6.2317812     1771.485     3268.659     3501.916     91.12401     182.8998     364.8224      1.956     5.14     1224.723     64.28031     213.4493        22     1.414     1.102  59.31   0
       427    592.5377   1003.4615 307.6541605  +6.2448278     1470.035     3035.167     2663.376     91.41375     182.3931     364.7136      2.078     6.67     1225.722     64.28031     177.4312        21     1.563     1.088 -79.74   0
       428    149.2661   1000.3442 307.8386494  +6.2312402     12285.96     24611.83     26730.76     91.55827      182.248     364.6773      2.108     4.70      1224.25     64.28031     1384.396        53     1.750     1.468  62.54   0
       429    463.4481    998.9641 307.7080097  +6.2423596     2777.019     5897.153     6667.987     91.26899     182.3205     364.5685      2.224     5.31     1226.057     64.28031     306.2915        34     1.667     1.322  66.14   0
       430    892.5411   1000.3825 307.5294685  +6.2561300      885.048     1096.782      1286.86     90.97879      182.248     364.4235      1.563     5.51     1222.139     64.28031     118.8401         9     1.288     0.665  69.88   0
