#   1 NUMBER                 Running object number                                     
#   2 X_IMAGE                Object position along x                                    [pixel]
#   3 Y_IMAGE                Object position along y                                    [pixel]
#   4 ALPHA_J2000            Right ascension of barycenter (J2000)                      [deg]
#   5 DELTA_J2000            Declination of barycenter (J2000)                          [deg]
#   6 FLUX_APER              Flux vector within fixed circular aperture(s)              [count]
#   9 FLUXERR_APER           RMS error vector for aperture flux(es)                     [count]
#  12 FLUX_RADIUS            Fraction-of-light radii                                    [pixel]
#  13 FWHM_IMAGE             FWHM assuming a gaussian core                              [pixel]
#  14 BACKGROUND             Background at centroid position                            [count]
#  15 THRESHOLD              Detection threshold above background                       [count]
#  16 FLUX_MAX               Peak flux above background                                 [count]
#  17 ISOAREA_IMAGE          Isophotal area above Analysis threshold                    [pixel**2]
#  18 A_IMAGE                Profile RMS along major axis                               [pixel]
#  19 B_IMAGE                Profile RMS along minor axis                               [pixel]
#  20 THETA_IMAGE            Position angle (CCW/x)                                     [deg]
#  21 FLAGS                  Extraction flags                                          
         1    160.3270     18.0178 307.8657462  +6.6675947     3001.281     11860.62     16102.03     93.35132     187.3746      374.712      3.124     9.04     1267.088     66.06222     438.3312        72     2.314     2.110 -68.21   0
         2    505.5623     16.6270 307.7219778  +6.6796576     983.9454      2871.64     4719.802      93.5008     187.2255     374.6002      3.470     9.99     1238.603     66.06222      120.481        25     2.175     1.280 -40.39   2
         3    905.7434     14.6451 307.5553321  +6.6937409     1693.136     4901.143     6095.941     93.94782     187.4491     374.8238      2.811     8.74     1227.879     66.06222     186.3992        39     1.869     1.710  74.16   0
         4    706.2508     13.7760 307.6384694  +6.6874944      627.402     2339.374     2336.044      93.5008     187.4491     374.6747      2.736    10.10     1233.127     66.06222      90.8905        13     1.893     1.503  67.26   0
         5    970.3965     11.2249 307.5285122  +6.6972915     1030.721     2749.534     3300.957     93.35132     187.0763     374.6002      2.601     8.67     1222.865     66.06222     129.7831        21     1.837     1.144 -87.27  16
         6    442.3510     11.9821 307.7484670  +6.6794760     519.4802     1321.274     2062.663     93.35132     187.5236     374.5629      3.127     4.56     1246.268     66.06222     91.20825         5     1.010     0.584 -16.27   0
         7    689.9195      8.0717 307.6454648  +6.6893095      2283.79     8264.041      10308.7     94.24465     187.7469       373.48      2.965     8.37     1233.611     66.06222     323.8875        65     2.269     1.995 -39.46  16
         8    609.1402      5.2759 307.6792109  +6.6877853     968.0009     2038.475     3072.343     94.09635     187.4491     346.8008      2.575     6.25     1234.251     66.06222     105.0945        10     1.221     0.899  -9.14  19
         9    609.5040      9.2071 307.6789270  +6.6861734      1429.26     3280.522     4389.918     93.65004     187.0016     374.5629      2.786     6.46     1234.355     66.06222     146.4277        16     1.497     0.783  17.19  18
        10    411.1082      4.9749 307.7617185  +6.6813320      1959.22     5476.936     6432.095     94.09635     187.1509     342.5057      2.660     8.76     1250.488     66.06222     247.6731        44     2.284     1.556 -21.39  18
        11    410.3966      1.0000 307.7621490  +6.6829503     1218.063     2202.387     3241.568     75.29934      142.106     275.0728      2.316     5.51       1250.9     66.06222     214.6322        11     2.128     0.403  -6.43  27
        12     11.7614      4.1653 307.9281011  +6.6683603     2911.594     9646.904     11664.16     93.65004     185.9531     331.0607      2.860     8.67     1269.675     66.06222     414.1008        58     2.246     1.777 -41.90  24
        13    306.5134      1.6126 307.8054039  +6.6792412     3264.304     5479.396     5563.806     85.70794     153.9916     287.5339      1.715     6.08     1262.865     66.06222     495.7217        20     1.846     0.691  -1.12  24
        14     81.2478      1.6365 307.8992416  +6.6717242     723.0137     1400.997     1678.124      86.0332     154.6251     287.8737      2.292     3.16     1267.901     66.06222     141.5541         5     0.773     0.606 -82.54  26
        15    621.0870    986.0246 307.6412499  +6.2830288     868.0273     1645.522     1745.108     93.94781     187.2255     374.6375      1.866     6.85     1298.316     66.06222     122.4902         9     1.461     0.902  76.46   0
        16    732.1662   1019.6183 307.5938838  +6.2728316     676.8463     1978.006     2661.348     93.35132     187.2255     347.9266      2.495     9.25     1297.342     66.06222     114.2566        13     2.202     1.084  87.83  24
        17    699.2257   1022.8708 307.6074862  +6.2703969     4347.638     7123.029     7432.155     91.23286     162.2927     297.0891      1.729     5.16      1298.43     66.06222     500.6998        24     1.624     0.900  -5.90  24
        18    691.4413   1022.1172 307.6107519  +6.2704503     739.5166     1405.075     2143.526     93.94781     173.2796     310.6021      2.328     7.47     1298.605     66.06222     102.0737        11     1.772     0.881  -8.83  25
        19    566.1508   1023.7511 307.6628493  +6.2656220     2986.902     4639.374      5722.95     80.49838     147.5067     280.4526      1.584     4.48      1299.96     66.06222     728.3024        16     1.704     0.504   2.09  25
        20    555.7103   1022.3790 307.6672413  +6.2658425     2618.791     5141.466     6098.031     93.79905     169.7786     306.2552      2.208     7.13     1299.833     66.06222     280.1238        35     2.010     1.297   0.02  24
        21    414.2939   1023.0249 307.7260833  +6.2608810     2243.802     3765.081     4062.822     90.15496     159.9524     294.0177      1.816     5.66     1300.509     66.06222     304.2867        20     1.681     0.808   1.45  24
        22    580.0341    987.7613 307.6582803  +6.2809501     773.1137     1476.069     991.9827     93.65004     187.2255     374.5256      1.605     4.98     1298.735     66.06222     152.5911         7     1.670     0.420   2.58   0
        23    464.2628    983.4862 307.7066149  +6.2788741     1183.954     2883.013     2778.458     94.09635     187.6725     374.8238      2.333     9.36     1299.265     66.06222     139.5404        24     1.689     1.447 -25.96   0
        24    898.5323    975.4160 307.5261135  +6.2965969     32156.06     64135.36      69454.9     93.35132     187.3746     374.6747      2.077     4.62     1295.048     66.06222     3741.009        72     1.840     1.490 -36.55   0
        25    207.0332    973.7393 307.8140154  +6.2743484     896.3965     1794.359     2502.837     93.65004     187.5236      374.712      1.927     5.66     1299.341     66.06222     124.7727        10     1.318     0.686  28.38   0
        26    796.6675    969.0862 307.5687297  +6.2958422     1653.915     3538.157     4170.634     94.09635     187.7469     374.8238      2.266     5.33     1295.602     66.06222     218.4722        22     1.380     1.250  13.07   0
        27    744.6033    967.1912 307.5904664  +6.2949016     4180.052     9551.651     11253.83      93.2016     187.0763     374.6375      2.377     5.43     1294.899     66.06222     535.3923        47     1.884     1.481 -44.52   0
        28     39.9404    964.8348 307.8838670  +6.2724597     1605.508     3778.178     5007.423     93.79905     187.4491     374.7493      2.766     6.72     1298.346     66.06222     175.2339        27     1.555     1.376  89.33   0
        29    932.8552    962.1810 307.5122690  +6.3031990     5157.496     10294.42      10905.6     93.35132     187.4491     374.5629      2.066     4.69     1293.589     66.06222     683.8951        40     1.757     1.320 -42.31   0
        30    214.7200    965.8154 307.8110832  +6.2778776     915.2631     1793.725      2162.85      93.5008     187.1509     374.5629      2.605     6.76     1299.333     66.06222     123.1914        12     1.766     0.726 -11.45   0
        31    906.3648    953.7415 307.5235793  +6.3058099     1430.464     2780.801      2843.06     93.79905     187.4491     374.7865      1.957     7.11      1292.93     66.06222     145.9856        18     1.323     1.071 -35.69   0
        32    239.8284    950.6870 307.8011422  +6.2849628     2298.417     6010.758     7173.431     94.09635     187.1509     374.6375      2.526     7.63     1299.255     66.06222     292.1302        41     1.948     1.567 -33.61   0
        33    627.5291    949.8470 307.6397840  +6.2981876     2735.385     6246.023     6363.068     93.94781     187.4491     374.7865      2.271     5.82     1296.432     66.06222      322.092        36     1.768     1.384 -23.80   0
        34    766.6255    949.6893 307.5818864  +6.3028609     878.5613     1385.446     2139.407     94.09635     187.2255     374.6002      1.937     4.70     1294.145     66.06222     107.8618         8     1.008     0.622 -22.69   0
        35      8.6374    948.1701 307.8974599  +6.2782998     1353.936     2984.905     2475.376      93.5008     187.1509     374.6375      2.138     6.27     1297.442     66.06222     184.6737        22     1.476     1.314   0.49  16
        36    858.3799    947.7129 307.5437568  +6.3067136     674.0615      1421.24     1619.823     93.65005     187.1509     374.6747      2.496     4.65     1292.692     66.06222     123.9763         6     1.107     0.734  44.41   2
        37    983.6742    941.6448 307.4918015  +6.3133620     781.0087      1531.11     1733.163     93.79905     187.5236     374.8238      2.039     4.61     1291.327     66.06222     121.6899         9     1.137     0.832 -28.31   0
        38    552.9502    941.3336 307.6711155  +6.2992312     921.2039     1671.612     1876.324     93.79905     187.3001     374.7493      2.016     4.96      1297.31     66.06222     141.7992         9     1.247     0.559  15.22   0
        39    591.4178    938.4207 307.6552003  +6.3017105     825.2065     1768.479     2361.787     93.65005     187.3001     374.6747      2.617     5.35     1296.785     66.06222     106.7325         7     1.177     0.687 -33.68   0
        40    875.5872    928.9877 307.5372213  +6.3150183     4643.792     9958.402     10500.92     93.79905     187.0763      374.712      2.196     5.30     1290.622     66.06222     549.0457        42     1.769     1.405 -26.89   0
        41    313.3712    925.2346 307.7713875  +6.2979237     4535.923     12807.25     15246.22     93.35132     187.1509     374.5256      2.618     6.32     1298.548     66.06222     548.1831        59     2.004     1.770 -32.04   0
        42    233.7932    926.4167 307.8044732  +6.2947879     1950.465     3222.239     4182.716      93.5008     187.1509     374.6002      1.757     6.74     1298.512     66.06222     266.9834        14     1.690     0.753  -3.36   3
        43    233.9691    923.0660 307.8045130  +6.2961779      3388.84     7146.834     8410.574     93.65004     187.4491      374.712      2.240     7.15     1298.427     66.06222     439.4432        34     2.044     1.191  -6.40   3
        44    412.1874    925.4481 307.7302460  +6.3011202     1062.419     2422.399     3251.617      93.2016     187.3001      374.451      2.562     6.65     1297.852     66.06222     157.2926        15     1.554     0.798  13.66   0
        45    561.4219    917.0485 307.6684056  +6.3095446     766.4101     1347.007     1238.188      93.5008     187.4491     374.6747      1.930     4.61     1296.529     66.06222      112.828         6     0.938     0.642 -19.20   0
        46    891.2259    913.2236 307.5312394  +6.3220478     772.3062     1579.146     1910.531     93.35132     187.3001     374.6747      2.296     5.66     1289.845     66.06222     108.7686         8     0.991     0.911 -21.22   0
        47    728.5978    906.7367 307.5991586  +6.3193459     914.9955       1784.1     1902.291      93.2016     187.1509     374.5256      2.074     7.22     1292.333     66.06222     123.1566        13     1.277     1.144  11.49   0
        48    958.9425    902.6578 307.5034030  +6.3286510     879.8131     1540.731     2362.364     93.94781     187.4491     374.8238      2.728     6.79     1288.588     66.06222     120.9502        10     1.246     1.038 -32.94   0
        49    646.8536    900.4990 307.6333977  +6.3192143     1290.674     3000.841     3623.038     93.79905     187.4491     375.0845      2.372     6.95     1293.256     66.06222     181.0557        22     1.543     1.227   0.80   0
        50     43.2236    897.2188 307.8847859  +6.3005007     1568.605      3668.17      3926.47     93.65004     187.3746      374.712      2.394     6.74      1296.03     66.06222     206.7051        24     1.543     1.295 -77.18   0
        51     61.9782    897.0593 307.8769845  +6.3011919     899.3323     2231.906     2023.306      93.5008     187.3746     374.6375      2.239     4.81     1296.171     66.06222     160.1416         8     1.288     0.509 -62.83   2
        52    186.3802    895.7324 307.8252451  +6.3058851     1146.657     2714.645     3454.671      93.5008     187.4491      374.712      2.757     7.93     1297.247     66.06222     170.1569        20     1.672     1.050   9.10   0
        53    924.6255    894.9561 307.5179473  +6.3306986     611.2269     1102.859     895.6514      93.5008     187.5236     374.6375      1.729     4.37      1288.76     66.06222     109.0559         5     0.837     0.649   5.67   0
        54    640.8887    889.9031 307.6362369  +6.3233938     3484.403     9172.516     10512.53     93.94781     187.9699     374.8238      2.500     6.44     1292.928     66.06222     446.6641        48     1.975     1.568 -36.52   0
        55    878.0833    886.0320 307.5376223  +6.3328465     1841.467     4194.148     4571.414     93.94781     187.2255     374.6375      2.230     6.85     1288.832     66.06222     209.5452        30     1.763     1.264 -44.15   0
        56    324.0638    883.4603 307.7683447  +6.3155363     7379.301      21270.1     25926.99     93.94781     187.3746     374.8238      2.703     6.51     1297.682     66.06222      845.396        72     2.114     1.856 -35.36   0
        57     58.7572    883.9726 307.8787676  +6.3064905      736.387     1698.617      1527.55      93.5008     187.4491     374.6375      2.017     6.35      1296.01     66.06222     127.7704        10     1.607     0.704  64.71   0
        58     87.9748    873.6057 307.8669556  +6.3117471     895.0638     2064.942     2455.806     93.35132     187.2255     374.6002      2.395     7.51     1296.111     66.06222     113.9908        14     1.348     1.172  -5.90   0
        59    869.2106    867.7281 307.5419297  +6.3401146     1124.861      2621.09     2355.544     93.35132     187.0016     374.6002      2.223     7.67     1288.194     66.06222     152.9675        17     1.572     1.215 -32.20   0
        60    839.9553    866.0995 307.5541637  +6.3398197     1105.573     2474.782     2981.344     93.94781     187.3746     375.0473      2.644     7.15     1288.801     66.06222     145.3888        15     1.767     0.810 -19.04   2
        61     72.5339    867.0094 307.8736060  +6.3139572      1056.11     2477.173     3587.265     93.35132     187.2255     374.6747      2.791     5.48     1295.927     66.06222     161.5215        10     1.161     0.861  32.46   2
        62    803.2130    866.5353 307.5694453  +6.3384239     1677.505     3977.082     4725.006     93.35132     187.2255     374.6747      2.490     6.91     1289.795     66.06222     188.4604        27     1.637     1.230  -6.98   0
        63    539.0195    858.4430 307.6797027  +6.3330116     146723.3     428975.3     510986.4     93.35132     187.3001     374.5629      2.680     6.63     1295.686     66.06222      16575.3       180     2.289     2.001 -40.16   0
        64    384.0465    863.4725 307.7440482  +6.3257874      1879.53     3000.865     4297.436     93.79905     187.5236     374.7865      1.603     5.27     1297.135     66.06222     265.7754        14     1.597     0.639 -28.86   3
        65    383.8171    860.1160 307.7442568  +6.3271663     3466.149     7878.302     9229.388      93.5008     187.0763      374.712      2.384     7.24     1296.934     66.06222     391.6233        44     2.267     1.387 -22.20   3
        66    326.5269    859.7038 307.7681202  +6.3254320     5098.892     16107.71      19257.7     93.65005     187.5981     374.7493      2.763     7.15     1297.074     66.06222     622.3225        66     2.192     1.864 -41.43   0
        67    645.0145    855.5680 307.6356731  +6.3377147     1863.559     4994.032      5785.77      93.5008     187.1509      374.712      2.596     7.10     1291.117     66.06222     214.9604        38     1.882     1.470 -34.58   0
        68    877.0494    854.2982 307.5391165  +6.3459220     3026.299     7407.953      8697.27     93.94781     187.3746     374.9728      2.506     6.51       1287.3     66.06222     362.2633        41     1.834     1.521 -39.57   0
        69   1010.4235    848.2900 307.4837914  +6.3528119     3219.401     6646.499     7092.689     93.94782     187.2255     374.6375      2.228     5.08      1283.32     66.06222     408.6154        39     1.843     1.350 -53.38   0
        70    619.3281    848.1654 307.6466154  +6.3399212     1577.013     3914.849     5129.546     93.79905     187.3746     374.7865      2.944     9.05     1291.089     66.06222     190.2874        30     2.088     1.659 -38.46   2
        71    808.4600    848.1713 307.5678770  +6.3461839     842.1706     1690.751     2028.347      93.5008     187.5236     374.7493      2.523     5.41     1288.408     66.06222     107.4496         9     1.356     0.608 -36.02   0
        72    611.4696    846.7888 307.6499332  +6.3402293     976.4261     2407.757     4038.801     93.35132     187.2255     374.6002      3.666     6.71     1291.148     66.06222      123.746        15     1.556     0.811  18.23   3
        73    613.4831    843.0383 307.6492211  +6.3418455     1038.657     2339.708     2992.111     93.94781     187.3746     374.7493      2.472     6.58     1290.884     66.06222     127.4475        12     1.415     0.859  39.93   3
        74    896.0447    841.8561 307.5316255  +6.3516900      1966.62     3946.104     4224.904     93.94781     187.4491     374.7865      2.139     5.79     1286.223     66.06222     239.8716        25     1.651     1.157 -24.72   0
        75    353.5660    838.2764 307.7575862  +6.3351827     1154.655     3212.628       4730.9     93.79905     187.4491     374.7493      3.136     6.94      1295.58     66.06222     156.0117        19     1.744     1.139 -82.51   2
        76    491.0776    827.7130 307.7006952  +6.3441151     1265.007     3916.621     4843.151     93.94781     187.8213     374.8983      2.844     9.16     1294.127     66.06222     186.5856        31     1.988     1.644  12.63   0
        77    537.7768    824.3162 307.6813681  +6.3470684     2445.673      7624.26     10285.59     93.79905     187.1509      374.712      3.080     8.35     1292.973     66.06222      296.365        56     2.342     1.747 -18.52   0
        78    872.9583    821.1083 307.5419326  +6.3594978      885.514     975.1409     1513.309     93.94781     187.4491     374.8983      1.370     5.28     1285.361     66.06222     128.3735         9     0.946     0.833  77.03   0
        79    508.0675    818.1313 307.6939446  +6.3486374     8051.839     24580.72     29785.09     93.94781     187.5981     374.7865      2.756     6.98     1293.101     66.06222     944.0369        77     2.172     1.924 -42.34   0
        80    457.4178    822.2034 307.7148936  +6.3452734     603.3062     1374.068     1737.506      93.5008     186.9269     374.5629      2.243     4.94     1294.019     66.06222     120.4822         5     1.109     0.622  20.82   0
        81    921.6556    815.9353 307.5218318  +6.3632450     2335.844     4988.732     5526.145     94.09635     187.4491     374.7865      2.119     5.77     1283.866     66.06222     245.1635        30     1.595     1.324 -27.23   0
        82    300.9604    805.9523 307.7805757  +6.3467865     1380.405     3731.738     4678.246     93.79905     187.4491     374.5629      2.716     8.31     1295.648     66.06222      180.559        31     1.789     1.491   9.76   2
        83    766.1213    802.4550 307.5870378  +6.3636684     27423.77     71485.61     82918.05     94.09635     187.4491     374.8238      2.548     6.27     1285.987     66.06222     3263.295        97     2.147     1.828 -43.75   0
        84     19.9529    808.2179 307.8974819  +6.3364900     817.2357     1738.841     1573.901     93.35132     187.3746     374.5256      2.428     4.55     1292.145     66.06222     130.6526         7     0.979     0.602 -16.91   0
        85      2.6721    805.4912 307.9047679  +6.3370399     910.3412     1483.637     1468.117     93.79905      170.681     307.0749      1.858     7.51     1291.793     66.06222     109.9464        13     1.672     0.943 -74.58  24
        86    223.4570    800.8036 307.8130145  +6.3463343     2064.064     7118.633     10678.28      93.2016     187.3001     374.4137      3.345     8.80     1296.022     66.06222     257.0559        62     2.352     1.963 -79.53   1
        87    689.3318    794.3200 307.6192808  +6.3644856     32344.32     106264.8     158631.7     94.09635     187.7469     374.7865      3.327    10.26      1287.23     66.06222     4566.125       175     3.464     2.182  25.57   0
        88    891.2076    797.6439 307.5351215  +6.3697948     4801.839     11548.15     13493.95     93.35132     187.2255      374.451      2.417     5.93     1283.498     66.06222     551.3523        49     1.973     1.520 -33.67   0
        89    333.1315    794.9111 307.7675549  +6.3524175     7898.111     25987.72     32255.63     94.09635     187.6725     374.7493      2.859     7.10     1293.801     66.06222     874.0632        85     2.261     2.032 -37.60   0
        90    394.9757    792.7020 307.7418827  +6.3553861     8360.367     27332.71     33406.68     94.09635     187.1509     374.6375      2.831     7.39     1292.519     66.06222     950.4384        82     2.233     2.006 -39.27   0
        91    223.0584    779.4768 307.8139002  +6.3551311     740676.2      2606578      3349212     94.09635     187.4491     374.7493      3.014     7.84     1294.474     66.06222     63325.03       522     2.546     2.437 -62.12   4
        92    888.2742    789.0829 307.5366297  +6.3732345     3836.833     9031.535     10167.75     94.09635     187.8213      374.861      2.404     5.66     1283.129     66.06222      480.473        47     1.894     1.548 -39.71   0
        93    628.9259    788.3513 307.6446302  +6.3649492     2590.433     7802.855     8808.643     93.94781     187.5236     374.8238      2.685     7.71     1287.676     66.06222     299.2207        50     2.037     1.718 -41.82   0
        94    418.9727    786.9921 307.7320846  +6.3585422     803.0397     2136.348     1887.599      93.5008     187.2255     374.5629      2.386     8.31     1292.028     66.06222     110.2203        10     1.789     1.080 -80.81   2
        95    663.8268    777.5020 307.6304644  +6.3705881     1214.653     3042.804     3769.462     94.09635     187.1509     374.7493      2.840     7.22     1286.726     66.06222      174.177        20     1.719     1.228 -42.66   2
        96    397.9666    775.3276 307.7412229  +6.3626629     19765.38      65299.3     82090.71     93.79905     187.4491     374.7493      2.878     7.48     1291.644     66.06222     2319.549       110     2.336     2.088 -42.02   0
        97    515.5677    773.3121 307.6923304  +6.3674014     2974.475     7971.879     10466.69     94.09635     187.3001     374.7865      2.858     8.03     1289.607     66.06222     334.5603        49     2.201     1.764 -32.34   2
        98    432.4444    772.3624 307.7269688  +6.3650334     1681.251     5790.541     9179.383     93.65005     187.4491     374.6375      3.508    12.07     1291.128     66.06222     195.6609        56     2.518     2.064  66.26   2
        99    760.6099    770.5595 307.5904031  +6.3766623     5436.928     14899.82     17489.37      93.2016     187.2255      374.451      2.604     6.55     1283.408     66.06222     675.4034        59     2.089     1.668 -34.85   0
       100    117.8034    762.6747 307.8582863  +6.3585661     4272.926     13343.13     21212.99     93.35132     186.8522     374.6747      4.108    12.15     1291.983     66.06222       536.99       126     4.291     2.104  22.15   2
       101    906.1818    759.0034 307.5301824  +6.3862529     3499.835     8459.916     9663.887      93.5008     186.9269     374.5629      2.385     5.73     1281.458     66.06222      478.004        45     1.910     1.486 -44.47   0
       102    932.0757    790.8766 307.5183333  +6.3739416     1430.868     2953.137     3193.591     94.24465     187.7469     374.8983      2.160     7.87     1282.237     66.06222     201.3348        19     1.681     1.214 -58.81   0
       103    955.6691    758.2920 307.5096021  +6.3881826     1042.685     2060.972     2944.172     93.94781     187.5981     374.7865      2.346     6.98     1280.748     66.06222     144.3193        14     1.303     1.214  41.65   0
       104    663.7653    756.5633 307.6311936  +6.3792360     752.3443     1809.629     2164.617     93.65004     187.1509     374.5256      2.705     6.49     1285.359     66.06222     95.96057         9     1.322     0.896 -61.55   2
       105    548.0311    754.6262 307.6794435  +6.3761981     853.3922     2251.322      3326.96     93.35132     187.1509     374.6002      3.471     8.99     1287.472     66.06222     122.8536        12     2.008     1.123  28.32   2
       106    383.1937    793.1960 307.7467711  +6.3547904     574.1509     1153.905     1342.526     93.20159     187.0763     374.6747      2.518     4.52     1292.625     66.06222     87.46692         5     0.784     0.739 -29.94   0
       107    900.3530    750.9063 307.5328806  +6.3894052     1574.778     4035.926     4418.061     93.79905     187.3746     374.9355      2.391     6.87     1281.158     66.06222     212.4695        30     1.922     1.289 -30.78   0
       108    960.3159    750.0436 307.5079437  +6.3917437     1295.337     2806.193     2919.158     93.94781     187.3746     374.7865      2.201     5.71     1280.346     66.06222     191.5109        17     1.495     1.157 -87.96   0
       109    929.5982    750.5878 307.5207150  +6.3905036     1563.479     3652.047     3848.192      93.5008     187.0763     374.5256      2.295     7.11     1280.961     66.06222     203.1696        29     1.684     1.321 -25.67   0
       110    226.4503    744.5458 307.8136670  +6.3696739     928.7881     2653.494     4858.896     93.94782     187.4491     374.8238      3.126     7.23     1292.054     66.06222     136.2256        14     1.890     0.775  22.39   0
       111    944.8679    738.1827 307.5147730  +6.3961331     1408.516     3424.128     3738.213     93.35132     187.3746     374.6747      2.329     8.58     1280.194     66.06222     188.2319        26     2.009     1.097 -43.65   0
       112   1018.5969    732.2281 307.4842746  +6.4010289     4567.677      9962.28     10808.74     93.35132     187.1509     359.8833      2.228     5.06     1278.091     66.06222     552.2849        45     1.801     1.459 -35.90  16
       113    986.4968    731.4556 307.4976658  +6.4002877     1065.589     2434.731     2467.488     93.79905     187.4491       375.01      2.285     6.18     1278.738     66.06222     168.8228        17     1.624     1.220 -44.51   0
       114    788.2000    729.1633 307.5803054  +6.3946770      600.884     1353.309     1701.154     92.75098     187.1509     374.5256      1.962     4.35     1280.046     66.06222     88.82288         5     1.584     0.340 -45.48   0
       115    874.7535    726.6243 307.5443533  +6.3985899      888.932     1608.823     2356.661      93.5008     187.4491     374.6375      1.830     4.81      1279.92     66.06222     140.8083         7     1.113     0.590 -27.82   0
       116     30.7018    718.0873 307.8960550  +6.3740807     1079.994     2951.562      3948.66     93.94781     187.9699     374.8238      3.080     9.50      1289.26     66.06222     132.5647        22     1.677     1.501  28.45   0
       117    830.9103    718.0532 307.5628954  +6.4006803     752.4542     1805.434     1953.398     93.94781     187.2255     374.9355      2.593     4.89     1279.481     66.06222     112.7693         8     1.116     0.607 -62.22   0
       118    643.0097    709.0000 307.6414337  +6.3981968     1643.115      2757.62     3640.169     93.05164     187.0016      374.451      1.751     5.91     1281.847     66.06222     214.1438        11     1.757     0.559  -3.62   3
       119    642.9906    705.5660 307.6415571  +6.3996148     2587.158     6600.215     8188.907     93.35132     187.2255     374.6002      2.587     8.00      1281.55     66.06222     311.3591        45     2.135     1.598  -5.93   2
       120    106.2685    702.0008 307.8651385  +6.3832457     1464.981     4035.641      5634.58     93.35132     186.9269     374.5629      2.968    10.39     1288.004     66.06222     161.0031        39     2.217     1.563 -15.86   2
       121    589.9298    705.0000 307.6636683  +6.3980891     595.5709     1574.615     1432.508     93.35132     186.8522     374.5256      1.797     3.85     1283.028     66.06222     87.89856         5     1.471     0.289   0.00   0
       122    979.6628    701.3422 307.5015199  +6.4125022     1726.323     3675.732     4054.168     94.09635     187.3746     374.8238      2.231     7.45     1276.539     66.06222     203.2201        26     1.730     1.289 -40.39   0
       123    759.7185    698.6487 307.5931884  +6.4063400     8555.279     25319.69     30474.77     93.94782     187.4491     374.7865      2.722     7.08     1278.498     66.06222     976.6277        81     2.202     1.923 -33.52   0
       124    889.3701    698.1701 307.5392216  +6.4108281      1873.08     4895.263     5289.823     93.35132     187.1509     374.4883      2.544     9.66     1277.809     66.06222      214.666        38     1.950     1.462 -54.43   0
       125    617.4164    700.6333 307.6523709  +6.4008046     820.7921     1588.873     2652.994      93.5008     187.1509     374.6375      1.962     3.41     1281.689     66.06222     119.8962         5     1.091     0.309  20.70   0
       126    920.1083    696.7177 307.5264718  +6.4124445     2345.313     2254.239     1782.948     93.65004     187.8213      374.861      0.569     0.59     1276.986     66.06222     1457.158         6     0.522     0.396  83.25   0
       127    641.7436    689.9954 307.6425997  +6.4060058     2629.169     5340.336     7351.817     93.20159     187.3001      374.451      2.549     9.09     1279.988     66.06222     282.8522        26     2.005     1.150  84.34   3
       128    639.0000    690.0354 307.6437406  +6.4058983     2192.914     5170.158     7573.058     92.75098     187.1509     374.5256      2.891    10.83     1280.059     66.06222      283.855        28     3.100     1.053 -79.32   3
       129    233.9144    695.5345 307.8122136  +6.3901689     1453.949     2107.406     3584.187     94.09635     187.6725      374.861      1.773     4.11     1288.663     66.06222     213.8652        10     1.125     0.628 -29.38   3
       130    233.9389    691.6738 307.8123337  +6.3917645     2368.594     6045.886     7472.196     94.09635     187.4491     374.7865      2.669     8.90     1288.387     66.06222     245.5291        47     2.261     1.669 -16.45   2
       131    712.2689    679.8640 307.6135757  +6.4125285     1502.329     4620.593     5566.354     93.94781     187.5236     374.8238      2.870    10.10     1277.818     66.06222     169.5084        41     1.957     1.687 -48.17   0
       132    978.1203    676.3000 307.5030012  +6.4227966     5117.945     12346.34     13708.23     93.65004     187.7469     374.8238      2.408     5.69     1274.606     66.06222     668.7262        53     1.895     1.616 -43.41   0
       133    916.8705    676.5969 307.5284944  +6.4206496     1266.159     3181.077      3668.27     93.35132     187.0016     374.6002      2.504     8.82     1275.321     66.06222     129.3571        28     1.597     1.427  -3.57   0
       134     55.8643    672.0710 307.8871351  +6.3939289     8989.437     31097.78     39094.81     93.94781     187.4491     374.8238      2.939     7.75     1287.442     66.06222     1078.032        84     2.225     2.105 -63.84   0
       135    516.5048    670.7906 307.6953905  +6.4097847     920.7488      1493.98     1944.876     93.65004     187.0016     374.5256      1.961     4.19     1284.133     66.06222     130.8956         7     0.963     0.709  -0.65   0
       136    723.7474    661.9877 307.6093968  +6.4202937     1533.614     5233.946     6087.683      93.2016     187.3746      374.451      2.724     9.14     1276.596     66.06222     202.2958        46     2.039     1.820 -56.87   0
       137    701.8345    663.1401 307.6184821  +6.4190917     1377.617     4273.469     5224.992     93.79905     187.4491     374.7493      2.857    10.29     1276.834     66.06222     162.0133        34     1.848     1.596  13.30   0
       138    555.0411    659.5377 307.6797239  +6.4157124     1273.065     3845.161         5045     93.94781     187.3746      374.861      2.979    10.29     1281.671     66.06222     152.8212        36     2.026     1.720 -47.44   0
       139    393.2953    660.7875 307.7470272  +6.4098244     575.3617     1129.898     1874.727     93.65004     187.1509     374.5629      1.966     6.16     1285.618     66.06222     105.2372         6     1.420     0.750 -83.77   0
       140    215.4225    662.1558 307.8210392  +6.4033419     569.2192     1538.762     2607.112     93.35132     187.3001     374.5629      3.061     6.24     1286.275     66.06222     101.9077         9     1.678     0.652  -4.87   2
       141    996.3382    657.7678 307.4960363  +6.4310544     2839.741     7085.293     7693.851     93.65005     187.5236      374.712      2.375     5.87     1273.331     66.06222     359.9855        44     1.844     1.540 -34.83   0
       142    961.7356    656.6825 307.5104808  +6.4303595     4372.709     10890.62     12382.69     94.09635     187.5981     374.8238      2.441     6.03     1273.336     66.06222     459.4409        54     1.981     1.643 -36.25   0
       143    120.5931    650.8779 307.8609022  +6.4048416     7978.712     28587.29     36331.59      93.5008     186.8522     374.5256      2.959     8.28     1285.345     66.06222     1026.138        86     2.245     2.151 -49.07   0
       144    408.6006    650.2845 307.7410085  +6.4146720     1129.972     3161.381     4872.167     93.05164     186.8522     374.4137      3.290     8.81     1284.492     66.06222     164.2363        21     1.959     1.105  22.67   2
       145    956.6857    639.6024 307.5131558  +6.4372486     3911.693     9525.948      11347.4      93.2016     187.0016      374.451      2.452     5.68     1272.197     66.06222     441.2417        52     1.931     1.656 -22.76   0
       146    550.4036    635.2480 307.6824721  +6.4255927     15267.63     56579.05     73165.93      93.2016     187.1509     374.3391      3.009     8.22     1279.943     66.06222     1757.507       105     2.382     2.141 -39.67   0
       147   1011.9700    634.6542 307.4903016  +6.4411193     52935.07     124439.1     139325.7     93.65004     187.5236     374.6747      2.347     5.51     1271.796     66.06222      5746.74       103     2.042     1.706 -41.31  16
       148    157.8272    634.6430 307.8459483  +6.4127890     704.9388     1282.085     1386.739      93.5008     187.5236     374.6747      1.788     4.35     1284.819     66.06222     114.5906         5     1.173     0.460   7.14   0
       149    158.4207    631.0622 307.8458221  +6.4142880     1009.565      2209.53     2349.724      93.5008     187.4491     374.6375      2.181     6.79     1284.688     66.06222     127.5029        13     1.623     0.796  10.36   0
       150    448.2307    621.7634 307.7254686  +6.4277709     14444.77     23651.58     26384.69      93.5008     187.1509     374.6002      1.778     5.59      1281.48     66.06222     1892.165        27     1.891     0.832 -23.34   3
       151    448.3504    618.0126 307.7255450  +6.4293243     21173.69     58866.37     76862.29     93.20159     187.3746      374.451      2.820     9.61     1281.123     66.06222     2140.484        96     2.646     1.834 -16.83   3
       152   1023.6800    618.7690 307.4859575  +6.4480685      813.917     1117.972     1143.269      81.3612     148.5445     281.6948      1.683     4.80     1270.747     66.06222     139.3563         9     1.413     0.462 -87.26  24
       153    122.9602    613.4774 307.8611805  +6.4203705     801.1789     1578.302     1738.082     93.79905     187.4491     374.8238      1.969     6.30     1284.096     66.06222      107.358         9     1.242     0.897  41.22   0
       154    292.5726    611.1118 307.7906396  +6.4269960     774.7709     1948.899     2880.723     94.09635     187.1509     374.6747      2.795     7.50     1282.768     66.06222     104.5968         8     1.587     0.991  29.10   0
       155    719.2169    604.4575 307.6132157  +6.4439100     1655.581     3067.858     3921.435     93.35132     187.3746     374.4883      1.999     5.70     1273.293     66.06222     205.6813        18     1.682     0.785   2.02   3
       156    720.2162    601.0840 307.6129129  +6.4453367     1822.013     4602.899     5259.336      93.5008     187.0763     374.6747      2.530     8.72     1273.139     66.06222     227.5437        30     2.056     1.213   3.76   3
       157    773.0812    597.5841 307.5910175  +6.4485334     5370.328     16902.62     20523.81      93.5008     187.1509     374.6375      2.801     7.37     1272.322     66.06222     608.6591        72     2.214     1.890 -43.33   0
       158   1012.6000    596.2041 307.4913270  +6.4570245     1162.917     2743.549     3615.531      93.2016     186.9269     374.4883      2.588     8.16     1268.638     66.06222     143.7003        21     1.489     1.278   0.91   0
       159    596.5867    598.1022 307.6644918  +6.4424702     859.9761     1939.302     3197.031     93.79905     187.1509     374.4883      2.600     6.11     1275.371     66.06222     115.5481        10     1.608     0.652  -7.56   3
       160    597.6997    594.6680 307.6641439  +6.4439258     1038.426     2542.916     3751.042     93.94781     187.5981     374.7493      2.855     7.61       1275.1     66.06222     129.0432        16     1.871     0.867   3.19   2
       161    849.2057    579.4256 307.5599284  +6.4585545     1114.708     2888.298     3839.085     93.35132     187.2255     374.6002      2.906     8.22     1269.737     66.06222     147.8942        18     2.074     0.911  11.40   2
       162    808.2786    577.3731 307.5770397  +6.4580480      1123.68     2826.534     3679.174     93.79905     187.3746     374.7493      2.757     8.01     1270.938     66.06222     117.0753        20     1.691     1.060  -0.26   2
       163    236.6925    576.6171 307.8150707  +6.4393859      2142.73     3840.254      4206.63     93.65005     187.2255     374.6375      1.928     7.05     1280.942     66.06222     276.4969        22     1.653     1.019  -2.04   3
       164    237.1391    572.4628 307.8150250  +6.4411169      2844.17     7075.608     8746.475     93.94781     187.4491     374.8238      2.591     8.41     1280.566     66.06222     303.5575        45     2.394     1.522   0.08   3
       165    788.4119    569.5632 307.5855745  +6.4606167     57914.69     191296.7     237838.8     93.35132     187.2255     374.4137      2.862     7.79      1271.02     66.06222     6680.124       166     2.573     2.082 -34.26   0
       166    170.4204    571.1937 307.8428481  +6.4394191     15452.43     30653.44     36298.97      93.5008     187.1509     374.5629      2.182     7.12     1282.246     66.06222     1773.564        40     2.122     1.039   4.44   3
       167    171.4646    567.2079 307.8425479  +6.4411004     20734.46     51383.25     64367.09     93.35132     187.1509     374.6375      2.633     8.44     1282.043     66.06222      2221.72        83     2.559     1.578  10.39   3
       168     92.3455    565.3000 307.8755557  +6.4392517     1180.938     2177.406     2788.029     93.65005     187.4491     375.1217      2.121     4.94     1282.268     66.06222      183.835         9     1.239     0.716 -16.18   3
       169     95.4261    567.3663 307.8742032  +6.4385008     1561.032      2755.08     3106.681     93.35132     187.2255     374.5256      1.997     6.13     1282.339     66.06222     222.8198        15     1.716     0.677 -16.95   3
       170     95.4411    563.4846 307.8743281  +6.4401048     2275.854     5453.454     6690.832     93.94782     187.3746     374.7493      2.497     8.65     1282.181     66.06222     257.4807        38     2.403     1.201  15.77   3
       171    957.6028    562.4472 307.5153597  +6.4691529     675.3883     961.6785     1208.717      93.2016     187.0763     374.3391      1.703     3.89     1265.861     66.06222     122.8406         5     0.996     0.741  84.22   0
       172    344.0313    558.0000 307.7710045  +6.4506483     4011.702     6886.234     7525.875     93.05164     187.1509     374.5256      1.782     7.28     1277.571     66.06222     526.4089        18     2.284     0.650  -2.31   3
       173    344.7648    554.2223 307.7708265  +6.4522332     5500.818     15264.77     20024.95     93.35132     187.1509     374.5256      2.817     9.27     1277.249     66.06222     580.1576        71     2.532     2.029 -10.65   2
       174    823.7075    557.9934 307.5712653  +6.4665647     1505.383     3519.945     3968.083      93.5008     187.0763     374.5629      2.489     8.43     1269.625     66.06222     185.1261        27     2.031     1.072  10.27   3
       175    824.9864    555.0000 307.5708332  +6.4678436     1386.471     2691.803     4036.408     93.35132     187.0016     374.5256      2.168     8.09     1269.462     66.06222     178.2719        19     2.166     0.845  14.53   3
       176    779.0100    552.4984 307.5900625  +6.4673551     1374.053     2298.104     3663.229     93.65004     187.0016     374.5629      2.194     5.19     1270.379     66.06222     210.6307        10     1.362     0.558  25.23   3
       177    778.5640    548.7674 307.5903735  +6.4688817     2368.656     5814.364     8099.657      93.5008     187.1509     374.4883      2.862     9.30     1270.257     66.06222     289.6061        43     2.103     1.910 -19.12   2
       178    512.6188    549.3774 307.7010955  +6.4598122     2068.127     3688.094     5884.953     93.65005     187.3746      374.712      2.430     9.42     1273.773     66.06222     250.1023        28     2.662     0.931 -60.52   3
       179    509.2604    547.9946 307.7025405  +6.4602720     1928.698      4491.71     6934.574     93.35132     187.3001     374.5256      2.973    10.49     1273.916     66.06222     223.6902        30     2.700     1.137 -65.41   3
       180    157.5164    546.4805 307.8490559  +6.4491981     1785.474     2843.286     3345.255     93.79905     187.7469      374.861      1.771     6.78     1281.516     66.06222     235.1373        18     1.670     0.861   6.73   3
       181    158.7554    542.7392 307.8486664  +6.4507849     2274.423     5132.393       6710.9     93.79905     187.4491     374.9355      2.737    10.12     1281.266     66.06222     260.9232        42     2.617     1.388   7.85   2
       182     29.1403    542.2857 307.9026510  +6.4466506     1807.357     6036.464     7752.152     93.94781     187.5236     374.8983      2.998     9.02     1281.109     66.06222     221.8926        50     2.174     1.893  86.59   0
       183    552.9692    545.1837 307.6844345  +6.4628840     784.1375     1744.836     2922.991      93.5008     187.1509      374.712      2.948     5.18     1271.473     66.06222     128.1626         5     1.165     0.652 -88.08   3
       184    555.3104    541.7308 307.6835758  +6.4643881     730.7323     1997.409     3133.887     94.09635     187.6725     374.7865      2.827     7.16     1271.265     66.06222     105.6875        11     2.067     0.695  27.52   2
       185    252.9861    542.6845 307.8094316  +6.4539458     22131.26     37692.75     43714.51      93.5008     187.2255     374.6375      1.925     6.55     1277.877     66.06222     2596.411        28     2.011     0.824 -19.99   3
       186    253.4505    538.5201 307.8093788  +6.4556815     27960.12     73001.66     100109.7     93.94782     187.5236     374.7865      2.893    10.83     1277.534     66.06222     2786.696       103     2.838     1.919 -12.56   3
       187    795.5085    540.4868 307.5835955  +6.4728635     561.9199     1290.293     1971.558     93.65005     187.9699     374.8983      2.237     4.39     1269.473     66.06222     123.3959         5     1.318     0.417 -45.17   0
       188    478.7644    532.9865 307.7157445  +6.4654592     11699.54     27138.94     32464.28     93.35132     187.2255     374.6002      2.406     7.47     1273.955     66.06222     1165.703        54     2.324     1.262  12.34   3
       189    479.9475    529.0494 307.7153845  +6.4671249     13583.13     33594.39     41277.23     94.09635     187.3001     374.7492      2.576     7.90     1273.495     66.06222     1277.712        67     2.558     1.351  16.35   3
       190    951.2999    532.8522 307.5189763  +6.4811707     751.9384      1858.42     1619.304     93.94781     187.4491     375.0473      2.401     7.13     1263.684     66.06222     107.9904        10     1.712     0.833  72.67   0
       191    775.2256    531.9851 307.5923272  +6.4757041     5624.559     18969.18     22959.39     93.65004     187.2255      374.712      2.842     7.88     1268.884     66.06222     634.7247        71     2.244     1.927 -42.66   0
       192    638.9603    525.6790 307.6492827  +6.4737941      918.649     3413.578     4613.229     93.79905     187.5236     374.7865      3.744    11.13     1269.432     66.06222     146.2787        27     1.975     1.747  11.82   0
       193    700.4916    522.7599 307.6237579  +6.4770396     562.9321     1349.338     1872.283     93.94781     187.3746      374.861      3.105     4.46     1268.776     66.06222      81.9469         5     0.866     0.654 -42.32   2
       194    308.4517    519.8262 307.7871073  +6.4652344     1191.861     4422.734     6047.955      93.5008     187.5981     374.6747      3.086    11.86     1274.248     66.06222     166.2349        40     2.140     1.830 -49.48   0
       195    123.5266    518.5554 307.8641524  +6.4596011     7257.812     28816.28     38002.11     93.79905     187.5236     374.8238      3.086     8.38     1279.462     66.06222     934.8848        93     2.354     2.243 -49.82   0
       196    378.5397    520.3174 307.7579057  +6.4673624     594.0369     1322.791     2276.664     94.09635     187.5236     374.8238      2.547     4.24     1273.599     66.06222     89.96423         5     1.001     0.512  47.06   0
       197     90.7663    516.1525 307.8778747  +6.4595015     957.0126     2439.021      3817.65      93.5008     187.4491      374.712      2.821     7.86     1279.912     66.06222     131.1588        14     1.956     0.885 -88.21   2
       198    948.7631    512.2338 307.5207238  +6.4896046     2406.838     6142.764     7118.509     93.65004     187.1509     374.5256      2.571     6.56     1262.272     66.06222      263.299        43     1.896     1.525 -33.59   0
       199    420.3258    499.3951 307.7412107  +6.4773945     11136.71     46523.16     63682.92      93.5008     186.9269     374.6747      3.186     9.05      1271.29     66.06222     1333.773       108     2.495     2.258 -41.59   0
       200    521.1138    503.2423 307.6991112  +6.4791529     613.1738     1474.803     1996.353     93.94781     187.3001     374.7865      2.041     3.82     1269.547     66.06222      96.7854         5     1.187     0.352 -12.41   0
       201    628.2172    501.5841 307.6545666  +6.4833916      3144.81     5383.757     6505.351     93.65004     187.0763      374.712      1.857     5.44      1267.67     66.06222     351.1178        19     1.674     0.756 -14.80   3
       202    628.3146    497.4507 307.6546651  +6.4851024     4088.781     10871.01     13531.49     93.94782     187.3746     374.8238      2.683     9.04      1267.29     66.06222     402.1345        59     2.456     1.638  -8.87   3
       203    185.6432    497.1873 307.8390092  +6.4704979     5349.286     21723.71     30967.95     93.35132     187.2255     374.4883      3.268     8.80     1275.971     66.06222     648.7272        96     2.468     2.303 -54.09   0
       204    549.9949    493.4553 307.6874138  +6.4841546     856.7654     2246.732     3907.306     93.20159     187.2255     374.4137      3.618     6.59     1268.254     66.06222     129.6996        11     1.869     0.652  30.64   2
       205    923.6870    492.4257 307.5318305  +6.4969587     2093.343     5916.881      7296.02     94.09635     187.2255     374.6747      2.731     7.41     1261.213     66.06222     230.7147        46     2.036     1.606 -38.77   0
       206    596.9306    491.3199 307.6679404  +6.4865942     1832.421     7258.879     9629.748     94.24465     187.7469     374.7493      3.110    10.65     1267.275     66.06222     233.0101        57     2.246     1.906 -34.49   0
       207    946.4592    484.5175 307.5226123  +6.5009785     1697.097     4502.447     4831.848     94.09635     187.5236     374.8238      2.593     7.01     1260.423     66.06222     174.3804        38     1.847     1.605 -20.66   0
       208    509.0501    485.2628 307.7047401  +6.4861798     1877.915     3099.907     4081.493     93.94781     187.3746      374.861      1.728     5.47     1268.204     66.06222     229.5289        18     1.474     0.854  -1.97   3
       209    509.1622    480.9767 307.7048377  +6.4879541     2351.956     6518.317     9269.224      93.5008     187.1509     374.5629      2.970     9.44     1267.841     66.06222     263.8474        45     2.389     1.546  -3.15   2
       210    356.7160    480.6743 307.7683300  +6.4830134     756.1619     2228.456     3917.491     94.09635     187.8213      374.861      2.891     5.72     1269.784     66.06222     115.8632         8     1.599     0.577  36.23   2
       211    865.6472    477.9055 307.5564878  +6.5010377     1220.516     3892.227     5431.857     93.79905     187.3746     374.9355      3.110    10.37     1261.507     66.06222     175.0967        33     1.818     1.650  -2.69   0
       212    872.6943    471.4688 307.5537690  +6.5039299     875.7638     2210.963     2874.548     93.79905     187.5236     374.8238      3.052     5.78     1260.949     66.06222     109.2451         9     1.202     0.781 -24.56   0
       213    698.2819    470.3371 307.6264398  +6.4986227     925.6414     1725.535     2874.865     94.09635     187.4491     374.7865      2.677     6.05     1264.372     66.06222      134.292        11     1.373     0.870 -23.06   3
       214    696.4105    467.1032 307.6273279  +6.4998967      1011.34     2190.921     3350.009     93.65004     187.0016     374.5629      2.544     8.26     1264.172     66.06222     137.5459        15     2.015     0.946 -54.02   2
       215    369.5340    466.7119 307.7634631  +6.4892075     1224.289     3773.059     5754.397     93.94782     187.6725     374.7493      3.338     9.71     1268.512     66.06222     146.0144        23     1.963     1.340 -80.67   2
       216     60.7989    468.6985 307.8919577  +6.4781049     588.2609     1332.873     2074.695     93.35132     187.0016     374.3764      2.202     4.36     1278.347     66.06222     135.9403         5     1.677     0.323 -60.36   0
       217    595.7349    463.4944 307.6693744  +6.4980494     2670.646     11162.04     15655.71     93.94781     187.5236     374.8238      3.248     8.72     1265.293     66.06222     350.6511        79     2.508     2.112 -41.92   0
       218    758.4625    459.8006 307.6017321  +6.5049692     5300.941     19001.08     24732.46     93.05164     187.2255     374.4137      2.991     8.13     1262.692     66.06222     606.7003        86     2.436     2.012 -47.97   0
       219    279.0417    460.7848 307.8013461  +6.4886456     727.0803     2863.895     3602.592     93.35132     187.1509     374.5256      2.974    12.03     1269.635     66.06222     118.1382        27     2.146     1.876 -58.96   0
       220     96.3947    454.7028 307.8776086  +6.4850736     1276.314     2650.474     3134.355     93.65005     187.0763     374.4883      2.310     6.52     1276.276     66.06222     185.0795        13     1.407     0.848  -2.67   3
       221     96.5245    451.2074 307.8776727  +6.4865218     1260.905      3571.37     5035.416      93.5008     186.8522     374.5629      3.055     9.70     1275.979     66.06222       138.83        29     2.217     1.185  24.34   2
       222    943.9637    454.2937 307.5246648  +6.5133818     867.4719     2007.155     2359.767     94.09635     187.3001     374.8983      2.266     4.80     1258.233     66.06222     104.9529         8     1.334     0.490 -19.72   0
       223    732.9775    452.2794 307.6125978  +6.5072321     861.2793     2561.047     3629.372      93.5008     187.0763     374.7493      3.198     8.55     1262.439     66.06222     120.0828        16     2.189     0.933  54.06   2
       224    997.2910    449.2308 307.5026260  +6.5172357     2238.917     5554.618     6563.669     94.09635     187.2255     374.7493      2.466     6.93     1256.756     66.06222     242.6237        35     1.697     1.498 -35.36   0
       225    330.4550    445.6707 307.7804462  +6.4965999     952.6614     2165.384     3933.195     93.79905     187.3746     374.7493      3.440     5.87     1267.499     66.06222     125.9497        10     1.198     0.810 -63.19   2
       226    334.0252    445.7615 307.7789565  +6.4966812     919.2971     1789.143     3701.296      93.5008     187.2255     374.5629      3.324     3.92     1267.431     66.06222     122.6561         7     0.897     0.606 -53.92   3
       227    697.9263    433.7047 307.6278191  +6.5137441     3065.291     5235.901     6030.733     93.65004     187.5981     374.7865      1.601     5.02      1261.65     66.06222     498.7109         9     1.683     0.424 -26.08   3
       228    696.4536    430.3387 307.6285455  +6.5150858     5182.076     13642.48     19661.91     93.94782     187.3746     374.7493      2.984     9.59     1261.388     66.06222     504.3361        69     2.521     2.090 -45.88   2
       229    798.8058    434.1478 307.5857925  +6.5169025     826.2939     2199.402     2231.518     93.35132     187.2255     374.3764      2.366     7.38     1260.129     66.06222     93.81543         9     1.825     0.836 -18.38   0
       230    813.9332    433.6403 307.5795096  +6.5176129      707.487     1793.364     1760.886     93.79905     187.3746     374.8983      2.560     6.68     1259.897     66.06222     102.3102        10     1.683     0.743  24.14   0
       231    616.8702    430.1650 307.6616939  +6.5125191     884.6018     2097.315     4382.859     93.79905     187.3746      374.861      4.016     5.01     1262.853     66.06222     152.1818        10     1.350     0.846  43.77   2
       232    590.3347    422.9165 307.6729885  +6.5146332     4881.861     17594.47     28526.36     94.09635     187.7469      374.861      3.499     9.03     1262.349     66.06222       551.23       117     2.914     2.394  33.26   0
       233    921.9551    423.4944 307.5348632  +6.5253778     1216.859     2279.531     3127.936     93.79905     187.3746     374.9355      2.033     7.23      1256.73     66.06222     160.1085        14     1.707     0.904  15.51   3
       234    921.2219    420.0034 307.5352856  +6.5267957     1441.088     2885.186     3941.598      93.5008     187.0763     374.5256      2.291    10.00      1256.57     66.06222       160.15        22     2.057     1.356   0.05   3
       235    361.8225    420.4225 307.7682353  +6.5080732      7153.85     14123.91     17554.25     93.65004     187.3746     374.7865      2.239     7.92     1264.664     66.06222     864.5712        33     2.378     0.954  -5.10   3
       236    362.5157    416.3160 307.7680851  +6.5097927     8424.473     23750.74     31717.33     93.65005     187.5981     374.8983      2.839     9.97     1264.294     66.06222     847.2593        71     2.675     1.704   1.81   3
       237    108.9368    418.5306 307.8736088  +6.5004342     844.3438     2561.781     3609.936     93.94781     187.4491      374.861      3.148     9.48     1273.482     66.06222      119.439        17     2.124     1.181 -47.95   2
       238    890.6749    411.8796 307.5482799  +6.5291416     1964.177     6068.886     7516.035     94.24465     187.7469     374.8983      2.829     9.04     1256.912     66.06222     204.6936        45     2.039     1.609 -43.06   0
       239    219.0710    411.4558 307.8279848  +6.5070266     3723.935     7067.258     8311.044     93.94781     187.3746     374.7493      2.127     8.09     1267.983     66.06222     482.6162        26     2.009     0.969   6.30   3
       240    221.1110    407.4855 307.8272693  +6.5087347     4348.931     10043.94      14995.9     93.65004     187.7469     374.9355      3.039    12.98      1267.77     66.06222     462.6379        57     3.047     1.539  10.15   3
       241   1022.4328    398.5883 307.4938520  +6.5389873     4245.456     8648.545     9003.982     93.35132     168.7059     304.9757      2.088     6.11     1250.817     66.06222     473.6442        36     1.867     1.204 -82.76  24
       242    119.7937    397.1464 307.8698106  +6.5096298     1577.902     5586.261     7365.216     93.35132     187.1509      374.451      2.970     8.90     1272.166     66.06222     219.8947        44     2.042     1.739 -59.32   0
       243    142.9095    394.0555 307.8602889  +6.5116772     757.1492     2002.168     3461.507     93.79905     187.3001     374.9355      3.147     7.61     1270.963     66.06222     107.8667        16     2.525     0.642 -71.47   0
       244    139.0064    390.8240 307.8620235  +6.5128819     793.1443     1563.504     2949.281     93.35132     187.2255     374.6375      3.099     4.30     1271.011     66.06222     103.1534         7     0.829     0.708  56.76   1
       245    418.0789    383.7082 307.7460453  +6.5251102     1864.798     3842.225     4816.625     93.65004     187.7469      374.861      2.225     6.61     1259.363     66.06222     239.5199        20     1.802     0.848  19.50   3
       246    420.1633    379.7404 307.7453110  +6.5268186     2151.064      6007.37     8912.893     93.94781     187.5236     374.7493      3.052    11.66     1259.063     66.06222     241.4523        50     2.454     1.834   4.60   3
       247     16.0773    382.8267 307.9134855  +6.5120855     1165.084     3601.644     5426.801     93.79905     187.4491     374.7493      3.244    10.25     1277.443     66.06222     146.0443        30     2.119     1.382 -55.02   0
       248    758.7585    378.1987 307.6043498  +6.5386895     4039.048     14566.93     19827.74      93.2016     187.0763     374.4137      3.164     8.44     1256.042     66.06222     460.6647        77     2.380     2.040 -37.41   0
       249   1001.9857    374.4828 307.5031755  +6.5482702     1530.603     2758.232     3603.862      93.5008     187.1509     374.5629      2.344     4.85     1249.146     66.06222     180.0206        14     1.132     1.006  15.76   3
       250   1002.6653    371.4796 307.5029931  +6.5495333     1585.085     3170.321     4200.604     94.24465     187.5236     374.7493      2.295     7.99     1248.781     66.06222     198.5173        19     1.818     0.983  26.52   2
       251    439.0676    367.5092 307.7378503  +6.5324996     844.2206       2091.7     2967.752     94.09635     187.5981     374.7865      3.068     6.92     1257.751     66.06222     131.8151        11     1.319     1.020  19.35   0
       252    469.6162    363.2945 307.7252700  +6.5352557     768.5745     1564.637     2946.542     93.65005     187.2255     374.6002      2.406     4.92     1256.426     66.06222     130.8804         5     1.870     0.366  30.22   2
       253    824.2784    361.0210 307.5776390  +6.5479551     11970.25     39134.17     50152.54      93.5008     187.0763     374.7865      2.926     7.39     1253.535     66.06222     1251.929        96     2.397     2.015 -54.64   0
       254    466.6681    366.7865 307.7263801  +6.5337151     854.4381     2450.552     3911.339     93.35132     187.2255     374.6375      2.958     7.73     1256.886     66.06222     139.9628        13     2.001     0.835  -3.86   2
       255    597.6956    356.4856 307.6721581  +6.5423204      610.764     1501.072     2591.615     93.94782     187.8956     374.8983      2.974     4.24     1255.036     66.06222     93.73792         5     1.040     0.492   4.37   2
       256    680.7773    347.1589 307.6378702  +6.5489285     22633.03     87825.22     118226.6      93.5008     187.2255     374.5256      3.113     8.92     1253.772     66.06222     2547.729       132     2.512     2.245 -44.51   0
       257    594.8837    351.6182 307.6734930  +6.5442378     871.9595      2002.71     3094.034      93.5008     187.0763     374.7493      2.984     6.84     1254.596     66.06222       110.46        11     1.276     1.028 -53.04   0
       258    543.6116    345.5466 307.6950509  +6.5450445     798.8739     2473.608      4123.93      93.2016     187.3746      374.451      3.400     9.10     1254.306     66.06222     141.6149        15     2.133     1.249 -48.19   2
       259     81.0807    346.1751 307.8876556  +6.5293946     1832.817     3702.616     5835.529     93.65004     187.2255     374.7865      3.133    13.48     1272.753     66.06222     257.0879        40     3.363     1.504  53.79   3
       260     83.5763    343.1977 307.8867170  +6.5307078       1889.4     3349.231     3969.132      93.5008     187.0763     374.5629      1.970     7.91     1272.599     66.06222     229.3286        21     1.967     0.889  52.73   3
       261    526.1502    342.2486 307.7024341  +6.5458273     2089.408     5167.381     6646.278     93.94781     187.3001      374.712      2.578     7.54     1253.927     66.06222     259.6058        35     2.041     1.245   8.30   3
       262    527.6149    338.6536 307.7019452  +6.5473610     2051.355     5206.735     6558.387      93.2016     187.3746      374.451      2.515     9.52     1253.599     66.06222     239.2644        34     2.333     1.090  18.20   3
       263    389.5937    335.5404 307.7595321  +6.5440614     6025.411     28104.52     39937.06      93.2016     187.3001     374.5256      3.300    10.19     1257.574     66.06222     808.4889       101     2.509     2.349 -46.10   0
       264    256.9697    338.5813 307.8146627  +6.5383927     830.4124     2715.251     3571.583      93.5008     187.2255     374.6375      2.819     7.31     1263.902     66.06222     128.5881        11     1.890     0.793 -45.74   0
       265    478.6729    328.0093 307.7226868  +6.5501329     2551.928     6119.552     7837.541     93.35132     186.9269     374.6002      2.786    12.46     1252.919     66.06222     272.9834        46     2.520     1.779 -18.18   2
       266    480.9746    325.0000 307.7218296  +6.5514525     1984.838     3056.297     3633.657     93.35132     187.0016     374.5256      1.466     5.55     1252.563     66.06222      230.817        10     1.317     0.664   3.39   3
       267    477.5094    323.4825 307.7233239  +6.5519643      2194.24     3772.283     5313.775     93.65005     187.7469     374.8983      1.964     4.69     1252.513     66.06222     269.0853        19     1.427     0.937 -25.18   3
       268    746.8740    322.4269 307.6111731  +6.5613357     1067.001      3132.43      5519.41     93.65004     187.3746     374.7493      3.599     7.65     1251.234     66.06222     146.2101        16     1.679     0.975 -29.64   2
       269    365.7608    311.9745 307.7702526  +6.5530039     1677.837     3287.396     4015.314      93.5008     187.2255     374.5629      2.188     5.40     1257.199     66.06222     209.4614        17     1.223     1.084 -81.70   3
       270    366.6980    307.6588 307.7700078  +6.5548179     1744.517     2898.336     4086.103     93.65005     187.3746     374.9355      1.846     4.39     1256.866     66.06222     216.8894        12     1.067     0.818 -42.56   3
       271    368.9735    312.5365 307.7688956  +6.5528786     2050.639     3552.729     4790.546      93.5008     187.4491      374.712      1.872     4.73       1257.1     66.06222     256.7457        14     1.213     0.822 -31.84   3
       272    370.2173    309.1725 307.7684910  +6.5543097     2221.457     4793.171      6177.54      93.5008     187.1509     374.6747      2.384     5.43     1256.766     66.06222     248.1672        25     1.506     1.247  40.10   3
       273    735.7923    307.7617 307.6162813  +6.5670268     15982.27     33814.68     39801.47     93.05164     187.1509      374.451      2.335     8.23     1249.932     66.06222     1808.389        51     2.388     1.182  -1.85   3
       274    735.3873    303.8082 307.6165828  +6.5686467     16656.46     40324.19      51325.1      93.5008     187.2255      374.712      2.633    11.64     1249.519     66.06222     1757.349        64     2.456     1.552  -0.47   3
       275    224.6368    308.0460 307.8291593  +6.5499300      532.129     1318.428     2185.402     93.65004     187.4491     374.6747      2.170     4.31     1263.806     66.06222     97.08289         5     1.109     0.477  26.45   0
       276    911.9872    300.9462 307.5431249  +6.5756743     788.0801     2500.978     3705.469      93.2016     187.3746      374.451      3.119     9.04     1246.701     66.06222     117.0079        13     1.913     1.192  -4.05   0
       277    393.9962    301.0511 307.7588615  +6.5584553     659.1631     1906.888     2888.744      93.2016     187.1509     374.2645      3.395     5.81     1254.834     66.06222     116.5059         6     1.398     0.680 -69.10   0
       278    734.5604    290.2329 307.6173834  +6.5742273     2054.216     7125.835     9429.613     93.65004     187.2255     374.6002      3.127     8.93     1248.119     66.06222     228.9955        61     2.217     1.937 -74.80   0
       279    751.3494    290.3469 307.6103870  +6.5747364     732.4907     1601.383     2248.716     94.09635     187.3001     374.8238      2.883     7.93     1248.153     66.06222      110.573         8     2.476     0.710 -49.07   2
       280    749.6418    287.6733 307.6111880  +6.5757843     778.3132     2078.195     3275.626     93.79905     187.5236     374.8238      3.093     7.71     1247.994     66.06222     122.0973        10     2.123     0.784 -45.23   2
       281    989.2175    278.9369 307.5116957  +6.5873195     2693.069     7684.307     8893.848      93.5008     187.3746     374.6002      2.642     6.94     1241.838     66.06222     279.7048        50     1.965     1.701 -51.22   0
       282    341.6346    281.2531 307.7813369  +6.5648924     670.2082     1412.652     2823.552     93.79905     187.4491     374.7493      2.883     5.59     1256.652     66.06222     110.2678         6     1.290     0.683  30.30   0
       283    228.0463    273.8958 307.8288928  +6.5641508     1365.256     3210.253     4486.603     93.94781     187.3746     374.9728      2.335     8.17     1262.646     66.06222     185.7892        22     2.096     0.890 -68.47   3
       284    230.2119    278.0315 307.8278512  +6.5625145     1715.847     3434.996     4084.959     93.35132     187.1509     374.6747      2.213     7.74     1262.573     66.06222     196.1147        22     1.725     1.182 -29.35   3
       285    232.3404    273.6588 307.8271124  +6.5643917     1538.046     2768.452     3735.657     93.94782     187.4491     374.8238      2.024     5.16     1262.464     66.06222     188.3721        16     1.438     0.821  29.00   3
       286    544.2730    259.7278 307.6976648  +6.5805185     674.2088     1315.311     2305.043     94.24465     187.5981     374.7865      1.686     3.67     1244.811     66.06222     126.2092         5     0.955     0.405 -44.99   0
       287    707.2326    254.6494 307.6299616  +6.5880215     1525.722     5740.563     7379.048     93.65005     187.4491      374.712      3.066    10.42     1245.059     66.06222     231.4403        54     2.242     2.006 -47.45   0
       288    646.6938    254.0879 307.6551956  +6.5862466     673.6917     2134.655     3317.805     93.94781     187.9699      374.861      3.214     7.52     1243.981     66.06222     104.7128        11     2.189     0.723 -44.74   0
       289    885.5228    255.4664 307.5556734  +6.5935872      737.642     1662.887     2399.458     94.09635     187.5236     374.7493      2.956     4.86     1244.332     66.06222     95.20947         5     1.129     0.594 -32.51   0
       290    205.7347    237.6583 307.8394093  +6.5783771     743.7717     1823.296     3183.823     94.09635     187.3746     374.8238      2.512     6.46     1263.887     66.06222     111.2827        10     1.763     0.664 -29.20   2
       291    848.5544    236.6532 307.5717031  +6.6001360     703.6087     1334.177     1714.333     93.94782     187.4491     374.8238      1.761     3.42     1244.411     66.06222     111.2656         5     1.112     0.304  20.02   0
       292    440.7419    229.8141 307.7417937  +6.5894370     5204.695        23973      35543.6      93.2016     187.3001     374.4137      3.378     9.90     1246.786     66.06222     681.3798       104     2.652     2.337 -49.96   0
       293    765.6417    230.4175 307.6064476  +6.5999670     4500.645     10566.81     13474.89     93.35132     187.2255     374.5256      2.533     8.80      1244.32     66.06222     485.0532        50     2.345     1.472  -0.87   3
       294    765.4775    226.5217 307.6066469  +6.6015710     3936.219     8482.919     11234.56     94.24465     187.7469     374.9355      2.544     9.22      1244.13     66.06222     475.6545        29     2.521     0.941   8.11   3
       295    129.6242    221.7418 307.8716466  +6.5824155     764.8752     1856.173     3721.716      93.5008     187.4491     374.6375      3.798     7.14     1269.462     66.06222      133.809        12     1.773     0.806  35.08   2
       296    901.1595    219.1122 307.5503802  +6.6091226     655.5759     1314.629     1402.091     93.94781     187.3746     374.8238      1.893     5.15     1241.838     66.06222     112.5566         6     1.419     0.528  68.76   0
       297    565.8548    216.9949 307.6901144  +6.5988879     1384.863     3307.905     4158.626      93.2016     187.1509     374.4137      2.633     9.92      1240.86     66.06222     161.4601        31     2.382     1.152 -40.11   2
       298    563.5347    213.1631 307.6912098  +6.6003938     1474.802     2737.639         3882     93.79905     187.3746      374.861      2.248     8.47     1240.672     66.06222     165.5768        21     1.762     1.137 -47.42   3
       299    870.8947    212.0197 307.5632245  +6.6110515     4279.813     12386.51     15243.24     93.79905     187.2255     374.5629      2.740     7.41     1242.275     66.06222     450.6906        52     2.050     1.791  74.56   2
       300    924.7878    213.4266 307.5407290  +6.6122528     1001.287     2664.426     3395.907      93.5008     187.2255      374.712      2.973     8.10     1240.484     66.06222     129.2988        11     1.617     1.135 -10.98   2
       301    526.3099    213.8240 307.7066924  +6.5988850      713.407     1569.275     2663.274     93.94781     187.2255     374.6002      3.312     6.41     1240.801     66.06222     95.70911         9     1.384     0.834 -11.23   0
       302    958.1476    209.5156 307.5269646  +6.6149714      4310.96     12336.48     14530.74     93.94781     187.3746     374.8983      2.635     6.69     1239.198     66.06222     446.4647        58     2.007     1.757 -51.19   0
       303    672.0001    211.4918 307.6460878  +6.6046823     808.9614     2098.253     3257.522     93.05164     186.8522     374.3764      2.154     4.26     1241.304     66.06222     159.7383         6     1.489     0.347 -42.51   2
       304    667.7143    210.7868 307.6478966  +6.6048314     754.9459     2439.358     3625.488      93.5008     187.3001     374.6375      2.918     6.38     1241.277     66.06222     132.0616        10     2.081     0.550  66.42   0
       305      1.4510    208.6471 307.9254722  +6.5835484     4174.045     6025.043     6835.747     83.72979     151.1541     284.5557      1.455     4.20     1277.328     66.06222     871.4482        20     1.577     0.677 -87.56  24
       306    478.5346    206.7010 307.7268315  +6.6002408     655.2922     1831.102     2406.515     93.94782     187.5981     374.7865      3.168     8.40      1241.35     66.06222      81.1438        11     1.989     0.991 -17.49   0
       307    809.5827    202.4965 307.5890828  +6.6129564     834.6521     2026.002     2509.091     93.79905     187.2255     374.5256      2.491     5.91     1241.911     66.06222     120.1482         8     1.247     0.789  14.58   2
       308    490.5673    202.9593 307.7219458  +6.6021862     869.5439     2272.074     3622.522     93.65004     187.3001     374.6002      3.101     6.85      1240.93     66.06222     118.0044        12     1.614     0.816 -17.53   0
       309    721.2901    200.1231 307.6259393  +6.6110125     12708.69     29860.33     39902.96     93.79905     187.7469     374.8238      2.708    12.32     1242.039     66.06222     1244.705        72     2.748     1.734 -25.14   3
       310    720.6809    195.6707 307.6263427  +6.6128316     11541.64     22255.38     25693.88     94.24465     187.8213     374.8238      2.118     8.02     1241.816     66.06222     1289.338        35     1.982     1.035 -11.42   3
       311    326.3658    198.8934 307.7904753  +6.5984069     2240.191     5558.047     9235.361     94.09635     187.3001     374.8983      3.313    10.14     1254.786     66.06222     237.7129        55     2.888     1.598 -52.39   3
       312    323.3071    196.4937 307.7918303  +6.5992964     1875.184     4610.464     6113.306     93.94782     188.0442     374.7493      2.767     8.01      1255.07     66.06222     222.0635        23     1.760     1.129 -66.47   3
       313    955.4298    196.5379 307.5285319  +6.6202427     1154.365      3597.75     4487.177     93.65005     187.4491      374.712      2.824     9.46     1238.353     66.06222     140.7195        30     1.908     1.424 -60.24   0
       314    888.9719    195.3598 307.5562538  +6.6185318     2987.979     8075.167     9524.145      93.5008     187.2255     374.6375      2.587     8.31     1240.084     66.06222     337.9659        42     1.967     1.594  75.35   3
       315    891.3257    193.6382 307.5553311  +6.6193209     2070.819     3412.377     3257.956     93.79905     187.5236      374.861      1.838     5.52     1239.943     66.06222     261.0355        12     1.365     0.786  49.97   3
       316    873.3465    210.0356 307.5622699  +6.6119522     2317.101     3712.008     4942.545     93.79905     187.4491     374.8238      1.560     5.50     1242.002     66.06222     356.2208        13     1.523     0.565  56.94   3
       317    432.9951    197.5284 307.7461087  +6.6025167     1378.701     2162.758     2808.021      93.5008     187.0016     374.6375      2.010     6.47     1244.844     66.06222     177.7921        13     1.413     0.831  23.70   3
       318    435.9976    193.8449 307.7449823  +6.6041382     1361.497     3305.617     5737.885      93.2016     186.9269     374.3764      3.556    14.77     1244.247     66.06222     180.5486        40     3.333     1.820   9.19   2
       319    993.0745    195.1631 307.5128974  +6.6220548     826.8617     1869.876     1416.055     93.79905     187.5236     374.7865      2.091     6.85     1236.911     66.06222      107.476        10     1.506     0.872  79.71   0
       320     90.7265    188.5687 307.8889691  +6.5948217     1471.779     2706.026     3632.027     93.79905     187.4491     374.8238      2.155     7.19     1272.779     66.06222     183.6427        17     1.581     0.917   4.31   3
       321     91.5459    184.9029 307.8887518  +6.5963633     1336.207     3822.565     4879.088     93.79905     187.4491     375.0473      2.758     9.66     1272.728     66.06222     169.1868        30     2.109     1.309  17.12   2
       322    261.0246    182.5576 307.8182421  +6.6029802     8125.484     37163.92     53742.82      93.5008     187.3746     374.5256      3.332     9.90     1261.346     66.06222     1143.448       106     2.543     2.351 -53.72   0
       323    237.5315    184.2887 307.8279688  +6.6014827     2008.059     6299.105     9356.503     94.09635     187.7469     374.7493      3.221    11.20     1263.772     66.06222     241.7943        55     2.541     1.971 -22.52   2
       324    385.0406    177.9947 307.7667413  +6.6089918     11424.31     52329.31     75585.33     93.05164     187.0763     374.4883      3.312     9.73     1248.111     66.06222     1593.833       124     2.595     2.377 -42.06   0
       325    141.7628    182.2258 307.8679269  +6.5991437     1206.977     2545.701     3762.715      93.5008     187.2255     374.5629      2.848     8.41     1269.563     66.06222     175.6039        16     2.097     0.943  12.98   2
       326    143.6841    179.6843 307.8672126  +6.6002577     1138.615      2471.36     4913.798     93.65004     187.5981     374.8983      4.302    11.06     1269.496     66.06222     149.2749        22     2.750     1.240  43.22   2
       327    289.6603    175.6739 307.8065474  +6.6067771      4584.99     19580.82     30567.92     94.09635     187.4491     374.8238      3.573    10.72     1258.429     66.06222     589.0394       120     3.109     2.405 -11.06   0
       328    723.7009    176.1326 307.6257415  +6.6210029     10490.08     23997.22     31825.49     93.94781     187.5981     374.7493      2.626    12.19     1240.728     66.06222     1101.028        59     2.640     1.590 -23.69   3
       329    723.4699    171.5071 307.6259932  +6.6229061      9562.28     18803.15     21860.19     93.94782     187.5981     374.7865      2.134     8.52     1240.492     66.06222     1031.549        38     2.011     1.083  -3.33   3
       330     41.2115    171.6659 307.9101640  +6.6001520     2426.164     10459.87     14305.83     93.35132     187.2255     374.6375      3.160     9.37     1275.306     66.06222     371.1477        73     2.419     2.099 -53.44   0
       331    983.0160    166.3022 307.5180547  +6.6336451      644.375     1518.652     2260.302     93.94781     187.1509     374.5256      2.172     5.87     1235.052     66.06222      92.3053         6     1.276     0.759  33.02   0
       332    982.3142    152.5928 307.5188067  +6.6392854     895.7918     2260.545     3515.012      93.5008     187.0763     374.5629      3.308     6.08     1234.144     66.06222     139.3832        10     1.317     0.790 -50.56   2
       333    259.9113    148.9152 307.8198420  +6.6168405     7426.033     32952.17     48093.16     93.65004     187.7469     374.8983      3.337     9.57     1262.945     66.06222     1034.621       107     2.571     2.356 -46.48   0
       334      5.2337    150.2204 307.9258748  +6.6078098     1384.248      2813.37     3439.815     93.35132     187.2255     346.1156      2.326     7.99     1277.057     66.06222     173.6179        18     1.810     0.986  36.95  19
       335      7.5058    146.4639 307.9250556  +6.6094374     1483.399     3050.883     4645.893     93.79905     187.5236     369.9484      2.707    10.04      1276.87     66.06222     178.3391        30     2.325     1.209  21.79  19
       336    691.4838    147.1781 307.6401348  +6.6318964     2570.753     6044.156     7246.345     93.65004     187.0763     374.6747      2.358     8.06     1239.124     66.06222      302.855        41     2.160     1.419  -2.45   3
       337    690.7080    142.5363 307.6406141  +6.6337882     2392.168     4689.023     5679.062     93.94782     187.6725      374.861      2.146     9.36     1238.912     66.06222     298.8016        29     2.466     0.991   2.80   3
       338    102.7153    142.9516 307.8855187  +6.6140653     1262.709      5002.28         6989     93.94781     187.4491     374.8238      3.172    12.17      1271.69     66.06222     180.2925        50     2.148     2.049 -72.41   0
       339    373.3317    138.6826 307.7729445  +6.6248420      1205.75     4162.783     6002.795     94.24465     187.7469     374.8238      3.217    12.76     1249.225     66.06222     162.3906        47     2.336     2.044 -35.67   0
       340    337.6914    137.9237 307.7878154  +6.6239699     859.7209     3213.948       4601.5     93.79905     187.7469     374.7865      3.231    12.32     1254.567     66.06222     124.3757        30     2.243     1.883 -83.86   0
       341    984.2747    131.9319 307.5186828  +6.6478854     685.0676     1526.798     1519.153     94.09635     187.5981     374.7865      2.033     3.46     1232.566     66.06222     129.2767         5     1.034     0.334  47.14   0
       342    190.6317    127.3564 307.8494270  +6.6234385     1648.079     5290.483     8446.014      93.5008     187.4491     374.6375      3.337    11.90     1267.859     66.06222     194.2327        45     2.420     1.631 -32.51   2
       343     71.4978    128.8270 307.8989991  +6.6188587     646.5356     1379.578     2489.301     94.09635     187.1509     374.7493      2.086     3.29     1273.073     66.06222     128.7518         5     1.168     0.269  35.13   2
       344     74.9304    127.0000 307.8976312  +6.6197279     525.7849     1119.842     2461.131     93.35132     186.8522     374.5256      2.519     3.90     1272.793     66.06222     89.79993         5     1.225     0.357 -24.36   3
       345    651.0848    126.6785 307.6576525  +6.6390254     2024.863     4804.827     6508.361     93.94781     187.8213     374.9355      2.614    10.27     1237.879     66.06222     204.7976        35     2.319     1.267 -31.33   3
       346    650.2046    122.8131 307.6581492  +6.6405930     1646.073     3602.528     4737.659      93.5008     187.1509     374.6375      2.331     7.53     1237.692     66.06222     176.5311        20     1.739     0.913 -12.90   3
       347    606.1783    114.8760 307.6767557  +6.6424114     16051.06      52765.1     85859.93      93.5008     187.2255      374.712      3.671    12.27     1237.181     66.06222     1823.759       187     4.037     2.314 -66.10   0
       348    331.4149    119.5680 307.7910493  +6.6313437     1258.817      3559.33     6249.155      93.5008     187.1509     374.6747      3.560    13.48     1256.135     66.06222     146.9788        36     2.669     1.893 -72.39   2
       349    510.4018    119.5993 307.7164925  +6.6372809     682.4787     1210.546     2014.098      93.2016     186.9269     374.4137      1.711     3.51     1238.526     66.06222     94.00146         5     1.073     0.331  20.75   0
       350    285.6317    110.2136 307.8104355  +6.6336841     1074.368     2788.948      4383.36      93.5008     187.1509      374.712      4.114    10.78     1263.501     66.06222     144.7168        23     2.191     1.478  52.62   2
       351    288.0000    106.5027 307.8095743  +6.6352959     1252.882     2932.651      4532.53     93.35132     187.0016     374.3018      3.075     9.39     1263.654     66.06222     163.8781        20     1.982     1.241  48.88   2
       352    670.9473     99.6846 307.6502867  +6.6508352     1124.023      2340.24     3347.924     93.94781     187.3746     374.9728      2.506     6.74     1236.646     66.06222     136.0734        14     1.437     0.888  -4.59   3
       353    671.5804     95.6313 307.6501593  +6.6525306     1032.422     2591.255     3589.708     93.35132     187.2255     374.6375      2.763     9.20     1236.464     66.06222     123.2081        22     1.947     1.212  17.87   2
       354    412.9603     91.0036 307.7580456  +6.6458557     1278.907     3093.774     4625.676     93.05164     187.1509      374.451      2.744    11.00     1242.994     66.06222     168.0798        27     2.115     1.594  43.10   3
       355    415.3279     87.0555 307.7571925  +6.6475653     948.6008     1903.203     2802.406     93.79905     187.3746     374.7493      2.468     7.63     1243.003     66.06222     141.8428        14     2.096     0.778  19.22   2
       356    865.4521     83.7647 307.5697969  +6.6638543     739.5805     2097.751     3391.439     93.79905     187.4491      374.712      3.218     8.57     1232.528     66.06222     131.3547        11     2.002     1.025 -26.25   2
       357    884.8798     85.7034 307.5616386  +6.6636962     1478.952     3252.013     4504.796     93.65004     187.7469     374.9355      2.634     8.61     1232.536     66.06222     179.7032        23     2.060     1.023 -20.42   2
       358    884.9944     82.0056 307.5617150  +6.6652276      1191.13     2657.069     3334.731      93.2016     187.2255     374.5629      2.377     7.03     1232.286     66.06222     151.8387        14     1.476     0.939 -21.49   3
       359    125.2280     77.7534 307.8783467  +6.6417486     1024.011     3314.731     4951.424      93.5008     187.5236     374.6747      3.223    10.65     1269.297     66.06222     145.7391        23     2.128     1.484  59.87   0
       360      6.2353     75.8442 307.9279758  +6.6385667     3861.465     14888.92     20204.28     93.65004     187.3746     358.1328      3.119     8.18     1275.119     66.06222     489.8901        77     2.346     2.134 -59.10  24
       361    752.7891     69.9458 307.6171938  +6.6658328     990.3891      3760.01      4810.53     93.20159     187.3746     374.4137      3.091    11.72     1234.584     66.06222     145.9586        35     2.186     1.750  68.45   0
       362    807.4301     71.6188 307.5943754  +6.6669514      2251.49     4625.613     6045.627      93.5008     187.2255     374.6375      2.332    10.10     1233.567     66.06222     268.3528        35     2.495     1.141 -30.01   3
       363    806.1843     67.8626 307.5950205  +6.6684618     1962.799     3875.371     4233.782     93.35132     187.3746     374.5629      2.217     8.84     1233.198     66.06222     225.8068        25     2.035     1.071 -15.94   3
       364     47.8923     67.5464 307.9109052  +6.6433849     1230.708     3297.865     4977.065     93.79905     187.3746     374.9728      3.316     9.24     1272.294     66.06222     144.5194        25     1.730     1.377 -31.63   2
       365    746.5575     57.7590 307.6201994  +6.6706608     800.3835     2259.893      3539.18     93.65004     187.4491     374.6375      3.231     7.66     1233.958     66.06222     103.5072        13     1.711     0.960  83.57   0
       366     74.3016     52.1166 307.9004269  +6.6506400     2816.807     10812.87     14693.19     93.94781     187.8956      374.861      3.189     8.78      1270.22     66.06222     396.1169        73     2.359     2.106 -42.06   0
       367    404.8446     52.7054 307.7627179  +6.6614066     859.3603     2274.998     3505.041     93.94781     187.3746     374.9355      3.322     5.63     1247.286     66.06222     147.8845         9     1.372     0.652 -41.93   2
       368    616.7819     43.3800 307.6747450  +6.6722981     5434.611     21182.41     28540.72     93.65004     187.3746     374.6747      3.110     8.99     1235.226     66.06222     650.4247        93     2.402     2.225 -37.33   0
       369    515.7595     41.9893 307.7168753  +6.6695192     1639.149     3653.479     5004.358     93.20159     187.2255     374.4883      2.418     6.59     1237.667     66.06222     221.8948        24     1.792     1.038  15.27   3
       370    517.5826     37.9200 307.7162530  +6.6712608      1453.14     4243.242     5648.614      93.5008     187.0763     374.6747      2.951    10.12      1237.48     66.06222     184.3395        35     2.290     1.445  17.67   3
       371    243.7025     36.8183 307.8303799  +6.6626067     2745.833     8438.456     13582.11     93.79905     187.3001     374.4883      3.916    10.25     1266.239     66.06222     344.6456        69     2.793     2.009 -32.69   2
       372    241.6800     33.2938 307.8313415  +6.6639953     2045.648     2947.216     4787.149     93.65005     187.7469      374.861      2.056     4.05     1266.295     66.06222     269.3319        10     1.201     0.733  21.70   3
       373    422.9455     36.5815 307.7557214  +6.6686691     7180.056     21160.76     28955.15     93.35132     187.4491     374.5256      2.980     9.13     1246.518     66.06222      829.978        74     2.614     1.837 -34.39   2
       374    421.0020     32.7605 307.7566599  +6.6701829     5769.648      10110.2     11710.67     92.90143     187.1509      374.451      1.845     4.60     1247.066     66.06222     683.8936        18     1.508     0.869  -5.50   3
       375      9.1888     37.8853 307.9280309  +6.6543454     845.7359     2016.051     3322.715      93.5008     187.1509     374.6002      3.066     5.45     1272.204     66.06222     128.9183        11     1.412     0.593 -42.49  18
       376    900.0544     37.0000 307.5569518  +6.6843178     593.6514     1559.889     2717.353     93.05164     187.0016     374.3018      1.997     4.61     1229.336     66.06222     98.52551         5     1.714     0.352   7.02   2
       377    898.9873     35.0000 307.5574635  +6.6851087     785.4854     2435.327     3840.952     93.35132     187.0016     374.5256      3.210     9.47     1229.218     66.06222     117.8243        11     1.691     1.481  -3.37   2
       378    605.7911     32.4091 307.6796928  +6.6764655      977.605     1827.378     3114.974      93.2016     187.2255     374.6375      2.492     5.66     1234.949     66.06222     117.8636        10     1.337     0.676  52.39   3
       379    603.7914     35.4161 307.6804246  +6.6751570     1187.429     2352.562     4320.925     93.65004     187.1509     374.6002      2.738     6.19     1235.031     66.06222      165.986        13     1.510     0.713 -11.85   3
       380    601.6596     31.4102 307.6814475  +6.6767411     1042.437     2048.407      3764.94      93.2016     187.3001      374.451      2.906     7.50     1234.926     66.06222     141.4052        15     1.857     0.849 -60.60   3
       381    231.9650     34.3007 307.8353543  +6.6632558     971.1794     2759.157     6176.482     93.94781     187.3001     374.9728      4.363     8.42     1266.494     66.06222     131.9994        14     1.807     1.096 -21.75   3
       382    674.0000     25.0016 307.6515272  +6.6817880     630.9023     1789.339     2387.651     93.05164     186.8522     374.4137      2.387     5.05     1234.745     66.06222     78.47717         6     1.667     0.433  70.28   2
       383    223.0077   1013.5818 307.8060219  +6.2584214     769.6483     1746.714     1965.821      93.5008     187.0763     374.6002      2.336     6.75     1300.767     66.06222     102.7966        10     1.754     0.728 -80.52  16
       384    938.5870   1012.9362 307.5081827  +6.2824208     5238.283     9645.516     9980.479     93.35132     187.2255     374.5629      1.940     4.32     1298.401     66.06222     705.1416        39     1.642     1.250 -36.63   0
       385    698.2667   1011.2619 307.6082753  +6.2751609     1738.617     3840.487     5073.044     93.94781     187.3746     374.7865      2.539     6.20     1297.816     66.06222     205.4718        30     1.720     1.318 -27.22   2
       386    345.8083   1008.8180 307.7550684  +6.2644740     1008.884      2419.63     2227.113      93.5008     187.1509     374.6002      2.236     8.17     1301.939     66.06222     143.3905        17     1.549     1.205  67.53   0
       387    527.6487    999.2062 307.6797012  +6.2744842     2412.856     6048.633     7320.363     93.35132     187.2255     374.3391      2.563     6.16     1299.278     66.06222     246.6396        43     1.785     1.672 -73.45   3
       388    524.6432    991.3857 307.6812153  +6.2776151     4855.768     11786.16     14224.36     93.05164     187.2255     374.4883      2.520     5.61     1299.065     66.06222     570.4132        55     1.950     1.666 -35.59   2
       389    277.7727    998.1464 307.7837473  +6.2666199     8062.069      20355.2     23786.58     93.65004     187.5981     374.6747      2.513     5.85     1301.308     66.06222     903.2417        70     2.082     1.749 -27.45   0
       390    731.8689    998.3178 307.5947225  +6.2816211     5105.513     11302.33      13101.5     94.24465     187.7469     374.8238      2.347     5.20     1296.326     66.06222     595.2014        51     1.903     1.513 -25.68   0
       391    793.1882    996.7380 307.5692504  +6.2843038     815.6604     1448.454     1083.094     93.35132     187.2255     374.5256      1.665     5.02      1297.51     66.06222     125.0872         8     1.131     0.631   7.90   0
       392    893.2260    991.6031 307.5277799  +6.2897344     6532.489     12555.33     13683.76     93.35132     187.0763     374.5629      2.036     4.50      1296.74     66.06222     859.2808        46     1.760     1.316 -43.13   0
       393    866.6917    987.9050 307.5389494  +6.2903846     8768.337     18115.08      20065.9     93.94781     188.0442     374.7865      2.192     4.70     1296.358     66.06222     1194.434        55     1.846     1.466 -28.00   0
       394    511.1977    987.1678 307.6869540  +6.2789114      2159.66     5373.342     5879.357     93.05164     187.2255     374.5256      2.411     6.40     1299.083     66.06222     291.9484        38     1.884     1.495 -26.27   0
       395    988.3458    987.0334 307.4883370  +6.2947656     4064.052     7100.687     7125.585     93.79905     187.4491      374.712      1.857     4.05     1294.285     66.06222     540.2496        32     1.538     1.174 -40.77   0
