#   1 NUMBER                 Running object number                                     
#   2 X_IMAGE                Object position along x                                    [pixel]
#   3 Y_IMAGE                Object position along y                                    [pixel]
#   4 ALPHA_J2000            Right ascension of barycenter (J2000)                      [deg]
#   5 DELTA_J2000            Declination of barycenter (J2000)                          [deg]
#   6 FLUX_APER              Flux vector within fixed circular aperture(s)              [count]
#   9 FLUXERR_APER           RMS error vector for aperture flux(es)                     [count]
#  12 FLUX_RADIUS            Fraction-of-light radii                                    [pixel]
#  13 FWHM_IMAGE             FWHM assuming a gaussian core                              [pixel]
#  14 BACKGROUND             Background at centroid position                            [count]
#  15 THRESHOLD              Detection threshold above background                       [count]
#  16 FLUX_MAX               Peak flux above background                                 [count]
#  17 ISOAREA_IMAGE          Isophotal area above Analysis threshold                    [pixel**2]
#  18 A_IMAGE                Profile RMS along major axis                               [pixel]
#  19 B_IMAGE                Profile RMS along minor axis                               [pixel]
#  20 THETA_IMAGE            Position angle (CCW/x)                                     [deg]
#  21 FLAGS                  Extraction flags                                          
         1    609.1018     34.7571 307.6752510  +6.6716485     5794.418     13018.69     17420.95     93.00603     185.4225     371.2876      2.647    11.29     1217.123     65.39998     617.6667        52     2.832     1.254  65.06   3
         2    237.9367     24.4912 307.8301103  +6.6635742     3034.777     6851.565     9775.428     93.00603     185.7175     371.1401      4.164    13.30      1244.71     65.39998     307.4258        61     3.187     2.402 -28.14   2
         3    414.5120     27.2433 307.7565114  +6.6683021     6882.188     14525.08     18056.49     93.00603     185.4225     371.0663      2.329     9.61      1230.27     65.39998     728.1924        45     2.468     1.193  51.54   3
         4    417.8524     24.6718 307.7552075  +6.6694753     6838.041      14330.3     19186.71     92.85876     185.5701     371.0663      2.611    11.76      1230.19     65.39998     782.7136        52     2.953     1.303  44.75   3
         5    225.3311     22.8979 307.8354117  +6.6638134     1049.052     3405.859     5718.831     93.00603     185.7175     371.0294      4.226    10.29     1245.111     65.39998     146.7103        25     2.302     1.283 -73.05   2
         6    667.3307     13.8003 307.6517153  +6.6822339     638.3047     1299.477     2121.205     92.41551     184.9791     370.8081      1.843     3.93     1215.107     65.39998     83.22498         6     1.101     0.402  76.20   0
         7    153.6177      7.6085 307.8657815  +6.6677442     2672.663     11654.35     15548.11     92.71125     185.2748     366.8373      3.148     9.47      1247.29     65.39998     430.2606        72     2.302     2.133 -79.29  16
         8    496.1125      4.2957 307.7233150  +6.6804889     748.3585     1923.177     3419.068     93.00603     185.3487     329.9479      2.350     6.02     1221.725     65.39998     105.9547         8     1.744     0.584 -40.44  18
         9    898.7614      4.5664 307.5556768  +6.6936987     1682.797     5181.202     5510.988     92.71125     185.3487     333.4963      2.636     8.46      1209.82     65.39998     192.4417        41     1.851     1.670  77.37  24
        10    699.2148      5.7361 307.6387128  +6.6866205     781.1255     1637.095     2037.213     92.41551     185.4225     348.8217      2.533     5.18     1214.308     65.39998     103.2316         7     1.089     0.697  58.02  16
        11    500.2159      4.7599 307.7215910  +6.6804331     883.6514     2060.874     3180.675     92.41551     185.3487     336.2348      3.254     7.01     1221.404     65.39998     113.5162        12     1.482     0.928 -77.61  16
        12    434.0261      4.5745 307.7491523  +6.6783145     629.8642      1415.59     1709.597     92.41551     185.3487     333.7424      2.699     4.55     1230.048     65.39998     93.38403         5     1.023     0.575 -73.24  16
        13    963.8907      2.1709 307.5286421  +6.6968378     881.3914     1549.344     1185.879     91.07285     161.4307     294.7152      1.888     6.88     1203.981     65.39998     118.2885        10     1.396     0.952  -3.86  24
        14    271.1013    987.5612 307.7837970  +6.2668090     8062.957     20204.86      25058.4     93.00603     185.4225     371.2876      2.584     5.72     1278.271     65.39998     967.3459        73     2.028     1.961 -26.40   0
        15    768.5497   1020.6757 307.5757578  +6.2696035     4208.129     8944.646     9413.153     93.00603     185.0531     330.2382      2.148     5.16       1278.1     65.39998      443.592        41     1.583     1.529  65.83  24
        16    557.7650   1022.9315 307.6633632  +6.2617005     84903.51     146890.7     155544.6     90.16663     160.0684     293.1787      1.855     5.20     1281.259     65.39998      9539.54        59     1.896     1.227   2.45  27
        17    559.6509   1016.5847 307.6627921  +6.2643850     42168.31     98255.34     110727.2      92.2673     185.6438     370.7342      2.333     5.62     1280.844     65.39998     4280.274        89     1.957     1.706  11.91  19
        18    786.2064    987.2665 307.5695340  +6.2839895     824.5925     1704.524     1973.149     92.41551     185.2748     370.8081      2.408     5.89     1275.986     65.39998     123.6359         8     1.184     0.826  33.61   0
        19    886.3819    981.1512 307.5280666  +6.2898234     6324.064     13007.08     14057.44     92.41551     185.6438     370.8081      2.109     4.68     1274.562     65.39998     674.8267        46     1.633     1.500  81.62   0
        20    860.0062    977.4437 307.5391632  +6.2904846      8396.15     18265.52     20831.79     92.41551     185.2009     370.6604      2.248     4.92      1274.65     65.39998      943.785        57     1.758     1.623  80.94   0
        21    981.6918    976.7164 307.4885663  +6.2947993     3836.181     7358.766     7233.169     92.71125     185.9385      371.177      1.987     4.47     1271.867     65.39998     431.7592        34     1.498     1.349  77.40   0
        22    573.4307    977.6873 307.6583681  +6.2809111     849.6934     2111.481      2037.11     93.15308     185.3487     370.9557      2.528     6.72     1278.233     65.39998     102.9401        10     1.262     1.003 -89.66   0
        23    504.3953    976.7229 307.6871181  +6.2790235     2261.748     5671.574     6212.225      92.5635     184.9791      370.845      2.403     6.32     1278.544     65.39998     246.6656        38     1.669     1.589 -83.58   0
        24    612.7339    975.0060 307.6421086  +6.2833196     702.6964     1567.145     1984.787     92.41551     185.2748     370.8081      2.448     5.86     1277.518     65.39998     118.2782         7     1.151     1.090  14.06   2
        25    457.8499    973.0562 307.7066035  +6.2789961     1128.583     2803.035      3046.19     93.00603     185.5701     371.0663      2.293     8.53     1278.053     65.39998     136.7549        18     1.559     1.303 -29.89   0
        26    891.7924    964.8960 307.5263608  +6.2967177     29940.17     63246.96     69475.09     92.71124      185.127     370.7711      2.184     4.65     1273.099     65.39998     3075.539        83     1.813     1.668  70.57   0
        27    200.3621    964.3173 307.8140063  +6.2740622     951.1702     2125.747     2883.661     93.00603     185.4963     370.9926      2.836     8.07     1277.851     65.39998       134.52        15     1.681     1.130 -63.77   0
        28    789.3696    958.9767 307.5691675  +6.2957817     1567.913     3471.641     3756.471     92.41551     185.4225      370.845      2.260     5.92     1274.332     65.39998     193.5322        27     1.471     1.419 -87.29   0
        29    737.9846    956.7797 307.5906174  +6.2949916     3958.701     9450.981     11231.57     92.71124     185.3487     370.9188      2.421     5.71      1274.55     65.39998     438.8658        46     1.777     1.595 -83.73   0
        30    208.5463    955.9799 307.8108834  +6.2777785     761.5952     1769.077     1955.202     92.41551     185.5701     370.8081      2.210     6.57     1277.851     65.39998     107.3987        10     1.558     0.777  50.05   0
        31     32.8938    954.2391 307.8840073  +6.2726569     1665.676     3843.755     4183.692     93.15308     185.4963     371.1401      2.300     5.78     1276.069     65.39998      251.889        28     1.521     1.417  24.04   0
        32    926.1254    951.7344 307.5125192  +6.3032880     5078.634     10279.35     11908.78     93.15308     185.5701     371.0294      2.161     4.83     1270.949     65.39998     555.0837        44     1.633     1.504 -79.01   0
        33    899.7071    943.3419 307.5237908  +6.3058837     1556.761     2891.949     2907.009     92.85876     185.4963      371.177      1.968     6.14      1270.93     65.39998     171.4102        18     1.481     1.149  63.58   0
        34    620.6448    939.5926 307.6400082  +6.2982120     2363.908     6232.697      6503.27     92.41552     185.3487     370.6604      2.412     6.15      1275.29     65.39998     299.2559        42     1.750     1.692 -37.86   0
        35    231.6664    941.2946 307.8017616  +6.2846134     1338.008     1748.276     2352.941     93.00603     185.7175     371.0294      1.847     4.19     1277.758     65.39998      194.084        12     1.148     0.900  69.31   3
        36    233.9893    939.2846 307.8008631  +6.2855209     2319.669     4938.673     5349.459      92.5635     185.2748      370.845      2.364     7.07     1277.717     65.39998     273.2211        30     2.108     1.180  43.12   2
        37    758.9537    940.4005 307.5824441  +6.3024514      816.811     1628.686     1833.895     92.11884     185.2009     370.5127      1.981     4.98     1273.412     65.39998     127.4706         8     1.237     0.647 -54.15   0
        38      2.4833    937.8887 307.8972098  +6.2783993     1108.929     1883.723      1900.79     92.71124     166.3578      300.692      1.909     7.64     1275.791     65.39998     154.2998        15     1.591     1.082  88.88  24
        39    444.6913    937.8173 307.7132638  +6.2931183     562.6806      1081.13     1152.576     92.71124     185.2748     370.9188      2.168     5.41     1276.518     65.39998      104.662         5     1.249     0.662  15.97   0
        40    544.6180    931.8002 307.6718973  +6.2989147     822.7405     1775.129     1417.802      92.5635      185.053     370.6604      2.174     5.99     1275.574     65.39998     107.7106         8     1.904     0.531  70.63   0
        41    976.1870    931.2581 307.4923789  +6.3133987     626.0572     1188.444     1561.289      92.2673     185.4963     370.6973      2.080     3.05     1268.588     65.39998     98.60925         5     0.825     0.635  49.65   0
        42    265.4310    926.0244 307.7882314  +6.2920432     833.2587     1817.057     2474.601     92.41551     185.4225     370.8081      2.118     5.09      1277.23     65.39998      133.504         8     1.577     0.465  48.49   0
        43    868.8538    918.7041 307.5374522  +6.3150445       4407.9     10063.61     10779.54     92.85876     185.5701     371.3245      2.268     5.20     1270.462     65.39998     539.2794        45     1.716     1.556  62.32   0
        44    405.5023    916.4359 307.7302863  +6.3006525     1061.688     2774.334     3483.755     93.00603     185.4225     371.2139      2.595     8.99     1276.412     65.39998     145.9965        19     1.646     1.372 -76.40   0
        45    306.6036    914.5901 307.7714897  +6.2981339     4331.478     12395.49     15106.64     92.41552     185.2009     370.8819      2.638     6.57     1276.886     65.39998     552.8127        57     1.934     1.814  51.67   0
        46    225.7555    915.7640 307.8050819  +6.2949644     1964.286     3044.425      3647.89     92.71125     185.4963     370.9188      1.805     5.58     1277.353     65.39998     240.2449        15     1.544     0.713  22.93   3
        47    227.2629    912.7884 307.8045553  +6.2962437     3354.957      7321.48     8837.266     92.41551     185.3487     370.8081      2.316     6.62     1277.271     65.39998     402.9622        38     2.005     1.255  33.67   3
        48    885.7598    902.3001 307.5309690  +6.3223797     613.4158     1111.991     1709.916     93.00603     185.4225     371.2876      1.558     4.91     1269.106     65.39998     95.48181         6     1.432     0.477  24.77   0
        49    720.0563    896.2872 307.6001070  +6.3193909     1010.416     2296.176     3079.405     93.00603     185.4225      371.177      2.594     6.59     1271.106     65.39998     114.4089        12     1.602     0.761 -88.72   0
        50    951.6071    892.8680 307.5038908  +6.3284488     870.3463      2095.43     2433.588     92.41551     185.2748     370.8819      2.581     8.49     1267.578     65.39998     98.56116        14     1.756     1.145 -83.07   0
        51    639.5220    889.6707 307.6338331  +6.3194611     1327.924     3312.115     3370.218      93.2999     185.8649     370.9926      2.397     9.24      1272.25     65.39998     148.1909        28     1.851     1.497  -1.13   0
        52    505.8461    891.5552 307.6893808  +6.3142572     557.0834      1452.81     1825.906     93.00603     185.5701     370.9557      1.855     3.44     1275.254     65.39998     82.10693         5     1.253     0.273 -55.03   0
        53     36.5067    886.8749 307.8847821  +6.3006066     1434.903     4114.656     4678.482     92.85876     185.7175     370.9926      2.644     7.37     1273.538     65.39998     207.0355        36     1.853     1.583 -57.64   0
        54    179.7357    885.3579 307.8252520  +6.3059968     1226.435     2987.735     3282.027     93.00603     185.4963     371.0663      2.367     7.79     1276.403     65.39998      174.547        21     1.735     1.219 -23.78   0
        55     54.7924    886.1951 307.8771985  +6.3014960     1111.455     2250.742     3082.759      92.2673     185.2748      370.845      2.642     6.04      1274.09     65.39998     177.2523        14     1.535     0.897  57.57   0
        56    634.1180    879.4045 307.6364263  +6.3235237     3390.294     9391.627      10806.2     92.41551      185.127     370.6973      2.521     6.52     1272.024     65.39998     360.5758        49     1.798     1.739  73.28   0
        57    871.8220    875.2850 307.5376733  +6.3330808     1706.001     3464.846     4499.475     92.85876     185.2009     370.9557      2.425     5.55     1268.114     65.39998     200.3147        25     1.527     1.251  28.99   0
        58    317.3642    872.8391 307.7684211  +6.3157397     6902.934     20769.39     25281.96     92.71124     185.4225     370.8081      2.735     6.56     1276.414     65.39998     822.3289        73     2.064     1.955  64.44   0
        59     81.8776    863.5852 307.8666957  +6.3117377     1005.499     2075.518     1997.895      92.5635     185.2009      370.845      2.285     6.92     1274.273     65.39998      133.462        13     1.199     1.121  30.22   0
        60     65.2039    856.4188 307.8738740  +6.3141436     1335.183     2911.735     3930.863      92.5635      185.053     370.8081      2.733     8.50     1273.146     65.39998     195.0935        19     1.718     1.174  66.48   2
        61    860.8177    857.0187 307.5428641  +6.3402641     1066.123     2223.352     2312.623     92.71124     185.2748     370.9557      1.962     6.05      1267.26     65.39998     142.9385        12     1.693     0.609  76.79   2
        62    796.4087    856.4130 307.5696810  +6.3383875     1694.491     4037.014     4258.101      92.5635     185.2748     370.9188      2.343     8.06     1268.789     65.39998     204.9933        32     1.751     1.396  47.14   0
        63    833.1487    856.0899 307.5544066  +6.3397344     1012.809     2459.955     2504.591     93.00603     185.3487      371.177      2.448     8.87      1267.94     65.39998      163.272        19     1.611     1.362 -31.16   0
        64    532.2872    847.9106 307.6798495  +6.3331642     141470.5     427340.1     513634.4     92.71124     186.0856      371.177      2.710     6.58     1273.605     65.39998     16141.34       193     2.270     2.108  72.39   0
        65    376.7786    850.5884 307.7444542  +6.3269035     3157.576     9636.814     11701.71      92.5635     185.2748     370.8819      2.750     7.26     1275.214     65.39998     458.1836        58     2.109     1.813  62.58   0
        66    319.8119    849.1419 307.7682019  +6.3256109     4955.088     15982.03     19847.88      92.2673     185.4963     370.6973      2.809     7.04     1275.748     65.39998     663.8643        71     2.155     1.932  78.90   0
        67    870.3678    843.4908 307.5393446  +6.3461684     3181.408     7413.565     8816.621     93.15308     185.3487     371.0663      2.437     5.95     1266.192     65.39998     359.6493        46     1.833     1.677  -3.39   0
        68    638.2040    843.7969 307.6359233  +6.3383698     1585.338     4116.124     5117.828      92.2673      185.053     370.8081      2.705     7.11     1269.665     65.39998     228.0823        25     1.862     1.206  36.10   2
        69    611.6843    840.9473 307.6470522  +6.3386695     1100.576     1935.078     3012.937     93.00603     185.4963     371.2139      2.307     6.37     1270.316     65.39998     145.7078        12     1.245     0.993  36.12   3
        70    613.1244    838.0490 307.6465505  +6.3399146     1626.603     3292.756     4319.659     92.85876     185.6438     371.0294      2.360     7.48     1270.007     65.39998     183.1654        23     1.878     1.064  21.68   3
        71   1003.7469    837.7570 307.4840447  +6.3529368     3006.434     6364.853     6532.784     93.00603     185.5701     371.0294      2.118     5.16      1263.71     65.39998     307.4023        35     1.534     1.469 -74.77   0
        72    801.0370    838.1451 307.5683685  +6.3460876     859.4577     2100.869     2431.517     92.85876     185.5701     371.0663      2.427     9.18     1267.572     65.39998     133.7881        16     1.709     1.376 -70.88   0
        73    927.5946    835.7812 307.5157940  +6.3512419     491.1259     1180.923     1441.376      92.5635      185.127     370.8081      1.748     3.69     1264.444     65.39998     76.78174         5     1.530     0.256  48.83   0
        74    605.7721    834.2982 307.6497354  +6.3412208     886.5912     3141.949     4176.595     93.15308     185.2748     370.9926      2.812     9.95     1269.877     65.39998     160.0433        22     1.740     1.588 -72.35   0
        75    889.3969    831.4906 307.5318300  +6.3517542     1901.911     4351.836     4563.691     92.41552     185.2009     370.7342      2.207     5.87     1264.937     65.39998     224.9338        32     1.650     1.415  42.27   0
        76    349.1940    827.4308 307.7567105  +6.3355554     1186.389     2692.873     3774.047      92.2673     185.2748     370.7711      3.094     8.75     1274.559     65.39998      153.767        19     1.751     1.221  84.51   2
        77    483.9887    817.3188 307.7009727  +6.3442026     1264.113     3668.089     4233.228      92.5635     185.2748      370.845      2.575    10.51     1272.341     65.39998     180.9406        30     1.890     1.672 -18.52   0
        78    529.3368    814.9886 307.6821848  +6.3466677     1898.047     3756.999     4764.811     92.41551     185.3487      370.845      2.123     6.74     1271.295     65.39998     214.9515        16     1.761     0.778  57.44   3
        79    531.3890    812.7263 307.6814071  +6.3476703     2623.255     5357.837     7121.446     92.41552      185.127     370.8819      2.557     7.16      1271.11     65.39998      276.452        34     1.922     1.374  47.72   2
        80    449.9958    812.3572 307.7152820  +6.3451258     842.0944     1715.221     1680.654      92.2673     185.2009     370.6973      2.317     6.14      1272.57     65.39998     109.3416        10     1.267     0.835  32.89   0
        81    865.5696    811.2770 307.5424212  +6.3593189     734.2667     1743.451     2642.848     92.85876     185.6438     371.0294      3.264     6.00      1264.26     65.39998     98.36658         7     1.176     0.861 -73.97   0
        82    501.3988    807.6854 307.6940538  +6.3487594     7532.091     24416.54     29428.01     92.11884     185.0531     370.6604      2.771     7.23     1271.421     65.39998     911.8502        79     2.166     1.973  76.55   0
        83    914.8286    805.6504 307.5221154  +6.3632691     2137.488     5670.579     5948.195      92.5635     185.7175     370.9188      2.436     6.59     1262.042     65.39998     239.3802        38     1.688     1.603  79.94   0
        84    291.6318    797.7236 307.7816595  +6.3459178     990.6666     2255.058     3184.352     92.85876     185.5701     370.9557      2.920     8.42     1274.445     65.39998     137.2588        16     1.946     1.017  46.11   2
        85    296.0000    795.9959 307.7799005  +6.3467766      1246.28     2885.253     3726.913     92.11884     184.9791     370.6973      2.559     3.91      1274.25     65.39998     235.2031        13     1.275     0.807  78.34   3
        86     13.5008    798.1837 307.8973517  +6.3364808      788.045      1473.15     1827.167     93.00603     185.2748     370.8081      1.975     4.51      1270.78     65.39998     139.9664         7     1.178     0.492  85.22   0
        87    759.4041    791.9647 307.5872400  +6.3637912     24944.45     70737.56     83162.67     91.97014     185.4225     370.7711      2.612     6.32     1264.428     65.39998     2573.455        96     2.090     1.938 -89.60   0
        88    216.3211    768.9770 307.8139611  +6.3552925     699916.9      2565715      3318734      92.5635     185.2748     370.9926      3.042     9.20     1272.636     65.39998     63533.55       598     2.888     2.364  79.94   4
        89    682.5889    783.7972 307.6194737  +6.3646261     33634.19     106500.1     158514.6      92.5635     185.2009      370.845      3.310     9.82     1264.922     65.39998     3900.423       174     3.493     2.115  31.10   0
        90    884.5605    787.1124 307.5353303  +6.3699292     4709.491     11919.88     13519.09     93.00603     185.4963     371.0663      2.491     5.82     1262.016     65.39998     466.8035        54     1.895     1.668  67.43   3
        91    881.5845    778.4821 307.5368579  +6.3733965     3624.056     8922.441     9939.156      92.5635     185.2009     370.8819      2.392     5.76     1261.565     65.39998     375.2086        49     1.743     1.736 -70.47   3
        92    326.4429    784.3749 307.7676272  +6.3525881     7676.177     25927.58     32110.89      92.5635     185.5701      370.845      2.846     7.49     1273.098     65.39998     956.4219        84     2.181     2.068  73.27   0
        93    388.3905    782.2465 307.7419264  +6.3555228     8027.287     27178.95     33538.23     92.41552     185.4225     370.6235      2.838     7.21     1271.797     65.39998     1073.632        86     2.200     2.076  61.91   0
        94    925.3506    780.5826 307.5185779  +6.3739729     1217.003     2852.446     2848.231     92.41552     185.6438     370.7342      2.288     7.68     1260.517     65.39998     147.9694        19     1.547     1.287 -88.26   0
        95    620.5444    779.4998 307.6454320  +6.3643490      1962.94     3202.293     4316.468     92.71125     185.5701     371.3613      1.785     6.68     1265.018     65.39998     239.2585        18     1.588     0.852  40.52   3
        96    624.4840    777.5230 307.6438594  +6.3652961     2382.975     3822.996     4507.347     93.15308     185.9385     371.1401      1.847     5.56     1264.928     65.39998     306.4535        21     1.754     0.899  72.39   3
        97    621.3746    776.6733 307.6451817  +6.3655442     1906.767      3467.18     4008.745      92.5635     185.4225     370.9557      2.002     3.86     1264.875     65.39998     284.7179         9     1.054     0.645  50.65   3
        98    391.2254    764.8445 307.7413335  +6.3628062     18868.48     65377.57     81147.48     92.41551     185.6438     370.8819      2.884     7.65     1270.648     65.39998     2516.486       107     2.270     2.117  68.69   0
        99    658.1403    767.3066 307.6301999  +6.3706304     949.6516     2244.342     2327.797     92.85876     185.4963     371.1401      2.256     6.28     1263.881     65.39998     144.6937        12     1.720     0.645  37.77   0
       100    508.8611    763.7133 307.6924293  +6.3671730     2645.234     8725.938     10594.44     93.15308     185.7912     371.0663      2.860     7.05      1267.66     65.39998     321.7816        59     2.027     1.949  16.52   0
       101    425.3830    761.9718 307.7272191  +6.3651257      1851.95     5944.246     9748.499      92.5635     185.2748     370.9188      3.710    14.98     1269.435     65.39998     206.2048        63     3.302     1.891  64.93   2
       102    754.0040    760.1263 307.5905558  +6.3767665     5147.976     15035.14     17816.56     92.41551      185.053     370.8819      2.650     6.68     1262.243     65.39998     564.0844        58     1.926     1.817  45.60   0
       103    121.5898    752.3184 307.8539351  +6.3590254     1202.489     2293.678     2683.469      92.5635     185.2009      370.845      2.195     8.84     1270.275     65.39998     170.0398        22     1.982     1.101  43.85   3
       104    112.0941    752.7094 307.8578724  +6.3585481     4385.763     14862.81     21463.91     93.00603     186.1592     371.0294      3.353     7.08     1270.127     65.39998     608.4935        98     3.263     2.049  26.01   3
       105    105.8640    749.0647 307.8605874  +6.3598465     1644.673     3993.177     7207.254     93.00603     185.5701     371.0663      3.701     8.76     1269.899     65.39998     232.6593        22     2.237     0.959  59.75   3
       106    899.5049    748.6086 307.5304035  +6.3863300     3293.153     8583.045     9717.252     92.71125      185.127     370.7711      2.479     6.35     1259.656     65.39998     345.7478        46     1.858     1.618 -78.35   0
       107    948.2787    749.9446 307.5100651  +6.3873871      701.686     1174.303     1899.071     93.15308     185.5701     371.0663      1.688     3.60     1259.685     65.39998     121.8834         5     1.307     0.286  53.76   2
       108    948.4902    747.2496 307.5100674  +6.3885075     766.7253      1596.28      2398.76     93.00603     185.3487     371.2139      2.843     7.19     1259.616     65.39998     122.7753        11     1.587     0.913 -11.93   2
       109    542.6003    745.0267 307.6790208  +6.3760108     886.0954     2332.601     3335.769      92.5635     185.2009     370.8081      2.891     8.33     1264.551     65.39998     108.1123        14     2.359     0.822  44.54   0
       110    655.2286    745.5026 307.6321443  +6.3795422     691.6066      1907.53     2749.183     93.15308     185.2748     371.0294      3.106     8.82     1262.319     65.39998     98.30042        10     1.628     1.333  19.22   0
       111    893.5352    740.6445 307.5331544  +6.3894233     1574.862     4227.359     5126.592     93.00603     185.4963     371.0294      2.564     7.17     1259.277     65.39998     222.4523        33     1.673     1.590 -10.32   0
       112    105.4132    742.7306 307.8609890  +6.3624483     1061.951     2244.344     3005.112     92.41552     185.4225     370.8819      2.267     6.21     1269.717     65.39998     137.5526        13     1.407     0.770  22.50   1
       113    953.1768    740.8005 307.5083335  +6.3913265     871.1432     2179.727     2352.753      92.5635     185.2009     370.7711      2.505     7.79     1259.556     65.39998     135.5667        13     1.523     1.115 -10.89   2
       114    923.1328    739.8671 307.5208655  +6.3907211     1545.472     3945.163     4152.316     93.00603     185.5701     371.0663      2.422     9.07     1259.167     65.39998     194.0443        28     1.729     1.328  44.53   0
       115    219.2482    735.0907 307.8138873  +6.3693890     808.4435     2460.004     4403.999     93.00603     185.4225     371.2139      6.940    10.57      1270.49     65.39998     127.3005        20     1.829     1.772  84.38   0
       116    938.9515    727.0607 307.5147129  +6.3965338      1203.85     2933.816     3852.667     93.00603     185.4963     371.1032      2.694     7.39     1258.628     65.39998     158.9932        14     1.578     0.968  11.49   2
       117   1011.8052    721.7415 307.4845777  +6.4011338     4292.282     9827.388     11066.26     92.41551     185.4225     370.7711      2.254     5.29     1258.705     65.39998     438.6317        43     1.710     1.507  53.68   0
       118    979.5291    721.4390 307.4980176  +6.4001947     973.2168     2041.588     2177.282     92.85876     185.5701     371.1032      2.222     6.76     1258.445     65.39998     140.8063        10     1.263     1.107  76.53   0
       119    867.3672    717.3031 307.5448253  +6.3982029      797.092     1608.165     1826.898     93.15308     185.4225     371.1401      2.024     6.12     1258.008     65.39998     96.06091        10     1.461     0.722 -23.76   0
       120    841.8454    711.5085 307.5556390  +6.3997543     588.4548     1253.596     1688.155     93.00603     185.4963      371.177      2.238     5.78     1257.851     65.39998     94.31726         6     1.144     0.822  31.83   0
       121     24.3793    707.9508 307.8958780  +6.3741198     1064.101     3089.675     3514.545     92.41551     185.6438     370.8819      2.574     9.32     1269.066     65.39998     176.0208        22     2.248     1.101 -89.83   2
       122    822.8173    709.7866 307.5636141  +6.3998373     698.7658     1413.847     1869.383     92.71124     185.2009     370.9188      2.252     3.82     1257.839     65.39998     101.0281         5     0.920     0.454  45.83   0
       123    638.1542    695.6775 307.6409235  +6.3995619     2319.536     4572.074     6440.042     92.85876     185.6438     371.0294      2.733     8.35     1260.432     65.39998     276.4095        29     1.944     1.352 -70.76   2
       124    634.7482    695.4759 307.6423474  +6.3995325     2197.914      4318.57     6160.265     93.00603     185.6438     371.0294      2.497     8.22     1260.431     65.39998     241.5294        23     2.146     0.879 -79.04   3
       125    583.4257    694.9158 307.6637205  +6.3980652     600.2521     1875.308     2506.588     93.00603     185.2748     370.9188      2.868     8.09     1261.499     65.39998     95.65247         9     1.832     0.999   3.76   0
       126     99.9503    692.6528 307.8649544  +6.3829548     1576.485     4323.747     5145.962     93.15308     185.4225     371.0663      2.730     6.90     1267.443     65.39998     248.2128        34     1.784     1.583  68.07   0
       127    972.9930    690.6472 307.5017689  +6.4127006     1240.622      2920.36     2684.788     92.41551     185.3487     370.5865      2.238     8.34     1255.792     65.39998     195.3715        21     1.617     1.384  68.03   0
       128    752.9564    688.1641 307.5934083  +6.4064624     7853.946     24433.61     30036.39     92.71124     185.4963      370.845      2.766     6.87       1258.8     65.39998     781.2438        76     2.095     1.976  84.96   0
       129    610.5786    690.4049 307.6525745  +6.4008277     691.3384     1905.893      2446.43      92.5635     185.2748     370.8081      2.532     6.86     1260.525     65.39998     99.84546        10     1.825     0.722  24.99   0
       130    882.7673    687.7495 307.5394087  +6.4109212     1867.826     4938.111     5607.209     92.85876     185.6438     370.9557      2.500     8.21     1256.477     65.39998     200.4005        34     1.810     1.440 -63.08   0
       131    224.9036    684.0096 307.8132588  +6.3906799     1581.163     3260.527     3879.207     92.71124      185.127     370.8081      2.078     7.14     1267.053     65.39998     191.5715        19     2.042     0.699  35.35   3
       132    227.7599    681.3217 307.8121611  +6.3918852      2495.03     5735.537     6883.594     92.85876     185.5701     371.0294      2.397     7.30     1266.847     65.39998     293.9874        40     2.128     1.320  27.68   3
       133    632.2015    682.8002 307.6438332  +6.4046851     2105.558     3944.757     5098.011      92.2673      185.053     370.6604      2.251     5.67     1260.055     65.39998     244.5507        23     1.794     0.896  47.89   3
       134    634.5558    680.0977 307.6429445  +6.4058795     2627.964      6283.55     8079.702     93.00603     185.4963     371.2876      2.733     7.71      1259.92     65.39998     325.3798        39     2.250     1.244  34.73   3
       135    704.8364    669.4798 307.6140583  +6.4125909     1516.599     4495.286     5508.002     92.85876     185.6438     371.0294      2.766     9.67     1258.716     65.39998     210.4644        38     1.809     1.737  72.40   0
       136    971.3525    665.8800 307.5032816  +6.4228790     4761.557     11872.44     13520.38     93.00603     185.5701     371.0294      2.444     5.91     1253.733     65.39998     527.6718        53     1.827     1.693 -81.22   0
       137    909.4673    666.2847 307.5290187  +6.4206704     1229.646     2866.265     2881.973      93.2999     185.8649     371.0663      2.376     7.69     1255.132     65.39998     155.5436        18     1.526     1.084  88.94   2
       138     49.1811    661.5150 307.8871299  +6.3941290     9041.998     31313.73     39521.04      92.5635     185.2748     370.9926      2.904     7.42      1267.03     65.39998     1418.917        90     2.299     2.054  63.78   0
       139    693.1204    654.5568 307.6194347  +6.4183687     968.3793     1683.145     2037.493     93.00603     185.5701     370.9926      1.939     5.81     1257.561     65.39998     172.0482         9     1.861     0.511  38.40   2
       140    695.5095    651.7372 307.6185354  +6.4196126     1397.747     2883.999     3902.258     93.00603     185.7175     371.1032      2.591     7.60     1257.251     65.39998     150.5198        21     1.662     1.197  30.67   2
       141    717.4736    650.7716 307.6094286  +6.4207378     1568.432     4674.176     5383.642     92.85876     185.5701     370.9557      2.778    10.03     1256.847     65.39998     199.3623        31     1.906     1.471  72.07   2
       142    546.9717    652.2667 307.6803236  +6.4144780     735.2901     1078.736     2323.274     92.71124     185.4963     370.9926      1.426     3.46     1260.721     65.39998     117.4443         5     0.645     0.625  88.38   3
       143    549.5068    649.0082 307.6793784  +6.4159082     1079.263     2712.464     3487.099      92.5635     185.2009     370.8081      2.719     9.83     1260.427     65.39998     146.8407        21     2.078     1.298  10.04   2
       144    989.6918    647.2930 307.4962732  +6.4311628     2696.941     7016.022     8027.099     93.00603     186.1592     371.0294      2.453     6.19     1251.647     65.39998      285.712        44     1.823     1.592 -62.78   0
       145    955.0748    646.1947 307.5107146  +6.4304750      4102.61     10557.13     12127.69      92.5635     184.9791     370.9188      2.481     5.82     1252.652     65.39998     441.3245        53     1.856     1.718  85.99   0
       146    211.1623    648.9345 307.8201604  +6.4047137     822.6343     1451.995     2273.919     92.85876     185.4963     371.1032      1.707     3.38     1264.867     65.39998     125.6421         6     0.890     0.472  56.94   0
       147    113.9210    640.3999 307.8609079  +6.4050063      7751.19     28562.57      37038.4     92.11884      184.831     370.7342      2.999     7.92     1264.427     65.39998     1215.942        88     2.349     2.105  69.01   0
       148    398.4865    643.2408 307.7424107  +6.4132853     733.2667     1765.808     2385.227     93.00603     185.4963     371.0663      1.669     3.91     1262.918     65.39998     106.8141         5     1.315     0.334  40.23   2
       149    402.0941    640.0779 307.7410162  +6.4147117     1219.861     2751.568     4285.088     92.71124     185.7912     371.1032      2.693     7.04     1262.655     65.39998       140.05        17     1.539     0.901  27.40   0
       150    781.4559    639.2504 307.5831922  +6.4276125     614.8704       1132.1     1229.931     93.00603     185.5701     371.0663      1.509     3.44     1254.343     65.39998     110.0623         5     0.797     0.429  67.82   0
       151    950.0562    629.0989 307.5133760  +6.4373726     3290.064     8901.464     11083.38     92.71124     185.5701     371.2876      2.648     6.52     1251.436     65.39998     349.1272        55     2.126     1.704  59.51   0
       152   1005.2728    624.2448 307.4905619  +6.4411988     49728.57     123456.9     140830.4     92.85876     185.6438     371.0663      2.443     5.62      1249.44     65.39998     4739.657       109     2.033     1.841  82.24   0
       153    541.8121    626.2322 307.6833466  +6.4250629     13379.12     29678.69     34336.04     92.41551     185.2748     370.9188      2.274     8.53     1259.239     65.39998     1475.957        38     2.181     1.010  46.41   3
       154    544.5169    623.7407 307.6823050  +6.4261818     16935.33      40931.4     49605.11     93.15308     185.6438     371.1032      2.514     7.60     1259.053     65.39998     1804.701        67     2.420     1.367  38.96   3
       155    154.0097    620.7260 307.8448929  +6.4144674     653.9335     1240.661     2454.293      92.5635      185.127     370.8819      2.396     4.47     1263.237     65.39998     144.1779         8     1.242     0.571  39.06   2
       156    150.2941    619.6779 307.8464743  +6.4147768     849.6392     1627.096     2654.657     92.71125     185.7912     371.1032      3.649     9.78      1263.18     65.39998     132.2147        10     2.994     0.892  76.38   2
       157     45.4948    616.8152 307.8901754  +6.4124726     686.2179     1495.771     2103.351     92.71125     185.2748     370.8081      2.230     4.87     1263.785     65.39998     90.97095         6     1.359     0.494  86.65   0
       158    439.7100    610.9763 307.7263451  +6.4279819     16318.71     31652.39     36237.24     93.00603     185.3487      370.845      2.086     6.61     1260.294     65.39998     1871.381        44     2.116     1.020  36.83   3
       159    441.9960    607.6672 307.7255054  +6.4294248     21267.84     55124.43     66660.25      92.2673     185.2009     370.7711      2.570     8.21     1260.055     65.39998     2452.808        76     2.463     1.501  33.61   3
       160   1019.1002    607.3311 307.4853746  +6.4486425     1797.831     4649.674     4518.228     93.00603     185.7175     350.8561      2.444     8.89     1247.759     65.39998     219.1737        32     1.641     1.498 -75.81  16
       161    117.8366    604.3903 307.8604958  +6.4200130     594.5516     1406.421     2443.058     92.41551     185.3487     370.7342      2.081     4.38     1262.344     65.39998     89.88147         5     0.989     0.551  47.72   0
       162    285.7818    599.9816 307.7907649  +6.4274163       786.05       2101.4     3691.197     92.71124     185.2748     370.9557      3.654     6.51     1260.745     65.39998      139.817        12     1.181     1.007  45.39   2
       163    711.2184    593.1910 307.6139661  +6.4443199      1626.99     2949.485     4167.141     92.71124     185.2748     370.8081      2.276     7.73     1252.167     65.39998     194.4108        20     2.064     0.810  37.92   3
       164    714.1487    590.8481 307.6128255  +6.4453847     1870.225     4327.383     5388.933     93.15308     185.4225     371.0294      2.372     8.62     1251.994     65.39998      213.141        31     2.080     1.109  28.58   3
       165    768.5060    586.5071 307.5903520  +6.4489750     4572.137     9048.827     12503.88     93.00603     186.1592     370.9926      2.585    11.58     1251.027     65.39998     502.9579        42     2.810     1.330 -59.52   3
       166    765.3237    585.6691 307.5917044  +6.4492160      4900.88     10471.45     11570.57     93.15308     185.7175     371.0663      2.183     8.76     1251.006     65.39998     545.2993        27     1.898     1.130 -71.33   3
       167    589.8832    588.4531 307.6646152  +6.4422627     885.4698     1730.846     2340.963     93.00603     185.5701      371.177      2.284     4.92     1254.584     65.39998     143.8538         6     1.344     0.510  41.52   2
       168    591.1872    584.4534 307.6642071  +6.4439582     1051.366     2874.297     3539.875      92.2673     185.4963     370.6973      2.592     7.70     1254.218     65.39998     145.3613        20     2.020     0.822  28.81   2
       169   1005.8071    586.1404 307.4916162  +6.4569591     1027.525     2623.824     2998.036      92.2673     185.4225     370.7342      2.482     8.81     1246.482     65.39998     130.8525        19     1.730     1.252  78.21   0
       170    510.9155    587.2166 307.6975163  +6.4401580     620.8601     1213.805     2328.842      92.5635     185.2748     370.9188      3.053     5.07     1256.427     65.39998     93.14258         8     0.952     0.765  72.89   0
       171    841.5164    568.4401 307.5605768  +6.4588511     1064.248     2563.522     4158.261     93.00603     185.4963     370.9557      3.024     5.79       1248.5     65.39998     153.3584         9     1.261     0.749 -29.86   2
       172    799.7185    569.4013 307.5779380  +6.4570734     820.2554     1954.679     2558.157     92.11884     185.0531     370.7342      2.674     3.72     1249.928     65.39998      130.025         5     0.785     0.633  72.18   3
       173    781.6912    559.1600 307.5857836  +6.4607089     55711.06     190792.1     237740.1     93.00603     185.4963     371.0663      2.885     7.82      1249.63     65.39998     6080.046       186     2.477     2.302 -38.27   0
       174    230.4849    562.8011 307.8150288  +6.4409396      2981.21     8194.945     12047.47     92.11884      185.053     370.6604      3.093     8.39     1259.491     65.39998     422.1936        56     2.290     1.892  57.37   2
       175    800.2946    566.3127 307.5778019  +6.4583684     974.1667     2065.128     3338.472     93.00603     186.0121     371.1032      2.575     6.17     1249.774     65.39998     117.9396        11     1.480     0.724   6.73   0
       176    162.5927    560.4285 307.8433589  +6.4396630     15005.88     30450.52     33565.32     92.41552     185.3487     370.8081      2.123     7.62     1260.299     65.39998     1567.636        43     2.134     1.051  33.33   3
       177    164.8801    556.9422 307.8425249  +6.4411794     21520.69     50088.36     61689.87     93.00603     185.5701     370.9926      2.512     7.70     1260.135     65.39998     2563.038        71     2.487     1.406  31.39   3
       178     87.7811    554.3052 307.8746947  +6.4397042     1881.506     7333.509     9183.327     92.85876     185.3487     370.8081      2.987     9.19     1260.764     65.39998     320.8984        57     2.204     1.916  66.04   0
       179    817.3223    548.6113 307.5713104  +6.4662442     1543.328     2754.163     3442.598      92.5635      185.127      370.845      1.964     8.14     1248.203     65.39998     214.2938        17     1.822     1.018  -8.89   3
       180    816.6859    545.6149 307.5716758  +6.4674610     1514.141     3314.093      4422.06      92.5635     185.2748     370.9188      2.467     9.62     1248.024     65.39998     221.1433        21     2.379     1.086  -8.68   2
       181    335.8681    547.1500 307.7717061  +6.4509055     4448.355     10187.96     12890.57     92.85876     185.4225     371.0294      2.352     7.53      1254.75     65.39998     449.2029        34     2.157     1.013  35.51   3
       182    338.0613    543.8245 307.7709057  +6.4523522     5637.175     14643.09     19141.12      92.5635     185.4963     370.9188      2.703     8.51     1254.418     65.39998     690.3958        59     2.585     1.358  32.55   3
       183    772.1827    539.8830 307.5903878  +6.4683588     2127.093     6966.472     8642.318      92.5635     185.2009     370.9557      2.919     8.79     1248.705     65.39998     252.7374        53     2.072     1.852 -89.82   0
       184    141.2269    543.1876 307.8528318  +6.4460751     731.2836     1612.515     2908.112      92.5635     185.3487     370.9557      1.761     4.13     1259.735     65.39998     118.3546         7     1.107     0.439  62.53   0
       185    501.8208    541.6595 307.7028348  +6.4586778     1900.788     4139.477     5457.584      92.5635     185.4225     370.8819      2.325     7.72     1251.282     65.39998      231.371        26     1.844     1.062  38.64   3
       186    505.3207    538.8359 307.7014735  +6.4599603     1977.251     3874.303     5344.833     92.85876     185.6438     371.0294      2.175     7.32     1251.109     65.39998     232.7068        23     1.821     0.965  58.96   3
       187    501.6710    537.3251 307.7030432  +6.4604636      1541.07     2279.915     2998.135      93.2999     185.7175     371.0294      1.539     5.08     1251.023     65.39998     189.8964        10     1.240     0.589  45.14   3
       188    148.2652    534.6948 307.8501901  +6.4498178      1713.24     3572.715     5420.119     93.00603     185.7175     371.0663      2.421     8.23     1258.941     65.39998     210.7001        21     2.108     0.899  46.55   3
       189    151.5405    532.0671 307.8489161  +6.4510123     2441.817     5499.027     7388.552     93.15308     185.4963     371.0294      2.512     7.46     1258.602     65.39998     318.0667        42     2.235     1.266  53.02   3
       190    546.8281    535.2485 307.6843219  +6.4628176     701.1863     1629.378     2600.571      92.5635     185.6438     370.9557      2.176     3.77     1250.634     65.39998     110.9187         4     1.169     0.349  45.00   3
       191    548.2406    531.8946 307.6838470  +6.4642500     703.2871     2532.328     3566.602     93.15308     185.4963     371.1401      3.303    11.14     1250.451     65.39998     105.1273        17     1.970     1.757  84.25   2
       192    244.5175    531.8655 307.8102342  +6.4541862     22616.09     48664.39     54749.77      93.2999     185.8649     371.1032      2.245     8.08     1256.207     65.39998      2335.08        52     2.262     1.126  35.33   3
       193    246.8719    528.5507 307.8093664  +6.4556339     29692.16     69363.97     86136.49     93.00603     185.6438     371.0663      2.546     8.40     1255.793     65.39998      3554.84        79     2.591     1.395  35.34   3
       194    943.6112    523.1935 307.5196084  +6.4809142     684.3596     1495.554     1490.644      92.5635     185.3487     370.9188      2.312     5.31     1243.771     65.39998     90.15015         8     1.628     0.489  72.38   0
       195    767.1606    521.4888 307.5930955  +6.4757922     5641.609     13759.09     17468.81     93.00603     185.4963     371.0663      2.642     8.50     1247.183     65.39998     562.2461        57     2.434     1.732  78.65   3
       196    770.5220    521.0006 307.5917131  +6.4761050      4983.57     8417.145     9927.639     92.11884      184.831     370.7342      1.829     5.01     1247.138     65.39998     584.9302        19     1.485     0.880  63.69   3
       197    471.0999    522.1531 307.7162757  +6.4657183     12054.85     26636.61      32140.5     93.00603     185.4225     371.2876      2.356     6.87     1250.689     65.39998     1224.842        53     2.332     1.171  37.23   3
       198    473.2927    518.8613 307.7154741  +6.4671510     13308.76     34060.92     43059.37     92.85876     185.5701     371.1032      2.655     8.37     1250.475     65.39998     1315.546        67     2.619     1.324  33.56   3
       199     22.3348    531.8381 307.9026866  +6.4468071     1908.554     6142.312     7704.778     92.85876     185.4963     371.1032      2.878     8.24     1259.733     65.39998     295.6205        50     2.173     1.809  76.43   0
       200    630.7906    517.2611 307.6499872  +6.4730287     855.0447      1868.11     2874.429      92.2673     185.4225     370.7342      2.198     5.67     1248.892     65.39998     114.8195         8     1.182     0.767  76.67   1
       201    633.4843    514.4879 307.6489596  +6.4742636     928.7383     2369.282     3858.233     92.71125     185.7912     371.1032      2.619     7.68     1248.668     65.39998     123.7498        14     2.094     0.788  56.58   0
       202    186.1855    515.8504 307.8350478  +6.4588637     623.3957      1399.05     2299.197      92.2673     185.5701     370.7342      2.452     3.94     1256.179     65.39998     91.77344         5     1.006     0.441 -44.16   0
       203    300.3602    511.5270 307.7876835  +6.4644435      1095.94     2377.599     3072.193     92.85876     185.6438     371.1032      2.564     6.53     1252.427     65.39998     139.8168        15     1.857     0.644  30.63   2
       204    302.7469    508.0423 307.7868079  +6.4659623     1422.872     3225.353      3689.03     93.00603     185.6438     371.0663      2.319     8.80     1251.994     65.39998     168.8969        23     1.883     1.147  24.93   3
       205    116.7740    508.0660 307.8641939  +6.4597712     7248.822     29227.22     38997.49      92.5635     185.4963     370.8819      3.110     8.46     1257.553     65.39998     1135.714        98     2.423     2.205  78.00   0
       206    479.6958    510.5761 307.7130886  +6.4707861     763.3027     1798.686     4614.178     93.15308     185.2748     370.8819      4.447     5.69     1249.906     65.39998      118.663         7     1.120     0.814  62.63   0
       207     83.9499    505.5208 307.8779385  +6.4597304      995.994     1833.606     3472.626     93.00603     185.6438     371.0294      2.700     6.69     1258.096     65.39998     133.0944        12     1.590     0.789  82.98   2
       208   1019.4146    508.1353 307.4885670  +6.4896351     855.4806     1518.674     1730.313     92.41551     185.4225     347.0515      2.161     6.55     1240.765     65.39998     107.4858        11     1.283     0.940   2.57  16
       209    843.1160    506.3879 307.5619937  +6.4845403     716.4353     1387.854     1651.262      92.5635     185.3487      370.845      2.281     6.37     1244.245     65.39998      90.9021         8     1.223     0.931 -52.79   0
       210    941.8190    501.9924 307.5210652  +6.4896141     2267.686     6385.612     7270.231      92.5635     185.2009      370.845      2.490     7.08     1242.443     65.39998     248.6396        46     1.883     1.696  78.50   0
       211    412.5166    491.2144 307.7416968  +6.4765575     11344.55     25313.69     28416.56      92.5635     185.2748      370.845      2.261     7.12     1249.437     65.39998     1148.552        46     2.149     1.107  31.53   3
       212    414.9449    487.9005 307.7407980  +6.4780071     13330.55      33938.2     43446.24     92.71124     185.5701     371.3613      2.684     9.19      1249.18     65.39998     1523.306        71     2.653     1.430  30.69   3
       213    619.8753    490.2522 307.6554381  +6.4838259     3321.689     6226.074     7641.829     93.00603     185.6438     371.0294      2.050     7.16     1247.367     65.39998     394.8761        24     1.994     0.821  45.86   3
       214    623.5076    487.9801 307.6540029  +6.4848847     3776.215     8063.337     9880.846     92.85876     185.3487      370.845      2.336     6.40     1247.154     65.39998     385.9948        33     1.908     1.140  75.46   3
       215    620.3267    486.6440 307.6553716  +6.4853314     3223.414     5249.646     6761.507     92.85876     185.6438     371.0663      1.873     4.94     1247.182     65.39998     371.2947        16     1.406     0.796  56.84   3
       216    177.7359    488.6472 307.8394829  +6.4698211     5316.264     12288.58     14944.85     92.85876     185.4225     371.1032      2.351     7.56     1253.674     65.39998     578.9243        39     2.229     1.130  39.36   3
       217    180.1896    485.7210 307.8385607  +6.4711115     6788.964      16296.1     21036.36      92.5635     185.2748      370.845      2.577     7.92     1253.282     65.39998      801.178        58     2.575     1.326  37.27   3
       218    541.7191    486.7623 307.6880801  +6.4826796      884.495     2338.238     3966.634     93.00603     185.6438     370.9557      3.357     8.32     1247.863     65.39998     121.9729         9     1.746     1.106  88.39   2
       219    916.9047    482.2923 307.5320942  +6.4969310     1849.805     5659.754     6730.773     93.00603     186.2327     370.9926      2.709     8.44     1241.561     65.39998        235.7        43     2.048     1.542 -58.76   0
       220    588.9883    482.6801 307.6685464  +6.4859316     1923.088     3879.549     4948.371      92.5635     185.2009      370.845      2.150     6.86     1247.318     65.39998     210.8129        18     1.835     0.762  48.31   3
       221    591.2274    479.8308 307.6677105  +6.4871829     1892.209     5653.371     7665.082     92.41551     185.2748     370.8081      3.013    10.27     1247.087     65.39998     226.4386        40     2.247     1.356  39.81   2
       222    941.5094    474.2370 307.5221246  +6.5010709     1173.867     2501.692     3197.478     93.15308     185.4963     371.0663      2.452     6.10     1240.645     65.39998      134.049        13     1.504     0.695  55.93   2
       223    938.2847    475.6634 307.5234188  +6.5003752     1225.711     2527.264      3134.08     93.15308     185.7175     370.9926      2.361     5.23     1240.865     65.39998     156.1213        12     1.270     0.687  47.10   2
       224    500.8238    474.1173 307.7055244  +6.4865487     2143.839     4080.758      5116.97     92.85876     185.2748     370.9557      2.067     8.19     1247.335     65.39998     271.2721        25     1.903     0.985  51.29   3
       225    504.5959    471.3183 307.7040489  +6.4878301     2418.009     4871.107     6748.074     92.41552      185.127     370.6973      2.243     6.86     1246.941     65.39998     304.4955        25     1.861     1.020  78.38   3
       226    501.4942    469.9691 307.7053851  +6.4882847      1855.35     3275.296     4414.666     93.15308     185.3487     371.0294      1.959     4.55     1246.882     65.39998     226.8057        15     1.409     0.734  64.56   3
       227    350.7072    471.3672 307.7680873  +6.4827061     990.9543     2314.917     4476.544     93.15308     185.4225     371.1032      3.684     4.81     1247.793     65.39998     126.0865         9     1.047     0.743  61.29   2
       228    857.7348    468.8939 307.5571683  +6.5005133      1185.49     2520.246     3390.463     93.00603     185.7175     371.0663      2.364     7.18     1241.419     65.39998     140.3553        18     1.879     0.767  61.42   2
       229    859.8502    466.1812 307.5563790  +6.5017039     1065.934     2220.172     4613.718     92.41551     185.6438     370.7711      3.690     6.88     1241.176     65.39998     148.1375        15     1.581     0.840  32.60   3
       230    865.1505    460.8763 307.5543512  +6.5040706     711.6266     1974.927     3079.797     92.85876     185.6438     371.0294      3.400     6.07     1240.749     65.39998     99.44568         7     1.390     0.746 -57.60   3
       231    688.3966    459.5981 307.6279533  +6.4987575     870.3618     1979.015     2650.658      92.2673     185.0531     370.7342      2.680     5.67     1243.699     65.39998     121.8643        10     1.574     0.576  72.07   2
       232    692.2546    458.6427 307.6263798  +6.4992798     824.0102     1795.837     2902.645     93.00603     185.5701     371.0294      2.511     7.13     1243.567     65.39998     140.1005        11     1.915     0.743 -70.91   2
       233    690.0471    455.3505 307.6274092  +6.5005669     760.4006     1461.304     2521.998     93.00603     185.4225     371.0663      2.897     5.02     1243.325     65.39998     107.2723         5     0.972     0.733 -40.09   3
       234    360.1420    458.9256 307.7645807  +6.4881592      1112.03     2684.879     3890.796     93.00603     185.5701     371.0294      3.408     7.80      1246.84     65.39998     149.0934        18     1.907     0.891  59.90   2
       235    362.3693    455.1907 307.7637798  +6.4897761     1173.976     3101.748     4168.969     92.41551     185.3487     370.8081      3.235     9.15     1246.511     65.39998     170.2278        22     2.342     0.998  34.41   2
       236     54.6703    457.9492 307.8917312  +6.4784086     770.3703     1462.986     2527.112     92.85876     185.4963     371.0663      2.477     4.24     1255.992     65.39998     102.7229         7     0.765     0.671  83.44   0
       237    587.4595    454.9969 307.6701142  +6.4973179      2696.28     5028.512     7007.138      92.2673     185.3487     370.7342      2.047     5.66     1244.559     65.39998     343.3409        21     1.711     0.832  44.76   3
       238    589.9407    451.9301 307.6691849  +6.4986670     3204.353     8825.721     11229.62     93.15308     185.5701     371.0294      2.747     8.91     1244.246     65.39998     333.4365        51     2.274     1.707  29.34   3
       239    750.3231    451.0394 307.6024692  +6.5043411      5464.15     11697.42      14468.3     92.85876     185.5701     371.0663      2.366     9.77     1242.174     65.39998      678.623        37     2.597     1.026  69.69   3
       240    753.6748    448.6812 307.6011536  +6.5054262     5484.192      12446.3     15524.04      93.2999     185.8649     371.1032      2.456     7.85     1241.969     65.39998     563.2305        42     1.889     1.396  68.00   3
       241    270.3260    452.4981 307.8021740  +6.4878323     709.4656     2036.775      3468.08      92.5635     185.6438     370.9926      3.543     7.21     1247.973     65.39998     115.5875        11     1.937     0.752  23.98   0
       242    273.8235    449.9070 307.8008060  +6.4890189      854.687     1863.822     3553.243     93.00603     185.3487      370.845      2.141     3.59     1247.693     65.39998     133.4805         5     1.113     0.334 -80.00   0
       243    935.1389    446.6570 307.5257008  +6.5122552     739.0908     1326.269     1652.485     93.15308     185.4963     371.0663      2.499     4.80     1239.304     65.39998     115.6509         7     1.056     0.690 -64.78   0
       244     87.3797    444.0042 307.8785916  +6.4852583     1017.353     1905.846      2730.15      92.5635     185.2009     370.8081      1.894     5.61     1255.002     65.39998     127.9041        11     1.357     0.653  46.54   3
       245     90.4227    441.1089 307.8774232  +6.4865556     1679.242     4192.082      5856.01     93.00603     185.3487      370.845      2.827    11.11     1254.822     65.39998     209.5043        39     2.389     1.577  52.05   2
       246    990.7597    439.1221 307.5028051  +6.5172027     1844.032       5232.5     6496.259     92.85876     185.5701     371.0663      2.707     7.92     1236.732     65.39998     210.3563        41     1.795     1.678  28.22   0
       247    325.6025    436.3661 307.7797153  +6.4963326      881.216     3453.493     4729.885     92.11884     185.3487     370.7711      3.212    12.44     1245.646     65.39998     147.7581        31     2.272     1.897 -71.58   0
       248    791.9395    425.3910 307.5860111  +6.5163128      621.165     1391.738     2134.279      92.2673     185.4225     370.7342      1.741     3.93     1239.173     65.39998     130.9313         5     1.262     0.350  46.79   0
       249    688.6582    421.6942 307.6291187  +6.5144256     4660.592     11680.84      14873.3     92.85876     185.5701     371.2139      2.660     8.74     1241.068     65.39998     494.4751        50     2.564     1.287  74.39   3
       250    692.3279    420.6569 307.6276263  +6.5149755     4571.731     8167.952     9233.949     93.15308     185.5701     370.9926      1.895     6.03     1240.995     65.39998     466.0249        30     1.709     1.090  67.61   3
       251    582.1673    414.3443 307.6736848  +6.5139376     4775.412     10296.88     14029.63     92.85876     185.6438     370.9926      2.760     9.72     1240.382     65.39998     481.3462        54     3.078     1.261  33.75   3
       252    585.0168    411.5786 307.6725919  +6.5151746     5524.826     12235.99     18131.41     92.71124     185.2748     370.9557      2.858    10.42     1240.195     65.39998     648.8505        54     2.818     1.225  37.72   3
       253    613.7653    416.4562 307.6604635  +6.5141113     811.7335     1773.272     3470.644     92.85876     185.5701     371.0663      3.937     4.54     1240.631     65.39998     99.24219         6     0.951     0.735 -12.14   2
       254    915.2350    410.6399 307.5351924  +6.5264786     1612.908     4671.274     4802.459     92.71125     185.4225     370.8081      2.532     9.68     1237.314     65.39998     215.8716        39     2.046     1.569 -48.11   0
       255    353.3954    409.5663 307.7690532  +6.5083270     7780.696     17101.65     19499.39     92.11884     185.4225     370.7711      2.232     7.84     1243.512     65.39998      828.823        38     2.200     1.079  40.08   3
       256    356.2042    406.4016 307.7679910  +6.5097276     9031.458     22983.26     29288.79      92.2673      185.053     370.7342      2.678     9.70     1243.032     65.39998     984.8669        64     2.529     1.510  34.29   3
       257    102.6122    406.5337 307.8735199  +6.5012449     823.2873     1627.342     2887.402     92.41552     185.3487     370.9188      2.602     5.92     1252.896     65.39998     122.7715        10     1.250     0.788  64.60   0
       258    884.0096    401.0759 307.5485091  +6.5293992     2057.991     5982.468     7118.317      92.5635      185.053     370.8081      2.642     8.41     1236.525     65.39998      235.505        46     1.943     1.783  80.23   0
       259    211.2814    400.2994 307.8285079  +6.5074348     3637.376     8588.553     10264.22     93.00603     186.0856     371.1401      2.419     8.56     1247.544     65.39998      400.576        34     2.273     1.076  41.09   3
       260    213.6805    397.1303 307.8276166  +6.5088237     4477.663     11220.59     14556.27      93.2999     185.9385     371.0663      2.661     9.26     1247.231     65.39998     523.4735        50     2.452     1.388  40.77   3
       261   1016.6821    388.0134 307.4937293  +6.5391726      4011.74     11248.31      12551.3      92.5635     185.2748     370.4018      2.510     6.48     1231.315     65.39998     442.1354        53     1.847     1.801 -76.26  16
       262    114.5066    386.3574 307.8692523  +6.5099760     1809.185     4177.092     5426.501     93.15308     185.4963      371.177      2.754    11.36      1251.43     65.39998     232.9894        39     2.164     1.899  69.17   2
       263    110.0000    387.9892 307.8710726  +6.5091519     1088.988     1688.265     2403.431     92.41551      185.127     370.7711      1.799     6.14     1251.746     65.39998      156.257        12     1.762     0.602  76.53   3
       264    135.5618    383.9814 307.8605705  +6.5116581     757.9189     2206.926     3277.047      92.5635     185.4225     370.7342      3.219     9.60     1250.383     65.39998     105.9309        15     2.096     1.226  61.82   0
       265    218.7362    383.8385 307.8259616  +6.5144829     511.5198     972.7259     1378.439     93.00603     185.4963     371.1032      1.502     3.57     1246.242     65.39998     106.0688         5     1.009     0.365  -2.77   0
       266    360.0061    377.3862 307.7673875  +6.5218409     746.1087     1778.573     2387.097      92.5635     185.3487      370.845      2.537     6.55     1240.417     65.39998     111.3643         9     1.441     0.835 -70.46   0
       267    410.7318    373.3068 307.7464144  +6.5252094     2064.022     4257.403     5091.132     92.85876     185.7175     371.0663      2.178     8.12     1238.346     65.39998     233.0873        28     2.013     0.989  31.92   3
       268    413.2866    369.7427 307.7454713  +6.5267666       2239.5     5518.161     7853.993     93.00603     185.5701      371.177      2.636     9.61     1238.078     65.39998     261.3921        43     2.490     1.345  20.16   3
       269      9.8621    371.2604 307.9133110  +6.5127289     1294.475     3322.354     5095.833     93.00603     185.5701     371.0663      3.286     9.85     1254.951     65.39998     163.6951        25     2.143     1.476  25.47  18
       270    750.7995    369.4208 307.6050133  +6.5380765     4067.947     8959.391     12956.49      92.5635     185.2009     370.6973      2.789    10.58     1235.606     65.39998      487.203        47     2.433     1.525  48.72   3
       271    754.5154    367.0355 307.6035469  +6.5391849     4101.333     8447.276     10100.73     93.00603     185.4963     370.9926      2.332     9.72     1235.358     65.39998     441.6268        36     2.379     1.163  46.66   3
       272    994.6806    361.6933 307.5037685  +6.5493212     1377.438     3759.338     4738.635     92.71125     185.8649     371.1032      2.909     4.96     1229.857     65.39998     176.0103        11     1.166     0.807  85.30   2
       273    431.1285    357.3247 307.7384644  +6.5324886      692.807     1606.153     2834.184      93.2999     185.7912     371.0294      2.165     5.56      1236.77     65.39998     103.0626         7     1.229     0.708  45.43   0
       274    459.6749    357.3608 307.7265826  +6.5334204     714.3118      1077.31     2135.779     92.85876     185.5701     371.0663      1.473     3.56     1236.098     65.39998     107.6525         5     0.804     0.455  62.73   3
       275    457.7547    354.5085 307.7274779  +6.5345351     832.2675     1819.233     2046.687     93.00603     185.4963      371.177      2.415     5.37     1235.982     65.39998     104.3391         7     1.069     0.761 -79.46   3
       276    817.5851    350.6503 307.5778475  +6.5480384     11879.83      39868.4     51066.77      92.2673     185.5701     370.7342      2.915     7.48     1233.306     65.39998     1234.985        96     2.336     2.067  87.81   0
       277    461.9376    352.9308 307.7257902  +6.5353256     881.0284     1892.388     2864.193     93.00603     185.5701     371.1032      2.298     6.77      1235.72     65.39998     103.6543        12     1.512     0.849  27.81   0
       278    430.7480    352.7392 307.7387774  +6.5343704     720.0152     1560.468     3096.832     93.00603     185.4963     371.0294      3.064     4.67     1236.487     65.39998     96.83899         8     1.234     0.502  45.73   0
       279    587.8135    341.5623 307.6737845  +6.5441933     810.8215     2454.556     3518.948      92.5635     185.3487     370.6973      3.105     8.44     1233.323     65.39998     114.6697        10     1.944     1.023  80.41   2
       280    672.5840    338.5932 307.6386028  +6.5482258     23709.36     50884.19     59347.16      92.5635     185.2748      370.845      2.317     9.20     1232.876     65.39998     2645.351        60     2.480     1.187  57.99   3
       281    676.1858    336.0053 307.6371908  +6.5494142     23583.63     53356.75     65675.33      92.5635     185.2009      370.845      2.444    10.93     1232.586     65.39998     2372.084        65     2.484     1.340  45.59   3
       282    537.6171    331.3957 307.6950184  +6.5467308     779.8812     2005.577     3530.203      92.5635      185.127      370.845      3.447     8.76     1232.745     65.39998     119.1901        13     2.013     1.065  34.09   2
       283     72.2099    334.5492 307.8886067  +6.5299711     1758.947     3491.917     4783.824     92.41552     185.4225     370.6604      2.435     9.96     1251.903     65.39998     207.3787        29     2.478     1.116  64.62   3
       284     76.1107    332.7601 307.8870438  +6.5308401     2209.363     4563.616     6287.834     93.00603     185.5701     371.0663      2.485    10.05     1251.728     65.39998     277.9436        33     2.492     1.130  53.95   3
       285    518.5110    331.6115 307.7029630  +6.5460085      1875.21     4394.967     6179.874     92.71125     185.2009      370.845      2.573     9.06     1232.894     65.39998     222.0431        29     2.311     0.991  51.20   3
       286    522.1370    329.3595 307.7015298  +6.5470590     2218.668     4362.307     5847.804     93.00603     185.4963     371.1032      2.160     6.98     1232.563     65.39998     257.1533        25     1.842     0.986  68.83   3
       287    518.6987    327.3512 307.7030285  +6.5477748     1612.301     2339.028     3305.946     93.00603     185.4963     371.2507      1.583     4.35     1232.354     65.39998     197.5823         9     0.941     0.674  59.63   3
       288    381.2016    327.2008 307.7602591  +6.5432772     6822.572     14558.21     17061.61      92.2673      185.053     370.6604      2.187     8.30     1236.458     65.39998     709.6667        37     2.183     0.986  36.55   3
       289    384.3981    324.1223 307.7590326  +6.5446551     7856.971      20554.3     26664.71      92.2673     184.9791     370.8081      2.740    10.12     1236.171     65.39998     859.6666        64     2.609     1.593  32.08   3
       290    247.5174    325.2603 307.8159621  +6.5396394     721.0563     1813.932     3254.626     93.15308     185.6438     371.0663      3.616     6.44     1242.117     65.39998     106.4437         7     1.413     0.823  75.05   2
       291    251.5325    327.7677 307.8142064  +6.5387370     779.3624     1674.672     2900.827     92.85876     185.5701     370.9926      2.325     3.45     1242.074     65.39998     133.6316         5     0.835     0.413  67.28   0
       292    470.6792    317.7085 307.7233390  +6.5501668     2430.922     5163.424     7267.058     92.71125     185.8649     371.1032      2.270     8.50     1231.908     65.39998     253.3083        30     2.088     1.010  46.35   3
       293    474.1514    314.7684 307.7219929  +6.5514965     2706.903     5653.339     6555.548     92.71124     185.5701     370.9557      2.212     6.71     1231.461     65.39998     288.6147        32     1.893     1.200  70.98   3
       294    470.3365    312.6801 307.7236510  +6.5522328     1994.138     3080.767      3637.34      93.2999     185.6438     371.0294      1.725     3.62     1231.443     65.39998     226.4369        10     0.996     0.684  60.08   3
       295    739.8620    315.9333 307.6113630  +6.5598126     1026.469     2201.928     3727.334     93.00603     185.4963     371.0294      2.360     4.51     1230.303     65.39998     155.7224         9     1.246     0.464  32.37   0
       296    741.8527    312.3889 307.6106535  +6.5613427     1001.057     2661.255     3847.938      92.2673     185.4963     370.7342      2.905     8.19     1229.883     65.39998     147.0553        14     1.864     1.005  17.36   0
       297    360.8314    301.6415 307.7695992  +6.5531604       2208.4     5601.671     6745.941     92.41551     185.4225      370.845      2.507     8.15     1236.245     65.39998     231.8301        33     2.076     1.138  46.41   3
       298    364.1910    299.1266 307.7682858  +6.5543108     2393.802     4723.995     5535.562      92.5635      185.053      370.845      2.081     8.05      1235.95     65.39998     260.0837        27     2.013     1.013  58.43   3
       299    360.2867    297.6582 307.7699603  +6.5547879     1682.307     2703.919     3549.377     93.00603     185.5701      371.177      1.580     4.50     1236.136     65.39998     244.5271        10     1.212     0.643  56.69   3
       300    728.1559    296.1006 307.6169018  +6.5676192     17844.53      44037.7     56351.43     93.00603     185.4225     371.2876      2.663     8.96       1228.3     65.39998     1948.311        78     2.670     1.516  81.33   3
       301    731.6168    294.7960 307.6155052  +6.5682726     16647.83     32253.01        35339      92.5635      185.127      370.845      2.016     5.12     1228.156     65.39998     1750.867        36     1.726     1.112  79.17   3
       302    219.6777    299.1664 307.8284300  +6.5494941     639.7761     1439.293     2506.396     92.85876     185.5701     370.9926      2.768     5.67     1242.437     65.39998     120.9165         8     1.531     0.591  46.57   0
       303    402.8489    293.9788 307.7523699  +6.5577204     668.6884     1900.934     2441.078     92.41551     185.6438     370.8819      2.726     6.97      1233.42     65.39998     105.8696         9     1.648     0.826  28.32   0
       304    963.7482    292.4195 307.5189658  +6.5769208     758.5031     2051.012     1795.021     92.41552     185.6438     370.8081      2.479     8.66     1225.723     65.39998     94.15063        14     1.838     1.140 -87.63   0
       305    905.2162    291.5500 307.5433577  +6.5753487     793.4935     2718.937     3260.278     92.41552     185.6438     370.6973      2.713    10.71      1227.62     65.39998     122.1895        20     1.923     1.662  68.69   0
       306    388.5714    290.3098 307.7584360  +6.5587624     805.9544     2537.823     3498.296     93.15308     185.2748     370.9188      3.475     6.77     1234.023     65.39998     118.3668         9     1.686     0.894   0.34   0
       307    165.7657    284.0447 307.8513786  +6.5539485     683.3975     1668.913     2579.418      92.5635     185.4963     370.8819      2.798     6.19     1245.304     65.39998     131.2312         8     1.534     0.701 -47.24   2
       308    165.0002    279.6457 307.8518459  +6.5557404      601.004     1249.861     2666.542     92.11884     185.2009     370.5127      4.068     5.23     1245.364     65.39998     99.31372         5     0.967     0.874 -80.27   3
       309    726.2502    280.6415 307.6182147  +6.5739428      2027.98     4614.043     6605.999     93.15308     185.5701     371.0294      2.769     8.51     1227.191     65.39998     263.4911        29     2.164     1.066  76.73   3
       310    729.9895    279.5640 307.6166945  +6.5745116     2007.787     4196.265     5251.976     92.41551     185.3487     370.7711      2.286     8.39     1227.111     65.39998     202.6074        25     1.749     1.124  80.90   3
       311    744.9033    276.3281 307.6105957  +6.5763416     794.9254     2260.038     3778.477     92.85876     185.7175     370.9926      3.309     6.80     1226.896     65.39998      120.801        11     1.643     0.790  13.17   0
       312    335.1767    272.9805 307.7812437  +6.5641492     623.7359     1888.571     2113.016     92.71124     185.4225     370.9557      2.863     5.30     1236.068     65.39998     87.25928         6     1.135     0.698 -89.41   0
       313    982.4042    268.5479 307.5120010  +6.5873985     2613.186     7060.244     7998.329      92.2673     185.3487     370.5865      2.561     7.29     1224.057     65.39998     265.6729        47     1.937     1.689  64.52   0
       314    459.6020    271.5208 307.7295059  +6.5688809     709.2576     1564.135     2505.342      92.2673     184.9791     370.7711      1.932     4.38     1228.179     65.39998     107.1698         6     1.555     0.351  35.51   0
       315    222.0491    262.3141 307.8286880  +6.5647974     1359.642      2936.71     3469.943     93.00603     185.4963     371.0663      2.244     6.00     1242.101     65.39998     197.2355        16     1.450     0.940  20.59   3
       316    225.5198    264.0471 307.8271849  +6.5641968     1731.606     3601.124     4811.974     93.00603     185.5701     371.0294      2.184     7.52     1241.857     65.39998     208.5629        19     1.869     0.847  80.44   3
       317    223.6939    267.3442 307.8278335  +6.5627740     1342.285     1873.413     3607.054     92.85876     185.5701     371.2507      1.641     4.62     1241.958     65.39998     168.5266        10     0.932     0.824  15.78   3
       318    221.0000    266.0514 307.8289984  +6.5632185     1412.924     2523.832     3650.201     92.11884     184.9791     370.4757      2.000     6.04     1242.136     65.39998     184.8999        13     1.324     0.775  68.77   3
       319    535.7388    249.6314 307.6985538  +6.5804478      629.628     1222.203     2429.976     92.71125     185.6438     370.9557      1.796     4.11     1224.121     65.39998     110.8069         5     1.024     0.471   6.63   0
       320    702.6994    244.3117 307.6292386  +6.5881730     1322.338     3028.204     4269.957     93.00603     186.0856     370.9926      2.362     4.25     1225.078     65.39998     169.3508         8     1.116     0.520  58.17   3
       321    699.9741    246.4877 307.6302998  +6.5871839     1513.146     2835.313     4718.417     93.15308     185.3487     370.8819      2.104     5.28     1225.175     65.39998     206.0299        17     1.496     0.799  24.53   3
       322    698.6884    242.3109 307.6309754  +6.5888669     1456.559     3012.518     4593.675     92.71125     186.1592     371.1401      2.818     7.20     1224.912     65.39998     174.0281        16     1.415     1.027 -35.52   3
       323    639.7280    245.8071 307.6553992  +6.5854716      648.043     1584.038     2342.848     92.41551     185.0531     370.9557      2.594     3.86     1224.628     65.39998     100.8436         5     0.927     0.461  43.12   0
       324    879.1915    243.6433 307.5557980  +6.5942817     644.8144     1201.429     1770.897     92.41551     185.3487     370.7342      1.808     3.46      1224.83     65.39998     105.1029         5     1.221     0.283  55.13   0
       325    721.1299    236.5930 307.6218267  +6.5919714     1521.028     1363.254     806.1787     92.41551      185.053     370.9188      0.700     0.93     1224.878     65.39998     661.6591         5     0.515     0.430  57.13   0
       326    198.5291    230.8428 307.8395405  +6.5770168     580.8732     1708.591     2291.954     92.85876     185.5701     371.0663      2.988     6.07     1243.526     65.39998     80.78601         6     1.080     0.958 -76.32   0
       327    432.7100    221.7368 307.7423772  +6.5885561     6465.879     14360.43     18142.14     93.00603     185.7175     371.1032      2.521    10.90     1226.542     65.39998     693.5953        49     2.745     1.206  61.02   3
       328    436.3571    219.2959 307.7409414  +6.5896855     7040.346     15757.46     21784.07     93.00603     185.4963      371.177      2.658    10.59     1226.019     65.39998     773.7878        54     2.646     1.454  52.11   3
       329    758.2492    219.5649 307.6069484  +6.6002337     4314.898     8583.426     10574.79     92.85876     185.6438     370.9557      2.373     9.36     1224.346     65.39998     529.8583        35     2.541     0.962  71.98   3
       330    761.6139    217.8176 307.6056066  +6.6010668     4391.969     10131.18     12984.14     92.71124     185.2009     370.9188      2.519     7.71     1224.257     65.39998     457.6422        46     2.226     1.294  71.86   3
       331    123.7501    213.2791 307.8712581  +6.5817852      889.652     2175.662     2862.039     93.00603     185.6438     371.0294      2.917     7.39     1248.773     65.39998     119.2766        14     1.672     0.914 -86.70   0
       332    556.7059    206.2771 307.6912867  +6.5990535     1344.281     3246.692     4677.838     92.71125     185.7912     371.1032      2.848     9.88     1221.141     65.39998     158.7067        28     2.226     1.224  73.05   3
       333    559.9963    204.3029 307.6899835  +6.5999780     1463.836     3282.815     4453.063     92.71124     185.2009     370.6604      2.631     8.45     1221.153     65.39998     162.0679        24     1.927     1.034  76.64   3
       334    518.3516    204.9391 307.7072963  +6.5983353     617.4128     1515.933      2462.75     93.00603     185.4963     371.1032      2.255     5.57     1221.244     65.39998     97.06506         8     1.967     0.445 -84.79   0
       335    863.8271    202.5204 307.5635739  +6.6107637      4302.24     9627.983     12412.35     92.85876     185.4963     371.0294      2.566     8.65     1222.428     65.39998     489.8387        45     2.391     1.347  73.39   3
       336    866.3484    200.6708 307.5625864  +6.6116111     3425.269     6277.714     7502.752     92.85876     185.5701     371.0663      1.997     5.37     1222.269     65.39998     390.6199        20     1.499     0.985  45.07   3
       337    920.3109    201.0804 307.5401103  +6.6132234     882.7393     2437.318     3414.808     92.71124     185.7912     371.1401      2.789     8.19     1221.492     65.39998     112.3832        15     2.442     0.769  30.52   2
       338    951.3643    199.0898 307.5272508  +6.6150704     4110.159     11951.97     14082.83     93.15308     185.4963     371.0294      2.665     6.84     1220.774     65.39998     450.4016        64     2.007     1.917  69.15   0
       339    661.8769    196.8856 307.6478258  +6.6064156     765.1288     2077.453      3732.13     93.00603     185.9385     371.1401      3.888     5.19     1222.293     65.39998     145.2615         8     1.065     0.716  60.32   2
       340    473.6756    195.7032 307.7262035  +6.6006699     531.5182     1551.028     2355.178      92.5635     185.7175     371.1032      3.516     6.47     1221.966     65.39998     94.30054         8     1.257     0.936  67.61   0
       341    485.6884    191.3392 307.7213503  +6.6028711     682.8693     2302.917     3737.345     93.00603     185.7175     371.0663      3.146     8.20      1221.38     65.39998     129.4688        11     2.177     0.863 -64.23   0
       342    717.3964    187.1909 307.6250417  +6.6122576     11393.86     20888.91     23605.79      92.2673     185.2009      370.845      1.920     6.13     1223.032     65.39998     1182.834        37     1.843     1.023  79.69   3
       343    713.6716    188.1076 307.6265613  +6.6117557     12801.77     31882.65     39961.45     92.85876     185.7912     371.0663      2.626     8.80     1222.991     65.39998     1344.243        65     2.635     1.363  77.18   3
       344    315.9827    186.7399 307.7921434  +6.5991398     1899.519     3841.093     5903.147      92.5635     185.4963     370.7342      2.737     8.04     1236.352     65.39998     201.5419        22     1.886     1.026 -68.44   3
       345    319.8495    189.2816 307.7904481  +6.5982182     2116.592     4647.507     7060.667     93.00603     185.5701     371.0663      2.822    10.32     1235.836     65.39998     234.3082        39     2.541     1.596 -27.52   3
       346    320.6929    185.6141 307.7902208  +6.5997613     1894.369     3737.965     5201.998     92.71125     185.2748      370.845      2.323     5.12     1235.802     65.39998     242.9863        17     1.375     1.022  86.47   3
       347    853.8560    188.8625 307.5681830  +6.6160770     693.9712     1619.271     2598.931     93.15308     185.5701     371.0294      2.554     5.44     1221.647     65.39998     92.78076         7     1.383     0.604 -89.70   0
       348    805.0530    189.3181 307.5884825  +6.6142766     642.2711     1560.518     2243.998     93.00603     185.5701     371.1032      1.932     7.48     1222.351     65.39998     99.60095         8     2.733     0.574 -11.13   2
       349    947.7830    186.4996 307.5291639  +6.6201537     1294.062     3580.897     4540.863     93.00603     185.3487     370.8081      2.901     8.94     1219.653     65.39998     148.8673        24     1.788     1.304  38.10   2
       350    882.9286    184.5598 307.5562256  +6.6188147     2708.927     8996.252     10168.31     92.85876     185.5701     371.1032      2.689     8.02     1220.903     65.39998     338.2999        51     1.970     1.806  78.47   0
       351    424.6892    185.4130 307.7469405  +6.6032964     1390.492     3269.467     4973.482     92.71125     185.2748     370.8819      2.922     9.24     1223.649     65.39998     158.7769        25     2.121     1.124  56.92   2
       352    428.8799    184.0214 307.7452430  +6.6040103     1450.797     3446.728      5366.78      92.5635     185.2009     371.0294      2.985     7.66      1223.39     65.39998     193.8202        20     1.657     0.990  67.34   3
       353     84.2255    175.6581 307.8889814  +6.5960113     1301.381     5654.551     7673.764      92.5635     185.5701      370.845      3.159    10.97     1251.562     65.39998     186.5414        59     2.294     2.055 -89.88   0
       354    253.3409    174.5506 307.8186286  +6.6020943     9590.364     20631.73      22542.4     93.00603     185.5701     371.1032      2.243     7.27     1242.634     65.39998     975.5387        45     2.142     1.128  31.90   3
       355    255.7022    171.1549 307.8177604  +6.6035755     10531.47      26356.1     34818.26     93.00603     185.4963     371.2507      2.692     9.80     1242.638     65.39998     1265.591        67     2.731     1.426  32.49   3
       356    227.6548    169.9960 307.8294738  +6.6031221     1167.751       1939.8      1886.07      92.2673     185.3487     370.6235      1.694     5.97     1244.605     65.39998     162.1555        12     1.316     0.762  63.11   3
       357    228.4526    175.4256 307.8289583  +6.6009055     1834.521     3972.257     5196.127      92.5635     185.6438     370.9188      2.299     7.18      1244.36     65.39998     210.2317        30     2.037     1.092  34.38   3
       358    231.8593    172.4809 307.8276398  +6.6022353     2123.869     3947.251     5079.062     93.15308     185.5701     371.0294      2.108     5.59     1244.233     65.39998     252.3397        25     1.646     1.079  70.16   3
       359    377.3069    169.8996 307.7671862  +6.6081330     14134.45     32372.95     41465.17     93.00603     186.1592     370.9557      2.581    11.44     1228.396     65.39998     1407.959        60     2.851     1.279  59.78   3
       360    380.3944    166.8517 307.7660039  +6.6094946     15212.55     33765.52     41442.91     92.41551     185.3487     370.6235      2.449    10.75     1227.799     65.39998     1659.052        64     2.559     1.342  53.21   3
       361    132.6327    167.0586 307.8691241  +6.6011751     859.8273     2476.026     3928.738     92.85876     185.6438     370.9557      3.308     7.37     1249.213     65.39998     108.3385        12     1.849     0.822  88.90   3
       362    131.6772    171.0303 307.8693875  +6.5995026      752.761     1603.962     3327.434     92.85876     185.6438     371.0294      2.214     3.40     1249.163     65.39998     131.5211         5     0.844     0.396  67.76   3
       363    135.5502    171.1155 307.8677726  +6.5995963     1353.045     3116.142     4712.259     93.00603     185.5701     371.1401      2.722     6.46     1248.985     65.39998      175.702        17     1.798     0.795 -39.54   2
       364    281.5930    167.8639 307.8070949  +6.6057955     4889.504     11084.26     15024.88      92.2673     185.2009     370.8081      2.654    11.81     1241.025     65.39998     530.7874        48     3.026     1.283  60.63   3
       365    284.5981    164.8876 307.8059445  +6.6071249     5793.634     13192.18     19281.81     92.11884      185.127     370.6973      2.808     9.02      1240.99     65.39998     634.8191        55     2.411     1.513  52.02   3
       366    716.1413    164.0716 307.6263415  +6.6217674     10648.15     27082.23     33684.71     93.15308     185.5701     371.0294      2.656     8.50      1222.32     65.39998      1163.08        66     2.597     1.444  75.77   3
       367    719.6347    162.8297 307.6249290  +6.6223960     9577.331     18986.92     20525.36      92.5635     185.2748     370.8081      2.030     5.69     1222.398     65.39998     1021.602        30     1.729     1.039  73.47   3
       368     34.5682    161.2645 307.9101369  +6.6003039     2435.428     10303.97     14372.47     92.71125     185.6438     370.9926      3.276     8.79     1254.739     65.39998     421.3922        75     2.333     2.205 -67.17   0
       369    976.6019    144.8035 307.5185659  +6.6383307     850.1261      1741.93      2461.74      92.2673      185.053     370.7342      1.828     4.98     1215.293     65.39998     120.3594         7     1.561     0.449 -25.65   0
       370    252.5911    141.1362 307.8200693  +6.6158734      8561.12     18304.38     23187.09     92.41551     185.3487     370.8081      2.398    10.73      1244.03     65.39998     871.0546        49     2.647     1.211  45.27   3
       371    255.3694    137.8201 307.8190249  +6.6173357     9754.101     21498.13     28127.35     92.41551     185.3487     370.8819      2.530    11.41     1243.995     65.39998     1066.155        57     2.808     1.310  40.38   3
       372    976.1121    142.0280 307.5188629  +6.6394612       734.17     1468.676     2093.563     93.15308     185.2748     370.8819      1.767     5.36     1215.158     65.39998     121.3467         7     1.552     0.522 -23.67   0
       373    683.4484    135.4452 307.6409132  +6.6325124     2561.333     6492.738     8520.337     93.00603     185.4225     371.0663      2.758     8.78     1219.646     65.39998     310.0427        43     2.437     1.322  67.18   3
       374    687.0161    133.7298 307.6394858  +6.6333391     2434.143     4335.841     5598.806     92.41551     185.4963     370.9188      1.956     5.71     1219.654     65.39998      272.454        25     1.714     1.014  57.67   3
       375      1.2418    136.8766 307.9248339  +6.6092685     936.0042     1244.831     1590.419     79.34718     146.0281     277.5919      1.354     3.41       1256.5     65.39998     213.1184         7     1.076     0.411 -83.14  24
       376     95.4429    135.1787 307.8856820  +6.6131073     1375.664      2692.64     4499.621     92.41552     185.4225     370.8081      3.828     8.47     1250.151     65.39998     174.4982        20     2.593     0.773  38.86   2
       377    364.9312    130.2897 307.7736740  +6.6240859     1454.296     3198.954     3842.129     93.15308     185.7912     371.0294      2.299    10.12     1230.539     65.39998      168.377        27     2.355     1.213  63.05   2
       378    368.6345    127.4159 307.7722295  +6.6253961     1203.206     2928.152     3701.419      92.5635     185.2748      370.845      2.461     9.49     1229.903     65.39998     148.9968        22     2.136     1.177  52.89   3
       379    332.9722    126.5556 307.7871031  +6.6245674     1054.417     2141.788     2970.878      92.5635     185.6438     370.9188      2.151     6.62     1235.592     65.39998     161.2217        14     1.583     0.777  76.49   0
       380    975.6689    121.2912 307.5197428  +6.6480137     730.4359     1532.986     2186.043     93.00603     185.7175     371.0294      2.748     5.80     1213.965     65.39998     95.21838         8     1.160     0.818  69.76   0
       381    183.3187    116.6954 307.8497296  +6.6236671      1718.19      5858.27     7867.002     92.71125     185.9385     371.1401      3.080    10.02     1247.517     65.39998       216.58        53     2.180     2.003 -60.05   2
       382     97.8903    131.5095 307.8847874  +6.6147046     1705.667     3743.431     5263.651     93.00603     186.1592     371.1401      2.710     5.02     1249.907     65.39998     199.8138        20     1.367     1.065  79.54   3
       383    643.9544    116.7009 307.6579841  +6.6389492      2033.55     4198.175       6892.2     93.00603     185.4225     371.2876      2.689     8.80     1218.634     65.39998     246.5319        27     1.843     1.173  16.92   3
       384    646.1801    113.5677 307.6571631  +6.6403173     1783.025      4004.31     5329.923     92.41552     185.3487     370.8081      2.443     6.69     1218.449     65.39998      200.954        19     1.698     0.852  66.82   3
       385    642.3353    112.0183 307.6588157  +6.6408301     1649.094     2515.724     2879.097      92.5635     185.5701      370.845      1.711     6.16     1218.382     65.39998     202.2185        12     1.231     0.866  67.93   3
       386    598.8105    105.2207 307.6771629  +6.6421973     16826.54     38295.24      52791.4      92.5635     185.2009      370.845      2.645    10.76      1218.39     65.39998     1735.217        73     2.752     1.543  66.69   3
       387    602.4912    103.0091 307.6757051  +6.6432329     15339.13     34583.36     42321.98      92.5635     185.2009     370.7342      2.941    15.17     1218.308     65.39998     1581.705       105     5.151     2.467 -60.64   3
       388    324.0114    105.3349 307.7915495  +6.6330365     908.4941     2385.849     3829.723     92.41551     185.3487      370.845      2.954     7.66     1237.471     65.39998     113.5231        14     1.839     0.892 -12.89   3
       389    323.2652    110.2645 307.7916936  +6.6309752     1132.292     2766.726     3971.802     93.00603     185.5701     371.0294      2.831     8.40     1237.494     65.39998     132.1346        15     1.710     1.153  26.50   3
       390    326.1980    107.9045 307.7905525  +6.6320476     1289.122     2809.263     3910.356     92.41551     185.2009     370.5865      2.665     6.11     1237.094     65.39998     169.0859        17     1.474     0.978 -36.77   3
       391    968.7791    106.7734 307.5230980  +6.6537842      601.946     1254.688     1251.609      92.5635     185.3487     370.9557      1.804     3.89     1213.312     65.39998     76.13477         5     1.361     0.319  59.23   0
       392    279.7935     97.8365 307.8102088  +6.6346653     1002.276     4279.626     6343.478     91.97014     185.2748     370.7342      3.365    11.65     1243.601     65.39998     166.3572        34     2.301     1.643 -50.81   2
       393    664.9283     85.5569 307.6503010  +6.6525098     903.9501     2958.124     3862.516     92.85876     185.5701     371.0663      3.141     9.19     1216.964     65.39998     137.7311        20     2.266     1.040  25.74   2
       394    408.3261     77.4552 307.7573927  +6.6473533     1467.444     3526.963      5155.67     92.85876     185.4225     370.9557      2.863    10.08     1225.596     65.39998     160.6273        30     2.107     1.346  83.11   2
       395    404.0745     80.0700 307.7590743  +6.6461319     999.2548     2364.715     3159.048     93.15308     185.7175     370.9926      2.577     5.66     1225.906     65.39998     145.3381        10     1.743     0.519  34.03   3
       396    878.4105     73.5769 307.5618323  +6.6645163     1565.573     4661.541     5929.619      92.5635     185.3487      370.845      2.784     9.92     1212.577     65.39998     178.1262        40     1.923     1.734  36.62   0
       397    860.5552     75.4528 307.5692024  +6.6631517     836.4491     2189.377     2577.723     93.00603     185.5701     371.0294      2.680     7.12     1212.801     65.39998     110.5101        12     1.639     0.866 -16.57   0
       398    572.7201     73.1341 307.6891043  +6.6545890     611.3568     1668.464     2581.185     93.15308     185.7175     370.9926      3.147     5.28     1217.905     65.39998     75.72266         7     1.140     0.690 -52.52   0
       399    371.4850     70.8655 307.7729511  +6.6488528     697.1417     1605.271     2385.645     93.15308     185.7912     371.1032      2.755     4.86     1231.659     65.39998     108.7222         5     1.079     0.619 -29.52   0
       400    116.4305     69.8486 307.8791562  +6.6407946     950.4255     1901.364     3239.448      92.5635     185.6438     370.9188      2.490     7.09     1248.215     65.39998     159.4167        13     1.824     0.772  35.74   3
       401    119.4481     66.7335 307.8780054  +6.6421819     1170.843      2609.17     3931.093     92.85876     185.4963     371.0294      2.829     7.01     1248.131     65.39998     149.0768        17     1.553     1.001  36.01   3
       402      1.7676     65.2183 307.9270418  +6.6388886     4155.272     6796.211     8019.951      86.4468     154.7646     287.3792      1.855     5.94       1252.4     65.39998     529.7399        26     1.921     0.832 -87.46  24
       403    800.9620     59.2919 307.5945540  +6.6678595     2169.377     7306.356     8902.416     93.15308     185.4963     371.0663      2.782     8.06     1213.588     65.39998     293.6284        51     1.978     1.903 -67.78   0
       404    744.9057     60.0903 307.6178635  +6.6656765     1293.166     3758.583     5355.012     93.00603     186.1592     371.0294      3.319    10.07     1215.664     65.39998     168.6705        27     2.076     1.361  76.07   2
       405     38.9613     59.3233 307.9117594  +6.6425631     1060.208     2332.935      3445.95     92.85876     185.6438     371.0294      2.591     9.41      1250.41     65.39998     129.0623        18     2.511     0.984  52.94   2
       406     41.6084     56.6371 307.9107485  +6.6437610     1109.991     2538.448     3903.599     92.11884     185.2748     370.7342      2.654     8.47     1250.163     65.39998     153.1985        17     2.267     0.884  46.49   2
       407    738.7652     47.6669 307.6208375  +6.6706060     625.7936     1521.802     1808.745     92.85876     185.6438     371.1032      2.705     5.13     1215.355     65.39998     101.9321         5     1.029     0.722  81.37   0
       408     67.5537     41.6292 307.9004565  +6.6508250     2954.694     11203.37     14740.36     92.41552     185.6438     370.8819      3.067     8.24     1248.571     65.39998     427.0781        69     2.251     2.077  79.75   0
       409    398.1803     40.8558 307.7628509  +6.6621365     793.4001      2413.19     3938.368     92.41551     185.5701     370.8081      3.349     9.21     1230.537     65.39998     123.9032        16     2.298     1.030 -72.08   2
       410    866.1392   1017.2421 307.5352775  +6.2742446     1019.535     1904.653     1367.706     93.00603     185.5701     367.9549      1.893     6.09     1277.464     65.39998     134.7729        12     1.270     0.820 -66.21  16
       411    612.2183     32.5905 307.6740266  +6.6726468     5636.764     11942.61     13668.91     92.71125     185.2748     370.8819      2.212     7.01     1217.016     65.39998     600.5691        37     2.033     1.186  62.77   3
       412    509.2634     31.7879 307.7169137  +6.6695672     1638.294      3454.39     6185.262     92.41551     185.3487     370.8081      3.615    12.22     1220.225     65.39998      210.459        32     3.010     1.380 -39.52   2
       413    508.5251     28.4802 307.7173325  +6.6709092     1516.138     4359.555     6464.728      93.2999     185.8649     371.1032      3.216    10.39     1220.301     65.39998      179.437        25     1.893     1.589 -57.98   3
       414    235.5205     27.5157 307.8310140  +6.6622444     3019.368     5622.385     8467.618     92.85876     185.9385     371.1401      2.302     7.55      1244.88     65.39998     316.1233        23     2.123     0.965  13.98   3
       415    189.2884   1016.1503 307.8168630  +6.2522808      1232.96     3333.056      3905.99     93.00603     185.3487      371.177      2.581     7.61     1278.163     65.39998     157.2793        29     2.004     1.430  46.54  16
       416    692.4315   1013.2151 307.6076719  +6.2701701     4391.365     9933.649     12310.58      92.5635     185.2748     370.9557      2.455     5.15     1277.985     65.39998     464.1914        44     1.711     1.524  81.38  16
       417    548.7210   1012.6953 307.6674695  +6.2656300     2356.727     5817.255     6767.539     92.71125     185.8649     371.0663      2.501     6.11     1280.777     65.39998     262.4724        39     1.680     1.575   6.68   1
       418    892.0565     25.7273 307.5577578  +6.6847351     811.1363     1751.832     1978.804     92.85876     185.4963     370.9926      2.082     5.48     1210.647     65.39998      121.458         6     1.127     0.752  76.11   0
       419    407.2185   1013.4260 307.7263054  +6.2606397     2144.733     5666.863     7194.845      92.5635     185.3487     370.9188      2.650     6.61     1278.462     65.39998     263.6765        39     1.797     1.542  47.93  16
       420    596.8502     24.6172 307.6806928  +6.6754318     1218.498     3548.817     5812.782     92.41551     185.6438     370.7342      3.225    10.36     1217.182     65.39998     151.3521        27     2.322     1.289 -53.56   2
       421      3.1906     24.3973 307.9278320  +6.6557994     791.6423     1911.047      1725.02      92.2673     174.9397     312.2587      2.393     6.30     1248.176     65.39998     102.5564         8     1.347     0.827 -33.23  24
       422    931.8816   1002.5309 307.5084224  +6.2824916     5038.352      9882.66     10529.07      93.2999     185.8649     371.0663      2.022     4.64     1276.082     65.39998     540.1154        41     1.638     1.362  74.16   0
       423    691.9805   1000.8375 307.6082752  +6.2752688      1742.61     4126.878     5790.449      92.5635     185.2748     370.7711      2.908     7.43     1277.268     65.39998     216.8987        30     1.918     1.313  57.78   0
       424    217.4494   1002.9474 307.8055949  +6.2586708     808.4757     1730.699     2499.398     93.15308     185.4225     370.9926      2.493     5.18     1278.376     65.39998     109.3329         7     1.348     0.563  68.20   0
       425    338.6338    998.3824 307.7553410  +6.2645799     1058.204     2372.715     2449.698      92.5635     185.3487      370.845      2.308     8.47     1278.185     65.39998     141.8778        20     1.640     1.221  77.23   0
       426    520.8856    988.2272 307.6798714  +6.2748168     2413.686      5916.23     7105.655     93.15308     185.2748     370.8819      2.543     6.95     1279.225     65.39998     251.2439        38     1.749     1.595 -55.71   3
       427    517.9049    980.8951 307.6813580  +6.2777472     4113.675     11064.12     13852.55     93.00603     186.3062     370.9188      2.668     6.67     1278.783     65.39998     464.5782        59     2.059     1.789  65.64   3
       428    725.2073    987.8923 307.5948881  +6.2817154     4744.078     11560.16     13143.15      92.5635     185.2009     370.8081      2.386     5.61     1276.417     65.39998     565.5803        53     1.829     1.640  71.50   0
