#   1 NUMBER                 Running object number                                     
#   2 X_IMAGE                Object position along x                                    [pixel]
#   3 Y_IMAGE                Object position along y                                    [pixel]
#   4 ALPHA_J2000            Right ascension of barycenter (J2000)                      [deg]
#   5 DELTA_J2000            Declination of barycenter (J2000)                          [deg]
#   6 FLUX_APER              Flux vector within fixed circular aperture(s)              [count]
#   9 FLUXERR_APER           RMS error vector for aperture flux(es)                     [count]
#  12 FLUX_RADIUS            Fraction-of-light radii                                    [pixel]
#  13 FWHM_IMAGE             FWHM assuming a gaussian core                              [pixel]
#  14 BACKGROUND             Background at centroid position                            [count]
#  15 THRESHOLD              Detection threshold above background                       [count]
#  16 FLUX_MAX               Peak flux above background                                 [count]
#  17 ISOAREA_IMAGE          Isophotal area above Analysis threshold                    [pixel**2]
#  18 A_IMAGE                Profile RMS along major axis                               [pixel]
#  19 B_IMAGE                Profile RMS along minor axis                               [pixel]
#  20 THETA_IMAGE            Position angle (CCW/x)                                     [deg]
#  21 FLAGS                  Extraction flags                                          
         1    704.3412     16.0457 307.6452480  +6.6899384      7161.11     11237.61     11424.61     78.02477     155.9256     311.8513      1.677     4.27     816.2195     54.95247     919.2751        32     1.508     0.997 -35.26   0
         2    624.4932     15.3307 307.6784561  +6.6875540     3568.813     5572.209     5586.928     78.02477     156.0495     311.7583      1.676     4.26     816.0696     54.95247     474.3967        25     1.440     0.937 -37.17   0
         3    326.6430     14.8558 307.8022525  +6.6777351     977.4899     1369.553     1237.664     78.02477     155.9256     311.7583      1.548     3.69     828.7883     54.95247     168.1992        11     1.093     0.703 -38.95   0
         4    424.6718     11.5918 307.7616246  +6.6823822     6049.597     9582.682     10078.96     77.65234     155.4912     311.6653      1.725     4.08     819.0209     54.95247     735.1042        32     1.537     1.021 -35.79   0
         5     25.7005     11.0755 307.9274406  +6.6691455     7939.145     13282.66     13842.99     77.65234     156.0495     311.6653      1.782     4.20     830.5694     54.95247     1021.854        39     1.636     1.105 -37.85   0
         6    672.1443     10.1596 307.6588272  +6.6912883      976.658     1529.906     1428.812     78.02477     155.9876     311.7893      1.595     5.18     816.0154     54.95247     141.2244        11     1.265     0.599 -51.45   0
         7    500.4992      8.4933 307.7302170  +6.6862114      892.647      1577.08     1999.245     78.14852     156.4206     311.6963      1.828     5.46     816.5452     54.95247     132.0894        11     1.403     0.600 -36.46  16
         8    321.2417      6.4681 307.8047809  +6.6810160     12415.22     19955.15     20783.19     78.02477     155.8636     300.1029      1.746     4.25     829.2223     54.95247     1566.357        43     1.610     1.088 -34.36  16
         9    416.0691      7.1135 307.7653511  +6.6839416     767.0764     1302.376     1664.347     78.27207     156.1733     305.1164      1.795     6.31      819.375     54.95247     112.3511        11     1.244     0.899 -45.61  16
        10     94.8592      6.6569 307.8988513  +6.6733050     2443.696     4321.151     4991.789     78.27207     155.9256     301.6765      1.927     4.57      827.975     54.95247     294.9347        27     1.649     0.983 -35.22  16
        11     86.2463      5.4552 307.9024712  +6.6735104     1612.042      2661.26     3347.336     78.14852     155.9256     290.4153      1.821     4.36     828.1486     54.95247     201.1754        20     1.459     0.893 -41.95  16
        12    789.7374      5.2892 307.6101202  +6.6972425     886.5359     1461.761     1546.426     78.14852     156.0495     288.6465      1.717     4.49     813.1791     54.95247      130.107         9     1.187     0.652 -38.09  16
        13    387.5396      4.4059 307.7772989  +6.6840994     2246.266      3611.75     3709.132     77.52779     155.8016     278.3526      1.679     4.33     822.8691     54.95247     274.4611        19     1.408     0.845 -36.39  16
        14    982.7937      1.8115 307.5300026  +6.7051420     678.9932     946.6729      1122.34     73.29926     130.8561     242.1902      1.368     5.26     807.8821     54.95247     101.4022         8     1.186     0.658 -24.78  24
        15    647.5543      1.3139 307.6693450  +6.6941150     4892.522     5931.164     6147.239      67.6786     123.5637     234.2394      1.190     3.63     815.6113     54.95247     1072.303        14     1.262     0.520  -1.53  24
        16    813.1833      1.1203 307.6005165  +6.6997494     464.1552     930.3168     1142.606     64.61065     120.2342     230.9992      2.196     4.18     812.4078     54.95247     105.1679         6     1.680     0.297   4.60  24
        17     66.3570      1.1319 307.9108830  +6.6746237     370.8224     613.3879     694.3666     65.05779     120.7155     231.1664      1.985     3.95     828.4783     54.95247     97.60284         6     1.621     0.276  -7.05  24
        18    593.6282    997.0947 307.6581756  +6.2811855     1208.118     2012.333     2116.342     78.27207     155.6776     311.6653      1.827     6.17     851.8795     54.95247     173.3799        13     1.403     0.762 -29.00   0
        19    952.4552   1021.8532 307.5083360  +6.2829843     5585.268     9877.618     10000.61     78.39544     146.9277     261.9337      1.879     4.53     847.7369     54.95247     649.9433        38     1.684     1.186 -24.36  24
        20    712.2786   1019.9175 307.6081368  +6.2757423     2791.904     4686.531     6150.693     78.27207     156.1733     286.4958      2.128     8.55     851.8439     54.95247     329.1649        34     2.366     1.055 -19.75  18
        21    237.1066   1021.8287 307.8053843  +6.2589887      1221.02     1802.345     1653.154     78.27207     146.9935     262.2287      1.635     4.58      853.816     54.95247     155.5971        17     1.321     0.902 -26.33  24
        22    525.0236    995.5966 307.6867147  +6.2795010     4033.148     6763.311     7745.553     77.77668     155.6155     311.6033      1.877     4.76     852.5028     54.95247     533.1787        34     1.722     1.120 -16.39   0
        23    634.5986    994.7522 307.6412413  +6.2835273     1357.455     2117.505     2085.546     77.52779     155.5534     311.3241      1.767     5.38     851.6419     54.95247     163.0249        16     1.533     0.743 -42.97   0
        24     59.3691    994.4962 307.8801110  +6.2642824      852.805     1585.068     1060.088     78.27208     155.7396     311.8203      1.896     7.17      850.199     54.95247     124.4386        13     1.453     0.990 -37.98   0
        25    789.3574    994.3687 307.5769884  +6.2888732     571.2483     902.0632     1066.183     77.65234     155.8636     311.6033      1.957     4.51     849.3128     54.95247     97.56879         5     1.243     0.465  -6.43   0
        26    477.9454    991.9015 307.7063887  +6.2794452     2109.984     3241.994     3382.812     78.02477     155.9256     311.9752      1.627     4.25     853.1248     54.95247     263.8063        20     1.454     0.854 -32.50   0
        27    912.3511    984.2516 307.5262527  +6.2971674     38652.49     68075.34     72954.52     78.27208     155.8016     311.7273      1.900     4.27      847.094     54.95247     4320.817        84     1.782     1.387 -30.51   0
        28    219.7463    982.3450 307.8139281  +6.2747049     1770.346     2913.516     2902.649     78.39544     155.8636     311.7583      1.787     4.92      852.558     54.95247     222.1237        21     1.429     0.991 -19.86   0
        29    107.7842    981.2761 307.8604552  +6.2713731      706.239     1061.613     1256.347     77.65234     155.6776     311.6343      1.737     5.10     850.6409     54.95247     107.4395         7     1.061     0.693 -71.88   0
        30    618.4642    980.5889 307.6484184  +6.2888335     971.2408     1468.106     1500.882     77.65234     155.7396     311.6033      1.563     4.72     851.6008     54.95247      144.596        13     1.282     0.766 -36.49   0
        31    758.4941    975.9503 307.5904245  +6.2954436     6272.023     10519.55      11884.7     78.02477     155.8016     311.8823      1.878     4.13     849.6695     54.95247     791.1171        42     1.814     1.138 -45.71   0
        32    810.2815    978.0380 307.5688484  +6.2963164     2075.512      3643.41     3736.238     78.14852     155.9876     311.6963      1.863     4.87     848.3945     54.95247      296.099        25     1.624     0.936 -31.23   0
        33    545.2776    975.2684 307.6789894  +6.2885738     1046.388     1774.687     2135.607     78.27208     156.0495     311.7583      1.832     4.86     851.9536     54.95247     138.4534        11     1.201     0.784 -33.81   0
        34    192.4349    974.4966 307.8255344  +6.2770251      841.601     1687.753     1810.465     78.14852     155.8016     311.9132      2.073     7.05     851.5424     54.95247     121.7098        14     1.630     0.855 -23.20   0
        35    228.2405    974.7022 307.8106594  +6.2781464     1221.634     1993.673     2200.396     78.14852     155.8016     311.9752      1.771     5.11     852.5056     54.95247     163.1283        14     1.511     0.662 -30.24   0
        36     52.8225    972.8280 307.8835633  +6.2730072     2582.206     4398.943     4174.585     77.65234     155.7396     311.6343      1.874     5.04     849.7897     54.95247     320.6487        25     1.621     0.958 -33.76   0
        37    946.7632    970.9526 307.5124088  +6.3038092     6060.508     10769.28     11129.26     78.02477     155.9256     311.6963      1.886     4.31     845.7844     54.95247      719.277        36     1.604     1.163 -37.79   0
        38    628.7291    965.6422 307.6446592  +6.2953489     756.7321     936.4463     1115.878     78.02477     155.9256     311.8203      1.370     4.49     851.3226     54.95247     129.6606         7     0.889     0.645 -37.37   0
        39    920.5908    962.7401 307.5235535  +6.3063245     1980.776     2156.101     2331.612     77.52779     155.8016     311.4792      1.336     5.00     846.0895     54.95247     241.3359        21     1.480     0.968 -44.49   0
        40    641.1717    958.5930 307.6397296  +6.2986767     4421.463     6981.984     7526.351     77.65234     155.7396     311.5723      1.691     4.23     851.0595     54.95247     624.8081        30     1.477     1.012 -33.32   0
        41    253.2643    958.8297 307.8008051  +6.2855421      4139.37     6618.683     6495.445     77.90083     156.0495     311.6963      1.704     4.93     852.2882     54.95247     605.9623        28     1.550     0.935 -30.56   0
        42    780.0179    959.0962 307.5820532  +6.3031232      1105.99     1988.662     1970.514     78.02477     155.7396     311.5723      1.805     6.23     848.6407     54.95247     157.2164        15     1.455     0.782 -17.43   0
        43    989.9742    957.9480 307.4949005  +6.3106233     578.4843     1064.577     929.5373     77.77668     156.0495     311.6653      1.912     5.26     844.0048     54.95247     92.78369         7     1.201     0.650  23.62   0
        44    463.1408    957.0193 307.7137133  +6.2933492     1193.693     1780.253     1549.872     77.77668     155.8016     311.6033      1.622     4.94      852.423     54.95247     191.6973        17     1.471     0.897 -36.34   0
        45     21.9613    955.9526 307.8969498  +6.2789328     1879.723     3436.122     3848.143     78.02477     155.9256     311.5723      1.928     6.03     849.2985     54.95247     242.4625        22     1.562     1.137 -15.56   0
        46    873.2173    954.9500 307.5434886  +6.3079557     896.1859     1676.182     1203.709     77.65234     155.9876     311.5102      1.947     6.90     846.5487     54.95247      130.385        17     1.531     0.993 -53.78   0
        47    944.0229    952.9015 307.5141529  +6.3111704     568.1545     1216.468     962.9516     78.27207     155.6776     311.5723      2.085     4.48     845.0874     54.95247     112.1482         6     1.429     0.399 -61.37   0
        48    964.9421    952.8522 307.5054671  +6.3118903     664.7872     1049.654     920.5734     78.14852     155.9256     311.7583      1.765     4.69     844.5276     54.95247     91.88318         7     1.024     0.610  -0.92   0
        49    565.8669    951.2810 307.6712479  +6.2991685     1666.055     2691.476     2475.155     78.27207     156.1733     311.7893      1.700     4.17      851.629     54.95247     228.4364        18     1.374     0.824 -43.19   0
        50    996.6595    951.1310 307.4923530  +6.3136613     678.6874     1280.627     1505.053     78.27207     155.8636     311.7583      2.445     5.58     843.6218     54.95247     84.73566         8     1.391     0.631 -54.01   0
        51     54.9052    948.2114 307.8835325  +6.2832403     689.9783     1126.219     1431.547     77.90082     155.6155     311.5102      1.632     5.28     849.4563     54.95247     112.0427         8     1.408     0.560 -54.95   0
        52    605.3181    947.2759 307.6549999  +6.3021462     1236.107     2093.555     2105.551     78.39544     156.1733     311.8513      1.686     4.30     851.4699     54.95247      211.301        17     1.400     0.895 -55.39   0
        53    285.1592    944.9539 307.7880297  +6.2923445     1430.294      2194.64     2708.609     78.02477     155.9256     311.6033      1.690     4.80     852.4411     54.95247     208.2867        15     1.344     0.754 -39.32   0
        54    289.1122    952.1483 307.7861450  +6.2895074     899.4706     1515.959     2134.438     78.14852     155.8016     311.8513      2.103     6.00     852.5773     54.95247     128.4609        12     1.435     0.705 -31.73   0
        55    752.1480    941.3076 307.5942254  +6.3095338     911.6398      1296.96     1241.461     78.02477     155.8016     311.9752      1.603     4.68      848.728     54.95247     148.7413        11     1.320     0.582 -31.44   0
        56    889.4475    937.8664 307.5373225  +6.3155521      6310.89     10899.09     11825.65     78.14852     155.8636     311.7583      1.844     4.46     845.7283     54.95247     750.4937        38     1.611     1.153 -31.00   0
        57    425.3777    935.0367 307.7301370  +6.3011557     2212.188     3267.831     3391.871     77.77667     155.6776     311.5413      1.582     4.06     852.3138     54.95247     300.3708        18     1.338     0.820 -39.92   0
        58    326.9550    933.3149 307.7710668  +6.2985564     9087.754     14651.49     15835.32     78.14852     155.8636     311.7583      1.732     4.41     852.3641     54.95247      1213.46        38     1.622     1.024 -36.49   0
        59    247.0192    932.2750 307.8042963  +6.2962950     6933.946     11183.93     11813.12     77.77668     155.8016     311.6963      1.729     4.32     851.5832     54.95247     981.9363        32     1.597     0.956 -31.64   0
        60    165.4933    930.9927 307.8381939  +6.2940780     523.6972     689.3118     934.4449     77.77668     155.6155     311.5723      1.297     3.75     849.8464     54.95247     73.66089         6     1.186     0.341 -40.35   0
        61    575.4189    926.7992 307.6681064  +6.3095968     1189.106     1697.209     1988.075     77.77668     155.4912     311.4792      1.604     5.40     851.3607     54.95247     156.6968        15     1.453     0.740 -48.09   0
        62    759.5261    926.4242 307.5916622  +6.3159259     662.3015     708.8538     632.7707     77.77668     155.7396     311.6963      1.465     4.66     848.1442     54.95247     98.30853         6     1.266     0.486  -4.41   0
        63    905.3598    922.9933 307.5312139  +6.3222252     909.2698     1885.175     2414.172     77.52779     155.6155     311.4482      2.311     6.53     844.8799     54.95247     108.2407        14     1.490     0.802 -15.34   0
        64    861.4005    921.4750 307.5495210  +6.3213810     705.7726     1313.744     1520.603     77.40305     155.3047     311.5723      1.983     4.94       845.98     54.95247       102.34         8     1.554     0.445 -55.90   0
        65    741.5322    915.8977 307.5994890  +6.3196690     1531.526     2702.632     2903.098     78.14852     156.0495     311.7583      1.885     5.38     848.2764     54.95247     246.9243        20     1.733     0.844 -41.44   0
        66    834.9850    916.8030 307.5606483  +6.3224256      458.314     605.0273     371.1308     77.77668     155.5533     311.6033      1.658     5.01     846.4444     54.95247     68.04999         5     1.143     0.622 -88.88   0
        67    565.1914    916.5637 307.6726987  +6.3134793     612.2622     847.0389     197.4379     77.65234     155.6776     311.5413      1.761     5.79     851.1949     54.95247     77.82605         9     1.708     0.553 -33.21   0
        68    972.7195    911.8781 307.5036129  +6.3290673     1124.823     1640.086      2453.39     78.39544     156.1733     311.9132      1.635     5.05     843.0403     54.95247      152.099        15     1.231     0.853 -49.70   0
        69    605.6935    912.5110 307.6560154  +6.3165119     623.1608     1401.361     1517.516     78.14852     156.3589     311.8203      2.147     4.45     850.7739     54.95247     123.0816         7     1.229     0.457 -37.83   0
        70    526.5085    911.6014 307.6889304  +6.3142292     1105.242     1405.745     1266.235     77.40305     155.5534     311.5102      1.498     4.78     851.3168     54.95247     149.5669        12     1.300     0.680 -32.63   0
        71    660.2772    909.4064 307.6334521  +6.3196249     2429.102     4195.985     4558.844     77.77668     155.4291     311.5723      1.832     7.37     849.4254     54.95247     386.2033        21     1.604     0.948 -14.63   0
        72    950.9001    907.8738 307.5128089  +6.3299909     615.1307     1208.387     1526.597     77.65234     156.0495     311.6963      2.279     5.46     843.5016     54.95247     99.77795         7     1.161     0.846 -46.53   0
        73    820.1670    905.7855 307.5671726  +6.3264782     572.9451     1080.614     1359.983     77.77668     155.6776     311.6653      1.932     4.80     846.5179     54.95247     110.3961         6     1.260     0.725  -4.22   0
        74    200.2717    904.2726 307.8246560  +6.3062813     2238.714     3439.749     3694.405     78.39544     156.0495     311.7583      1.672     4.47     850.1144     54.95247     268.5017        19     1.449     0.833 -42.11   0
        75     74.0460    904.7377 307.8770570  +6.3018340     1813.363       2819.6     2679.522     78.02477     155.8016     311.8203      1.638     4.68     849.0091     54.95247     251.7498        18     1.508     0.743 -34.38   0
        76     56.6813    905.3640 307.8842465  +6.3009897     2975.416     4944.253     5127.323     78.14852     155.9876     311.7273      1.782     4.45     849.0091     54.95247     400.6282        25     1.564     0.951 -32.46   0
        77    339.5492    900.1582 307.7669571  +6.3126691     938.8356     1429.931     2027.377     78.14852     155.9256     311.7583      1.727     5.08     851.6249     54.95247     133.8155        10     1.163     0.627 -39.73   0
        78    234.4449    901.1140 307.8105718  +6.3087365     803.0035     1329.611     1100.128     78.14852     155.8016     311.7273      1.774     6.59       850.66     54.95247     128.7383        11     1.242     0.982  -4.07   0
        79    792.6214    898.9246 307.5788429  +6.3283883     739.7419     1235.276     1364.665     77.77667     155.7396     311.6963      1.803     5.41     846.9637     54.95247     110.0524         9     1.422     0.580 -49.78   0
        80    654.6986    898.3926 307.6361397  +6.3239850     6726.879     10667.58     11123.22     77.90083     155.5534     311.5723      1.731     4.29     849.1364     54.95247     813.1471        34     1.507     1.069 -31.93   0
        81     14.6450    896.6040 307.9019992  +6.3031877     1148.878     1992.796     2092.295     77.52779     155.6155     311.4482      1.798     5.78     848.9513     54.95247     147.7318        15     1.487     0.747 -44.68   0
        82    892.5032    894.8093 307.5375002  +6.3334314     2638.275     4253.072     4851.455     77.90083     155.5533     311.5723      1.766     4.39     844.6157     54.95247     307.1501        24     1.496     0.943 -40.82   0
        83    444.5622    895.7864 307.7234949  +6.3180054     588.7978     685.0662     525.6716     77.77668     155.7396     311.4792      1.350     3.46     851.2965     54.95247     86.24506         5     0.733     0.473  74.40   0
        84     27.7235    895.5837 307.8966029  +6.3040503     1154.266     1901.531     1596.686     77.65234     155.6776     311.6343      1.727     5.61     848.9441     54.95247     144.8397        12     1.281     0.693 -46.59   0
        85    337.6065    891.5100 307.7680560  +6.3161742     15976.12     25329.71     27405.82     77.65234     155.6155     311.5413      1.731     4.29     851.4523     54.95247     2067.226        48     1.627     1.145 -29.79   0
        86     72.1086    892.6458 307.8782711  +6.3067608      1273.59      2233.89     2351.757     78.14852     155.8636     311.8823      1.808     4.37     848.9224     54.95247     188.1207        13     1.300     0.841 -34.96   0
        87    208.6213    890.7935 307.8216446  +6.3121275     1169.278     1868.487     2392.852     77.77668     155.7396     311.5723      1.932     5.42     850.0018     54.95247     146.9857        17     1.379     0.891 -34.11   0
        88    388.6362    890.9806 307.7468822  +6.3181093     635.3669     861.4865     910.7448     77.65234     155.7396     311.5413      1.704     4.39     851.2839     54.95247     113.6755         7     1.133     0.484 -42.58   0
        89    101.0684    882.3900 307.8665925  +6.3119717     1667.321     2647.027     3073.258     77.65234     155.7396     311.6033      1.729     4.00     848.8721     54.95247     227.3998        17     1.326     0.870 -41.77   0
        90    415.4469    882.4850 307.7360350  +6.3225183     1039.478      1598.32     1801.147     78.14852     155.8636     311.7583      1.631     5.07     851.0386     54.95247     152.3716        13     1.365     0.756 -47.77   0
        91    495.7378    879.4199 307.7027945  +6.3264822     687.9816     1159.176     1487.404     77.77668     155.9256     311.6653      1.763     6.89     850.8451     54.95247     86.18976         8     1.510     0.880 -48.30   0
        92    668.9899    878.4926 307.6308748  +6.3326803     910.4291       1384.6     1583.341     77.77668     155.5533     311.5723      1.981     5.39     848.0801     54.95247     144.5956        10     1.237     0.664 -49.36   0
        93    882.6711    876.3469 307.5422040  +6.3407249     1794.075     2969.282     2959.865     78.02477     155.8636     311.6963      1.764     4.94     844.3612     54.95247     232.6971        18     1.393     0.850 -30.76   0
        94    853.4658    876.0314 307.5543438  +6.3398776     1892.662     2974.336     3233.598     77.90082     155.9876     311.6963      1.722     4.49     844.9362     54.95247     279.9359        18     1.471     0.836 -30.74   0
        95    816.8771    875.6287 307.5695529  +6.3388188     2745.659     4546.271     4345.064     78.02477     155.9876     311.7893      1.762     4.51     845.8914     54.95247     327.3945        26     1.486     1.049 -33.11   0
        96     83.6109    875.6265 307.8740711  +6.3141752     2320.585     5074.165      5065.19     77.77668     155.7396     311.6343      2.132     7.82     848.7996     54.95247     999.5182        21     1.818     0.941   0.20   0
        97    552.7908    866.7865 307.6795267  +6.3336141     325282.1     512560.9       540586     77.90082     155.6776     311.6653      1.706     4.21     850.5461     54.95247     43210.52       185     1.786     1.343 -35.44   0
        98    447.1410    873.0219 307.7231923  +6.3274907     399.9269     534.6783     1238.151     77.77668     155.8636     311.6033      1.435     4.36     850.7592     54.95247     80.77692         5     1.095     0.494 -51.24   0
        99    640.7536    869.9063 307.6428906  +6.3352782     1105.102     2096.856      2659.46     78.02477     155.8636     311.8823      2.036     6.10     848.4284     54.95247     141.0795        17     1.571     0.840 -46.21   0
       100    397.0064    869.4263 307.7441341  +6.3272897     7384.095     11881.06      12665.6     77.65234     155.8016     311.5723      1.705     4.31     850.6844     54.95247      1060.86        36     1.587     1.019 -32.77   0
       101    340.2722    867.7557 307.7677516  +6.3260710     12233.18     19498.29      20910.9     78.02477     155.9876     311.7893      1.726     4.35     850.8589     54.95247     1652.742        49     1.625     1.123 -32.25   0
       102    658.5719    864.1458 307.6356846  +6.3382542     3644.775     5590.798       6103.5     77.90083     155.9876     311.6653      1.685     5.11     847.8079     54.95247     489.1288        24     1.480     0.903 -39.45   0
       103    890.8900    863.0007 307.5392390  +6.3465102     4766.099     8083.738      9068.17     77.40305     155.4291     311.4792      1.866     4.94     843.9733     54.95247     654.0202        37     1.839     1.103 -18.83   0
       104    730.3135    860.9716 307.6059966  +6.3419702      827.744     1383.084     1337.486     78.27207     155.6155     311.6343      1.676     4.88     847.2859     54.95247     121.0937         9     1.314     0.623 -47.41   0
       105   1023.1698    857.7566 307.4844769  +6.3530990     2686.359     3480.759     3836.034     73.43098     131.2248     242.5092      1.342     3.49     839.5667     54.95247     425.3684        16     1.109     0.848 -74.18  24
       106    822.0810    857.2971 307.5680081  +6.3465616     1620.309     2616.535     2898.627     78.02477     156.2352     311.7893      1.725     4.38     845.3168     54.95247     222.9988        21     1.436     0.961 -47.01   0
       107    633.5341    858.0994 307.6462866  +6.3399106       3384.3     5353.909     6009.439     78.14852     156.0495     311.7273      1.748     4.25      848.232     54.95247     505.7465        24     1.503     0.878 -32.55   0
       108    623.9461    857.0355 307.6503044  +6.3400282     821.4966     1412.773     2039.838     78.02477     155.9256     311.7893      2.168     5.40     848.4348     54.95247     115.2945        10     1.271     0.648 -29.67   3
       109    626.3066    852.6923 307.6494704  +6.3419006      2166.54      3566.39      4268.55     78.14852     156.4206     311.7583      1.817     4.35     848.2899     54.95247     341.2618        21     1.635     0.859 -40.29   2
       110    176.3518    858.2576 307.8361462  +6.3244727     583.6497      807.028     736.0498     78.14852     155.9256     311.8823      1.496     5.27     849.2135     54.95247     82.75513         8     1.401     0.560 -28.31   0
       111    949.2087    856.0446 307.5152520  +6.3513332     687.0168       947.97      1109.37     77.65234     155.8016     311.4792      1.594     3.77     842.4982     54.95247     112.2786         5     0.832     0.490 -46.11   0
       112    909.9410    850.8088 307.5317364  +6.3521814      2852.83     4763.946     4845.954     77.52779     155.8636     311.4792      1.822     4.58     843.4497     54.95247     350.8446        24     1.559     0.917 -34.19   0
       113    319.7720    851.6895 307.7768080  +6.3320143      1040.27     1633.687     1588.893     78.27208     155.6776     311.6653      1.751     5.73     850.6547     54.95247     142.5745        13     1.317     0.702 -26.76   0
       114    368.1987    846.5745 307.7568695  +6.3357553     2571.225      4363.39     4641.479     77.77668     155.6155     311.5413      1.806     4.58     849.8679     54.95247     364.2527        25     1.493     0.996 -31.87   0
       115    504.4392    836.4700 307.7006297  +6.3445068     3120.989     4777.417      4587.19     78.02477     155.9256     311.8203      1.686     4.14     849.0834     54.95247     457.1443        24     1.509     0.905 -45.30   0
       116    848.8682    835.6581 307.5576105  +6.3563926      929.519     1440.217     1960.878     78.27207     155.8636     311.7583      1.691     4.68     844.2993     54.95247     137.0483        11     1.173     0.781 -40.20   0
       117    569.5321    834.2380 307.6736713  +6.3476143     806.0294     1300.215     1571.459     78.02477     155.9256     311.8513      1.643     4.88     848.4592     54.95247     132.1145         9     1.418     0.475 -35.41   0
       118    551.1698    832.6257 307.6813518  +6.3476634     5749.232     9285.761     9949.366     77.65234     155.7396     311.6033      1.744     4.69     848.5231     54.95247     856.2236        30     1.555     0.978 -32.48   0
       119    557.9799    832.2959 307.6785346  +6.3480282     1296.695      2046.93     2190.621     78.02477     155.7396     311.5723      1.678     5.47     848.4214     54.95247     187.5443        12     1.217     0.725 -51.68   0
       120    263.0597    832.7208 307.8010015  +6.3379365     755.7507      938.121     880.2203     78.27207     155.9256     311.6963      1.364     4.58     850.0764     54.95247     104.2099         9     1.109     0.620 -25.54   0
       121    887.0789    830.5468 307.5419125  +6.3597819     1375.538     2124.985     2085.493     78.14852     155.9256     311.7583      1.575     4.76     843.4485     54.95247     213.6335        16     1.407     0.794 -52.11   0
       122    469.2320    831.3282 307.7154250  +6.3454467     1585.344     2365.156     1903.283     78.02477     155.9256     311.7273      1.576     4.15     849.0365     54.95247     234.8079        18     1.411     0.875 -42.88   0
       123    110.5881    830.8557 307.8643845  +6.3335686     1210.229      2243.39     2061.367     77.52779     155.8636     311.4482      1.861     6.17     848.2988     54.95247     201.7003        16     1.676     0.639 -38.19   0
       124    686.9107    829.4193 307.6250847  +6.3535420     619.2946     889.8098     723.8649     77.90082     155.6776     311.6653      1.477     5.72      846.619     54.95247     97.46204         8     1.272     0.724 -45.37   0
       125    521.9421    826.4799 307.6936976  +6.3492192     19418.88     30455.91     31785.47     78.14852     155.9256     311.7273      1.705     4.33     848.3445     54.95247      2625.04        51     1.653     1.078 -34.98   0
       126    363.0586    827.9306 307.7596340  +6.3432797     714.9355     1220.045     1135.284     78.27207     155.9256     311.7583      1.454     4.81     849.1436     54.95247     95.26343         8     1.431     0.459 -37.18   0
       127    935.5186    824.8220 307.5219865  +6.3637662     3601.762     5986.003     5724.257     77.90083     155.6155     311.6963      1.758     4.69     842.0803     54.95247     444.5743        30     1.559     1.040 -31.98   0
       128     55.2991    822.8444 307.8876165  +6.3350110     649.6441     814.0515     855.4808     78.14852     155.8636     311.9752      1.513     3.68     847.5146     54.95247     123.7076         5     0.847     0.460 -38.23   0
       129    408.7916    821.7703 307.7408490  +6.3473612     566.5329     624.4105     802.7761     77.65234     155.7396     311.5413      1.320     3.34      848.671     54.95247     109.9951         5     0.923     0.350 -46.51   0
       130    689.2808    819.1797 307.6244451  +6.3578490     575.5913      1053.11     1296.493     77.90083     155.6155     311.6963      2.112     3.74     846.3755     54.95247     85.10144         5     1.223     0.329  -9.68   0
       131     32.4830    816.8256 307.8972956  +6.3367260     1624.856      2315.75     2267.924     78.02477     155.6776     311.7273      1.567     5.33     847.0454     54.95247     238.0378        14     1.328     0.752 -34.96   0
       132    314.5969    815.2072 307.7801902  +6.3469021     3228.423     5065.543     5015.171     77.52779     155.6155     311.6033      1.641     4.31     849.4497     54.95247     465.3484        25     1.460     0.944 -28.69   0
       133    780.0634    811.1046 307.5870127  +6.3642257     52449.88     84577.05      89298.2     78.02477     156.0495     311.7893      1.704     4.36     845.0598     54.95247     6838.721        74     1.694     1.166 -32.42   0
       134     14.2916    813.2664 307.9049708  +6.3375814     2101.458     3146.347     3433.551     78.14852     156.1115     311.7583      1.678     3.84     846.6541     54.95247     282.3777        21     1.406     0.861 -36.24   0
       135    718.9791    812.5003 307.6123356  +6.3616024     612.5944     836.9377     884.0849     78.14852     155.6776     311.5413      1.708     3.76     846.1655     54.95247     89.75085         6     1.215     0.335 -50.53   0
       136    237.2909    808.9013 307.8125088  +6.3469027     4984.222     8345.147     10522.48     78.14852     156.3589     311.7273      1.932     3.97     849.3059     54.95247     686.1886        37     1.642     1.125 -35.99   0
       137    423.6141    809.6324 307.7351029  +6.3528708     921.4792      1386.97     1062.212     77.77668     155.6776     311.6653      1.624     3.70      848.086     54.95247     171.7413         9     1.147     0.617 -36.27   0
       138    905.3096    806.3843 307.5351527  +6.3703679     7946.199     13171.82     13740.44     77.90083     155.7396     311.6033      1.784     4.38     842.4807     54.95247     1061.979        40     1.604     1.092 -33.37   0
       139    708.3359    805.7114 307.6169845  +6.3640485     20675.43     33459.18     35879.23     78.02477     156.1733     311.7893      1.746     4.65     846.0228     54.95247     2804.937        55     1.716     1.116 -32.94   3
       140    702.0054    802.1784 307.6197328  +6.3652949     83748.48     134887.3     142252.5     77.77668     155.6776     311.5723      1.715     4.43     845.9405     54.95247     10775.22        87     1.723     1.172 -34.86   3
       141    346.9200    803.0082 307.7671785  +6.3530262     19830.38     31827.41     33852.64     77.77668     155.5533     311.6033      1.687     4.23     848.3745     54.95247     2650.251        53     1.632     1.119 -32.51   0
       142    396.0405    803.3005 307.7467683  +6.3545578     1451.778     2470.394     2718.257     78.14852     155.8016     311.9752      1.807     5.25     847.9274     54.95247     209.6791        16     1.470     0.740 -39.09   0
       143    408.7590    800.8442 307.7415691  +6.3559996     21210.44     33948.05     35930.03     77.90083     155.9256     311.6343      1.719     4.20     847.7408     54.95247     2810.065        56     1.671     1.106 -30.70   0
       144    236.8013    787.2978 307.8134428  +6.3558053     752121.1      1771353      1984271     77.65234     155.6776     311.4171      2.333     6.10     848.6896     54.95247     62809.68       611     2.525     2.098 -41.88   4
       145    875.5605    798.6494 307.5477684  +6.3725659     584.7216     966.0986     1136.128     78.14852     155.9256     311.6963      1.827     4.83     843.1871     54.95247     90.08118         6     1.365     0.484 -48.65   0
       146    642.7277    796.7827 307.6445341  +6.3655346     6228.352     9657.612     10171.69     77.65234     155.8636     311.6653      1.699     4.37     846.4526     54.95247     868.0414        32     1.573     0.944 -33.60   0
       147    431.4322    794.6779 307.7323608  +6.3593077     1713.206     2718.697     2850.012     78.02477     155.9256     311.7273      1.711     5.07     847.4927     54.95247     225.9856        16     1.271     0.860 -39.89   0
       148    157.0517    793.9427 307.8463383  +6.3503747     742.2836     1215.369     882.5224     78.14852     155.9256     311.7583      1.674     6.10     848.3428     54.95247     116.7278        11     1.123     0.930 -18.06   0
       149    595.5201    788.5987 307.6644165  +6.3673294     998.8378      1407.88     1559.266     77.40305     155.3669     311.5413      1.643     5.44      846.619     54.95247     150.2917        12     1.287     0.786 -23.46   0
       150    677.8799    786.7819 307.6302713  +6.3708426     2420.946     3934.138     4279.731     77.77668     155.6155     311.6653      1.781     4.22     845.4041     54.95247     342.4891        24     1.496     1.001 -31.18   0
       151    411.6777    783.5187 307.7409420  +6.3632507     52496.26     82213.64     87086.64     78.39544     156.1733     311.8823      1.724     4.46     847.1803     54.95247     6525.523        78     1.716     1.152 -32.81   0
       152    147.2261    787.5475 307.8506354  +6.3526837     966.3813     1342.474     576.6581     77.77668     156.0495     311.6653      1.572     5.96     847.9747     54.95247     137.9243        13     1.377     0.754 -33.62   0
       153    122.2049    787.5243 307.8610275  +6.3518497     931.6437     1595.082     1776.359     77.77668     155.4291     311.6343      1.879     4.54     847.6394     54.95247     175.6362        10     1.286     0.683 -38.16   0
       154    902.2348    797.7552 307.5367197  +6.3738277     6349.379     10466.44     10973.69     77.90083     155.8636     311.6343      1.746     4.61     842.3722     54.95247     825.9031        33     1.608     1.000 -36.06   0
       155     64.1061    784.8355 307.8852469  +6.3510001     573.8694     1044.645     1675.744     78.27207     155.8016     311.8513      1.975     5.01     846.8176     54.95247     85.11218         6     1.242     0.572 -38.64   0
       156    529.4760    782.5427 307.6920506  +6.3676123     7234.379     11167.62     11672.56     78.14852     155.8636     311.6963      1.691     4.57     846.1188     54.95247     976.0786        31     1.557     0.934 -35.60   0
       157    446.3145    781.0745 307.7266391  +6.3654243     4256.851     6899.849     7756.926     78.27207     156.2352     311.7893      1.736     4.50     847.0588     54.95247     571.1306        31     1.677     0.915 -34.59   0
       158    774.6140    779.2443 307.5903479  +6.3771972     11181.96     18110.82     18885.07     77.52779     155.7396     311.5102      1.739     4.27     844.2336     54.95247     1448.093        43     1.598     1.088 -33.78   0
       159    668.7104    778.6441 307.6343537  +6.3738950     600.1937     833.1157     600.8394     78.14852     155.8016     311.7893      1.737     5.64     845.1674     54.95247     82.35071         8     1.356     0.662 -37.42   0
       160    442.8795    774.4247 307.7282902  +6.3680543     2361.808     3517.805     3342.732     77.90083     155.7396     311.7583      1.625     4.31     846.8418     54.95247     296.1566        20     1.375     0.883 -41.65   0
       161      3.9500    775.2991 307.9105527  +6.3529069     1162.919     1585.062     1708.167     78.14852     153.5526     272.9185      1.489     5.01      846.094     54.95247     170.1376        13     1.328     0.736 -24.00  16
       162    796.4499    773.4376 307.5814739  +6.3803262     1089.593     1737.046      1556.77     77.90083     155.8016     311.6033      1.787     4.57      843.686     54.95247     157.3646        15     1.251     0.877 -40.47   0
       163    140.4928    771.4885 307.8539755  +6.3590867     2932.272     5054.917     5776.398     78.14852     156.3589     311.8513      1.903     4.53     847.2937     54.95247     374.0828        28     1.637     0.996 -34.12   0
       164    132.3882    771.0284 307.8573569  +6.3590034     10971.41     17709.05      19473.2     77.65234     155.7396     311.6653      1.738     4.17     847.2222     54.95247     1528.512        45     1.655     1.088 -32.11   0
       165    920.1667    767.8605 307.5302763  +6.3867704     5863.186     9850.323     10961.81     77.90082     155.9876     311.6963      1.810     4.88      841.032     54.95247     822.6826        37     1.615     1.071 -32.89   0
       166    969.2379    767.7906 307.5098970  +6.3884405     1312.292     2243.283     2504.065     77.40305     155.7396     311.4792      1.867     4.70     839.6015     54.95247     172.3271        17     1.334     0.901 -47.86   0
       167    124.6178    768.3735 307.8606739  +6.3598375     2812.093     4546.004     5415.873     77.77668     155.7396     311.6653      1.834     4.44     847.0678     54.95247     359.5339        22     1.487     0.865 -31.27   0
       168    946.0012    799.8909 307.5184701  +6.3744101     1787.842     3156.988     3053.744     77.40305     155.4912     311.5413      1.869     5.16     840.9227     54.95247      231.692        21     1.507     0.987 -45.32   0
       169    675.8129    765.3128 307.6318528  +6.3796372     1652.005     2655.836     3623.856     77.77668     155.7396     311.6653      1.819     5.10     844.5201     54.95247     225.1889        16     1.322     0.815 -38.75   0
       170    562.4728    764.5710 307.6789521  +6.3761402     2205.604     3463.267     3554.359     78.02477     155.9256     311.7273      1.713     4.90     845.3002     54.95247      271.929        19     1.465     0.817 -36.09   0
       171    410.8047    763.9231 307.7419663  +6.3713116     988.3423     1684.882     2273.411     77.77668     155.4291     311.6033      1.724     5.31     846.5516     54.95247     154.2932        13     1.386     0.697 -42.73   0
       172    124.5612    761.9963 307.8609134  +6.3624684     1836.251      3060.08     3076.387      77.2781     155.6776     311.5413      1.699     4.64     846.8842     54.95247     236.5042        19     1.453     0.858 -29.29   0
       173    943.8237    759.3498 307.5207363  +6.3910756     2853.057     4684.898     5145.802     77.77668     155.9876     311.6653      1.759     4.02     840.1503     54.95247     358.8207        25     1.483     0.994 -32.66   0
       174    914.4977    759.6679 307.5329062  +6.3899632     2906.706     4544.861     5080.804     78.14852     156.0495     311.7583      1.682     4.45     840.9849     54.95247      356.055        22     1.429     0.901 -24.53   0
       175    974.7612    759.1127 307.5078943  +6.3922081     1743.568     2771.374      3032.63     78.14852     155.8636     311.7583      1.682     4.48     839.3326     54.95247      213.736        19     1.368     0.926 -35.95   0
       176    666.9023    758.8662 307.6357709  +6.3819999         1432     2134.026     2165.816     78.14852     155.9876     311.7893      1.520     5.57     844.3818     54.95247     205.7509        13     1.209     0.733 -40.74   0
       177    814.3140    757.2201 307.5745997  +6.3876202     873.1138     1279.739     881.4558     77.90083     155.6776     311.6963      1.433     5.48     843.0136     54.95247     137.5662        11     1.268     0.669 -35.70   0
       178    889.2363    755.0814 307.5435527  +6.3910115      724.092       1136.1     1596.769     78.14852     155.9876     311.7273      1.926     5.04     841.5295     54.95247     102.9241         9     1.306     0.550 -18.66   0
       179    239.4907    754.0289 307.8134512  +6.3696310     1723.808     3026.297     3830.165     78.27207     155.6776     311.6653      1.908     4.67     847.4672     54.95247     246.0432        19     1.443     0.846 -35.18   0
       180    154.3140    749.4143 307.8489827  +6.3686660     892.0114     1292.674     1454.307     77.77668     155.6776     311.6343      1.681     5.56      846.578     54.95247     132.6609        10     1.391     0.627 -37.43   0
       181    958.8087    747.2772 307.5149177  +6.3965612     2172.753     3737.743     3915.713     77.77668     155.4291     311.6033      1.794     4.90     839.5663     54.95247     268.3262        24     1.622     0.972 -27.66   0
       182    906.1507    747.9919 307.5367655  +6.3945046     1018.211     1518.606     1611.473     77.65234     155.7396     311.4482      1.532     6.06     840.8747     54.95247     151.5582        13     1.403     0.837 -51.93   0
       183    931.9275    749.2811 307.5260157  +6.3948347      815.749     1410.569     1397.994     78.39543     156.2352     311.7893      1.772     5.30     840.2178     54.95247     115.2266        11     1.408     0.564 -34.19   0
       184    678.4868    746.6176 307.6313719  +6.3874455     965.4039     1940.537     2483.484     77.90083     155.6776     311.6343      2.292     7.18     843.7884     54.95247     124.0984        14     1.417     1.018   2.73   0
       185   1000.6954    740.4062 307.4977505  +6.4007985     1541.443     2385.569     2160.713     77.90083     155.6155     311.5723      1.713     5.28     838.6206     54.95247     188.2902        18     1.485     0.783 -36.45   0
       186    469.9141    741.3517 307.7181783  +6.3826174     555.2819     876.9611     831.4925     78.14852     155.8636     311.7893      1.575     4.11      845.819     54.95247     102.1774         6     1.184     0.408 -31.75   0
       187    398.7229    741.5550 307.7477396  +6.3801402     489.5706     652.6892     784.0537     78.02477     155.9876     311.7583      1.672     3.42     845.8609     54.95247     94.94092         5     1.096     0.308 -21.76   0
       188    801.9359    739.0149 307.5803533  +6.3947220     1140.233     1900.999     1964.377     77.65234     155.8016     311.6343      1.803     6.55     842.7549     54.95247     153.0162        17     1.503     0.842 -31.13   0
       189    627.2931    739.7771 307.6528654  +6.3885524     759.7967     1153.845     1481.075     78.14852     155.7396     311.6033      1.706     4.55     844.1476     54.95247      127.291         8     1.024     0.629 -39.37   0
       190    888.2594    736.0604 307.5445977  +6.3988320     1373.087     2554.885     2624.594     78.14852     155.9256     311.7893      1.935     5.84     841.0213     54.95247     191.7321        18     1.661     0.903 -51.79   0
       191    862.2427    731.5447 307.5555558  +6.3998256     949.0175     1542.384     1799.203     78.02477     155.9256     311.7583      1.799     5.62     841.6033     54.95247     118.5168        11     1.483     0.600 -34.72   0
       192    844.9610    727.6518 307.5628648  +6.4008543     1357.475     2079.926     1947.994     77.90082     155.9256     311.7273      1.613     5.72     841.7939     54.95247     209.5413        14     1.360     0.921 -19.21   0
       193     44.1418    726.3376 307.8955206  +6.3744771     2439.366     3953.316     4227.496     78.27207     155.8636     311.7893      1.770     4.47      845.956     54.95247     404.6814        21     1.471     0.909 -35.31   0
       194    562.7512    720.5493 307.6803209  +6.3943245      516.649     737.6144     716.0068     78.14852     155.8016     311.6963      1.362     3.85     843.9523     54.95247     116.3412         5     1.317     0.323 -46.07   0
       195    656.7957    715.0569 307.6414444  +6.3997483     5998.429      9509.86     9845.548     77.52779     155.8016     311.4792      1.686     4.34     843.2038     54.95247     776.4299        27     1.544     0.909 -31.08   0
       196    603.2849    714.4398 307.6636912  +6.3982076     1459.789     2068.896     2114.575     78.14852     155.8636     311.7273      1.610     4.41     843.8155     54.95247     221.4341        16     1.316     0.877 -29.02   0
       197    525.1180    714.8304 307.6961447  +6.3954218     583.8135     983.7373     1129.723     78.02477     155.7396     311.7273      1.697     5.86     844.2077     54.95247      81.3031        10     1.470     0.658 -22.34   0
       198    514.6110    714.6233 307.7005157  +6.3951544     738.7546     1190.793     1511.122     77.77668     155.7396     311.6343      2.004     5.84     844.3913     54.95247     94.64423        10     1.441     0.667 -52.17   0
       199    119.7682    710.8340 307.8646367  +6.3834291     3544.621     5800.102      6287.75     77.65234     155.6776     311.5102      1.707     4.30     845.5181     54.95247     485.6117        28     1.505     0.981 -31.19   0
       200    993.9252    710.2784 307.5015741  +6.4130111     2294.067     3583.238     3705.367     78.39543     156.1733     311.8203      1.722     4.53     838.3031     54.95247     276.3707        23     1.493     0.942 -31.74   0
       201    630.5880    710.6074 307.6524799  +6.4007061     2091.885     3173.106     3419.744     77.77668     155.7396     311.6653      1.677     4.29     843.4704     54.95247     285.3833        19     1.483     0.762 -34.13   0
       202    306.4990    710.7266 307.7870851  +6.3897650     677.6541     1116.789     1142.761     77.77668     156.0495     311.7273      1.912     5.26     845.3404     54.95247     96.40015        10     1.192     0.655 -35.79   0
       203    242.1594    710.5051 307.8138152  +6.3876899     752.2455     1286.485     1065.259     78.14852     155.8636     311.8513      1.664     5.59     845.6064     54.95247     119.7991         8     1.538     0.589 -21.47   0
       204    903.6053    707.0354 307.5391991  +6.4113291     3312.479      5565.64     5825.128      77.2781     155.6776     311.5413      1.783     4.80     840.0853     54.95247     485.8469        30     1.709     0.986 -45.83   0
       205    455.3844    709.3676 307.7252927  +6.3953341     381.6292     544.0785     285.7729     77.77668     155.6776     311.6653      1.547     4.99     844.8303     54.95247     66.77582         5     1.342     0.526 -46.16   0
       206    773.6553    707.1589 307.5931717  +6.4069269     19547.11     30730.62     32239.38     78.02477     155.9256     311.7893      1.705     4.51     842.2296     54.95247      2435.93        48     1.637     1.049 -33.56   0
       207    501.4753    706.8290 307.7062346  +6.3979310     980.6944     1339.761     1379.967     78.02477     155.9876     311.7583      1.423     4.70      844.431     54.95247     149.5082        10     1.136     0.730 -33.14   0
       208    472.8306    707.5240 307.7181087  +6.3966816     1242.232      1694.32     1548.773     78.02477     155.9876     311.7583      1.567     4.57     844.7994     54.95247     174.5278        11     1.117     0.650 -38.85   0
       209    275.1507    706.8315 307.8002370  +6.3903177     561.9871     739.9229      199.279     77.90082     155.9256     311.6963      1.505     5.01     845.4006     54.95247     83.50201         6     1.229     0.578 -38.03   0
       210    545.1788    706.1182 307.6881063  +6.3996925       466.28     737.7618     900.4964     77.90082     155.6155     311.6963      2.290     4.39     843.6696     54.95247     86.59662         5     0.777     0.706 -86.91   0
       211    247.0688    700.7801 307.8121051  +6.3918703      5999.35     9851.745     10114.08     77.77668     155.8016     311.6653      1.715     4.36     845.1315     54.95247     883.6299        33     1.616     0.968 -34.19   0
       212    654.2304    700.0685 307.6430149  +6.4058504     6878.277     10900.28     11983.25     78.02477     155.9256     311.7273      1.699     4.37     842.9662     54.95247     901.4195        31     1.567     0.970 -27.34   0
       213    636.9672    701.1313 307.6501495  +6.4048324     803.8826     1534.733     1797.422     78.02477     155.9256     311.7893      2.196     7.05     843.2059     54.95247     131.8803        13     1.667     0.836 -25.05   0
       214    914.1632    692.6069 307.5352986  +6.4176395     1102.394     1702.167     1353.716     77.40305     155.6776     311.5413      1.556     4.98     839.5508     54.95247     177.3127        13     1.318     0.682 -27.38   0
       215    725.9163    688.5231 307.6136281  +6.4130211     3579.248     6016.992     6226.196     78.27207     156.2352     311.8513      1.811     4.44     842.4857     54.95247     510.6583        29     1.535     1.058 -37.88   0
       216    681.1583    688.7999 307.6322097  +6.4114060     1078.489     1689.649     1726.018     77.40305     155.5533     311.3551      1.686     5.43      842.513     54.95247     156.1887        12     1.369     0.607 -28.61   0
       217    992.1640    684.9814 307.5031551  +6.4233966     8198.199     13861.16     15038.28     77.65234     155.7396     311.5413      1.805     4.35      837.924     54.95247     983.4734        42     1.619     1.128 -30.54   0
       218    930.7203    685.6766 307.5286541  +6.4210548     2184.803     3524.914     3656.815     78.39544     156.1733     311.8823      1.777     4.56     838.9575     54.95247     286.0567        23     1.520     0.922 -31.60   0
       219    733.4881    685.7522 307.6105763  +6.4144189     682.1709      1085.68     1796.903     78.14852     155.8016     311.8203      1.786     5.03     842.4334     54.95247     87.19946         7     1.030     0.694 -46.55   0
       220     11.2378    684.7070 307.9105976  +6.3905536      1816.34      3022.78     3604.103     78.27208     155.8636     311.8203      1.799     4.56     845.1592     54.95247      239.058        20     1.464     0.853 -27.58   0
       221    544.8010    683.4892 307.6890264  +6.4090225     525.0201     769.9977     983.4865     77.40305     155.4291     311.5102      1.513     3.38     843.2328     54.95247     109.8497         5     1.115     0.296 -22.00   0
       222     69.5700    679.7277 307.8865393  +6.3945780     24739.32     39478.58      41461.7     78.02477     155.9256     311.7273      1.735     4.37     844.9968     54.95247     3074.335        56     1.668     1.123 -31.69   0
       223    530.9928    680.6638 307.6948571  +6.4097252     2021.708     3256.726     3737.564     77.65234     155.6155     311.6033      1.703     5.40     843.3635     54.95247      279.471        17     1.396     0.788 -29.52   0
       224    268.6293    680.5627 307.8038340  +6.4009433     400.3533     585.3939     886.2003     77.77668     155.6776     311.6343      2.203     4.80      844.165     54.95247     86.88696         5     1.284     0.508 -45.38   0
       225    499.7541    678.0665 307.7079200  +6.4097481     1404.225     2065.444     2320.122     78.14852     155.8636     311.7893      1.524     3.53     843.6547     54.95247     225.1565        15     1.179     0.821 -36.45   0
       226    920.5699    676.9443 307.5331637  +6.4243205     1029.097     1635.622     1002.532     78.02477     155.9876     311.6963      1.717     6.12     839.0506     54.95247     130.9999        12     1.379     0.764 -50.61   0
       227    539.6921    674.6304 307.6914473  +6.4125084     1008.706     1798.015     2063.106     78.27208     155.6776     311.7273      2.012     4.85     843.1356     54.95247     175.2888        13     1.394     0.772 -25.63   0
       228    715.6549    672.0740 307.6184442  +6.4194683     3345.357     5203.027     5679.179     78.02477     155.8016     311.6653      1.696     4.05      842.201     54.95247     421.7622        26     1.477     0.967 -29.24   0
       229    737.6255    670.3576 307.6093760  +6.4209135      4041.38     6284.962     6626.622     77.77668     155.8636     311.5723      1.721     4.63     842.1287     54.95247     519.9662        24     1.431     0.920 -32.95   0
       230    569.0000    668.2040 307.6794906  +6.4161458     3244.502     5278.018     5763.541     77.40305     155.4291     311.4792      1.744     4.58     842.8795     54.95247     423.0782        24     1.436     0.962 -30.93   0
       231    405.3013    668.5852 307.7474719  +6.4104876     1319.574     2192.424     2376.624     78.14852     155.6776     311.5102      1.682     6.19     843.4528     54.95247     183.0933        15     1.531     0.720 -34.36   0
       232   1010.5267    666.5490 307.4961465  +6.4316208     4640.958     7649.851       7746.5     78.14852     155.9876     311.7893      1.778     4.38     837.0799     54.95247     590.5791        31     1.578     1.026 -35.52   0
       233    313.2138    667.0342 307.7857733  +6.4080296     1416.545     2113.388     2111.262     77.77668     155.6776     311.6343      1.564     4.35     843.4072     54.95247     206.1286        14     1.351     0.702 -37.22   0
       234    229.6542    667.6036 307.8204605  +6.4049807     1730.029     2547.921     2642.946     77.52779     155.6776     311.4171      1.633     5.43     843.7539     54.95247     232.9372        15     1.394     0.725 -33.69   0
       235    975.9370    665.4062 307.5105529  +6.4309362     7540.489     12410.05     12513.21     77.52779     155.6776     311.5413      1.740     4.32      837.605     54.95247     975.0501        37     1.586     1.064 -35.32   0
       236    695.4133    664.3348 307.6271126  +6.4219849     873.2263     1355.664      1705.71     77.65234     155.7396     311.6653      1.949     5.37     842.0193     54.95247     127.7166        11     1.383     0.588 -31.79   0
       237     86.7421    661.9588 307.8800092  +6.4024932     629.4795     837.3192     1144.734     78.14852     155.9256     311.8203      1.566     4.56      844.618     54.95247     105.8326         6     1.250     0.472 -35.89   0
       238    421.2679    659.5366 307.7411456  +6.4147604     2915.765     4586.972     5234.184     78.14852     155.9256     311.8203      1.743     4.16     843.1783     54.95247     430.0558        23     1.457     0.901 -39.66   0
       239    134.3401    658.6279 307.8603526  +6.4054738      22951.2     36851.63     38287.21     77.77668     155.9876     311.6653      1.738     4.45     844.2619     54.95247     3150.731        55     1.668     1.121 -31.46   0
       240    802.8614    659.2678 307.5826518  +6.4276780     993.0333     1573.562     1817.688     78.14852     155.8636     311.7583      1.784     5.47     840.6339     54.95247     135.1907        11     1.325     0.636 -55.27   0
       241    353.6512    653.4786 307.7694356  +6.4149871     674.3875     1111.917     1240.989     78.14852     155.9876     311.7583      1.852     3.57     842.4918     54.95247     137.2461         5     1.626     0.226 -42.38   0
       242    597.2319    652.9880 307.6682769  +6.4233756     454.6997     758.7051     833.0206     77.65234     155.6776     311.6653      2.043     3.91     842.2858     54.95247     78.78479         5     0.850     0.515 -37.41   0
       243    970.7936    648.3270 307.5132630  +6.4378157     6288.028     11273.19     12272.64     77.77668     155.4912     311.6653      1.925     4.17     836.9161     54.95247     816.1463        43     1.617     1.326 -17.94   0
       244     15.6101    647.3589 307.9100480  +6.4061202     1012.382     1606.182      1376.26     77.52779     155.7396     311.4792      1.710     4.39     845.0391     54.95247     185.4664        13     1.318     0.704 -42.36   0
       245   1023.6277    644.0831 307.4914587  +6.4413342     20151.74     24143.98     25357.94     68.24734     124.4986      235.063      1.061     2.41     835.4713     54.95247     6120.799        32     1.393     0.637  89.26  24
       246    929.0635    644.8541 307.5307140  +6.4378538     632.5981     923.0161     845.5991     78.14852     155.8636     311.7273      1.547     5.65     837.7669     54.95247     95.76758         8     1.373     0.656 -31.72   0
       247    207.4705    645.3323 307.8304282  +6.4134281     638.8928     1282.939     1449.342     78.14852     156.0495     311.7273      2.057     4.27     843.5491     54.95247     90.54816         7     1.007     0.516 -30.19   0
       248    523.3284    643.9946 307.6992777  +6.4246071      699.181     1175.101     1010.812     77.77668     155.4912     311.6653      1.782     5.21     842.3159     54.95247     105.4621         9     1.515     0.506 -22.78   0
       249    494.4233    640.2679 307.7114098  +6.4251746     571.6547     779.9103     1420.315     77.77668     155.8636     311.7273      1.901     5.82       842.28     54.95247      92.4798         8     1.437     0.664 -35.90   0
       250    171.7869    640.2321 307.8454221  +6.4143311     2701.422     4170.202     4343.191     77.65234     155.6776     311.6963      1.700     4.43     843.7209     54.95247     363.6326        23     1.432     0.976 -22.70   0
       251    564.3197    643.5599 307.6822657  +6.4261632     46665.94     72916.24     76792.86     78.14852     155.9876     311.6963      1.704     4.52     842.1217     54.95247     6444.542        75     1.692     1.149 -33.77   0
       252     64.4142    634.6104 307.8902097  +6.4130306     1334.945     2109.793     2211.811     77.90083     155.6776     311.6963      1.735     4.32     844.4088     54.95247     208.7206        15     1.281     0.974 -39.54   0
       253    461.6039    627.3634 307.7254777  +6.4293994     59797.09      94334.2     99544.92     77.27811     155.7396     311.5723      1.723     4.27     841.7843     54.95247     8006.736        84     1.710     1.169 -31.43   0
       254      5.1990    628.8866 307.9149985  +6.4133949     1721.605     2835.271     3060.875     77.40305     155.4912     287.4387      1.797     4.82     845.3094     54.95247     253.8201        19     1.576     0.756 -45.14  16
       255    647.7218    624.4026 307.6482680  +6.4368719      776.775     1102.059      1109.92     77.52779     155.4291     311.5413      1.550     4.21     841.1298     54.95247     118.6293         8     1.191     0.525 -48.18   0
       256    136.1625    622.2559 307.8608275  +6.4205515     1600.275     2552.676     2259.016     78.14852     155.9876     311.7893      1.666     4.66     843.5642     54.95247     204.4078        18     1.431     0.876 -38.96   0
       257    931.0328    620.3570 307.5307191  +6.4480338     602.7747     988.1608     357.3006     77.77667     155.9256     311.6033      1.587     3.99      836.838     54.95247     91.73041         6     1.080     0.422 -13.25   0
       258    607.2839    619.3049 307.6652370  +6.4376196     950.3457     1487.538     1467.312     78.02477      156.297     311.8513      1.712     5.84     840.8989     54.95247       124.88        12     1.276     0.751 -29.27   0
       259    415.9183    619.8521 307.7447080  +6.4309646     725.3127     1124.581     1131.378     78.14852     155.9256     311.7893      1.466     2.82     841.5167     54.95247     128.5149         6     0.878     0.457 -35.42   0
       260    306.8460    616.4713 307.7901277  +6.4286905     2025.462     3671.591     4152.199     78.14852     155.9256     311.7583      1.980     5.07     842.4885     54.95247     269.1707        22     1.657     0.843 -38.52   0
       261    459.2008    615.1445 307.7268884  +6.4343633      805.004     1448.812     2324.017     77.52779     155.6776     311.4482      2.085     4.84     841.2819     54.95247     113.2153         8     1.058     0.627 -52.20   0
       262    856.7332    614.1930 307.5617902  +6.4480921     3928.495     3995.772     4170.021     77.65234     155.6776     311.6033      0.840     2.09     838.9245     54.95247     1473.493         7     0.861     0.349 -13.53   0
       263    733.5948    611.0215 307.6130480  +6.4452763     5054.023     8016.891     7613.145     77.77668     155.6776     311.5723      1.674     4.36     840.6824     54.95247     627.8828        28     1.520     0.957 -31.75   0
       264   1004.5738    606.8465 307.5006239  +6.4560713     1098.688     1712.396     1806.371     77.77668     155.9876     311.6653      1.616     4.64     833.9622     54.95247     148.1729        13     1.314     0.666 -49.05   0
       265    787.2016    606.1548 307.5909438  +6.4490821     13031.27     20883.43     22010.47     77.52779     155.5533     311.3861      1.678     4.37     839.9858     54.95247     1764.292        41     1.593     1.022 -33.86   0
       266    529.5291    606.1799 307.6979779  +6.4404276     1003.152     1764.458     2171.654     77.77668     155.8016     311.6963      1.858     4.71     841.1012     54.95247      139.932         9     1.118     0.563 -27.07   0
       267     32.1554    605.6476 307.9045902  +6.4238991     419.4362     746.5893     1248.605     78.14852     155.8636     311.7273      1.580     3.59     844.8004     54.95247     95.03668         5     1.427     0.260 -40.66   0
       268    611.1121    604.2577 307.6641542  +6.4439605     2901.529     4486.302      5065.46     78.14852     155.8636     311.8823      1.687     4.24     840.3959     54.95247     369.0703        21     1.443     0.877 -32.74   0
       269    928.3064    600.4943 307.5325191  +6.4561433     1014.868     1701.912     2253.187     78.14852     156.4206     311.7273      1.755     5.57     836.2993     54.95247     132.0837        12     1.450     0.747 -44.25   0
       270    369.7581    598.0453 307.7646185  +6.4384151     1016.596     1569.512     1530.927     78.02477     155.9256     311.6033      1.738     5.63     840.7079     54.95247     143.6758        11     1.271     0.702 -46.69   0
       271    223.4955    597.8395 307.8253793  +6.4335756     1294.536      2154.34     2628.785     78.14852     155.8016     311.8823      1.843     6.02     842.6036     54.95247     148.3665        15     1.440     0.806 -30.55   0
       272    863.3252    589.4850 307.5598827  +6.4585139      2763.55     4401.837     4964.084     78.27208     156.2352     311.8203      1.726     5.04     837.7784     54.95247     384.3391        21     1.429     0.853 -36.21   0
       273    158.6314    589.0156 307.8526205  +6.4350324     754.8207     1002.301     629.9313     77.77667     155.6776     311.6963      1.541     4.93     843.0574     54.95247     114.9116         7     1.324     0.520 -26.41   0
       274    822.0270    586.8902 307.5771255  +6.4582024     2409.903     3682.972     3893.737     78.27207     155.6776     311.6343      1.570     4.73     838.5145     54.95247     316.4706        18     1.468     0.778 -33.73   0
       275    792.9683    582.8094 307.5893340  +6.4589139     2524.138     4069.462     4942.797     77.65234     155.6776     311.6033      1.785     4.42     838.8793     54.95247     368.6505        23     1.496     0.910 -31.67   3
       276    802.5997    578.0795 307.5854922  +6.4611893     150237.6     238045.2       251860     77.40305     155.3047     311.5102      1.698     4.33     838.4719     54.95247     19546.55       135     1.786     1.265 -36.50   2
       277    250.0070    581.7404 307.8149118  +6.4411153     7385.156     11932.38     12801.65     77.52779     155.8016     311.5102      1.714     4.32     841.8726     54.95247     1009.201        34     1.599     0.990 -31.54   0
       278    184.1564    576.2191 307.8424514  +6.4411759     53723.51     89139.84     95516.12     77.65234     155.8016     311.5413      1.769     4.26     842.5528     54.95247     7047.719        89     1.784     1.245 -34.42   0
       279    732.6024    579.1629 307.6145329  +6.4583964     516.0801     1113.256     1619.056     77.27811     155.7396     311.5723      2.284     3.52     839.6773     54.95247     83.86841         5     0.825     0.433 -71.06   0
       280    108.1868    572.4648 307.8741343  +6.4401641      5980.42     9694.578     10443.11     77.65234     155.7396     311.6653      1.747     4.24     842.9405     54.95247     805.8607        34     1.640     0.989 -33.87   0
       281    973.8045    569.6383 307.5146555  +6.4704047     1228.628     1978.459     1496.786     77.27811     155.6776     311.5102      1.685     5.35     834.1307     54.95247      178.055        15     1.468     0.747 -44.32   0
       282    994.3547    568.8594 307.5061447  +6.4714134     748.2839     1121.756     1073.093     78.02477     155.8636     311.8513      1.481     4.34     833.5256     54.95247     111.8401         7     1.242     0.432 -44.77   0
       283    222.9116    567.7950 307.8266386  +6.4459598     684.7145     1136.731     1500.685     77.65234     155.6155     311.4792      1.751     5.89     841.7765     54.95247     103.5575        10     1.449     0.674 -45.93   0
       284    839.1558    565.3313 307.5707353  +6.4676770     4316.857     7095.902     7273.282     78.14852     155.8636     311.7893      1.754     4.42     837.1831     54.95247     619.8927        29     1.608     0.963 -28.39   0
       285    357.5756    563.4099 307.7708495  +6.4523046     16318.72     26225.79     27616.34     77.77668     155.7396     311.6343      1.748     4.38     839.6434     54.95247     2062.163        47     1.629     1.105 -31.96   0
       286    447.6709    563.6516 307.7334164  +6.4552351     844.8112     1068.196     1015.796     78.02477     155.9256     311.7893      1.434     5.01      839.922     54.95247     115.8829         9     1.061     0.691 -44.09   0
       287    159.6401    562.0611 307.8531143  +6.4461945     1741.433     2778.904     3573.356     78.14852     155.9256     311.8513      2.022     4.29     842.6953     54.95247     285.1682        21     1.643     0.817 -38.64   0
       288    793.0444    558.6629 307.5901149  +6.4688857     5580.052     8859.455     9492.417     78.14852     155.8636     311.7893      1.689     4.54     837.7927     54.95247     802.1599        33     1.579     0.980 -31.27   0
       289    523.9456    558.3345 307.7019116  +6.4599936     6236.796     9792.417     10130.55     78.14852     155.8636     311.7273      1.709     4.41     839.7982     54.95247     785.4019        31     1.627     0.910 -34.02   0
       290    234.9128    559.6823 307.8219280  +6.4497136      895.756      1550.99     2339.792     77.90083     156.1115     311.8203      2.476     6.87     841.3304     54.95247     126.3806        15     1.290     1.026 -34.42   0
       291    904.7497    561.3345 307.5436210  +6.4715230     435.4479     845.5281     794.9772     78.02477     155.8636     311.7583      1.525     3.42     835.6938     54.95247     100.7044         5     0.754     0.449 -13.99   0
       292     97.1822    559.3013 307.8791513  +6.4452275     823.1182     1490.265     1470.432     78.14852     155.8016     311.5102      1.833     7.57     842.8377     54.95247     107.5793        14     1.494     1.073 -61.56   0
       293    382.1970    554.9131 307.7609091  +6.4566410     1228.943     1958.128     2379.315     77.52779     155.5533     311.5102      1.742     5.99     839.5258     54.95247     176.4338        14     1.425     0.708 -31.58   0
       294    568.8424    551.4120 307.6834948  +6.4643596     2265.982     3955.258     4349.797     77.52779     155.7396     311.4792      1.837     4.95     839.5481     54.95247     363.3613        24     1.812     0.829 -34.48   0
       295    171.0048    551.4552 307.8487528  +6.4509563     6268.099     10256.15     10631.06     77.52779     155.7396     311.4482      1.740     4.33     842.3454     54.95247     821.7722        35     1.631     1.006 -32.10   0
       296    851.9757    551.7740 307.5658657  +6.4737037     605.1478     739.9511     820.0399     77.65234     155.7396     311.6343      1.325     4.81     836.3639     54.95247     108.5607         6     1.089     0.602 -17.54   0
       297    809.9171    550.9418 307.5833656  +6.4726388     1367.324     2181.514     1982.688     78.27207     155.9256     311.8203      1.661     4.51     837.0737     54.95247     222.8684        18     1.494     0.864 -36.63   0
       298    266.1656    547.8782 307.8093454  +6.4556397     80744.53     131940.3     139907.7     78.02477     155.9876     311.7893      1.740     4.32     840.2181     54.95247     10269.55        98     1.768     1.233 -31.47   0
       299     42.5521    550.0059 307.9021582  +6.4472215     4507.938     7420.209     7863.235     77.65234     155.7396     311.4171      1.758     4.29     843.6638     54.95247     531.9329        27     1.530     0.970 -34.03   0
       300    555.5046    545.3963 307.6892383  +6.4663953     893.4756      1404.01     1823.622     77.90083     155.6155     311.5102      1.765     5.73     839.4288     54.95247     128.6609        10     1.451     0.638 -35.43   0
       301    250.0589    543.0397 307.8161997  +6.4570948     1407.761     2111.288     740.9948     78.14852     155.9876     311.8513      1.482     4.29     840.4031     54.95247     215.6604        14     1.319     0.729 -36.57   0
       302    965.7189    541.7639 307.5189508  +6.4816428     1603.681     2320.658     2227.984     78.02477     155.9876     311.7583      1.590     4.25     833.6571     54.95247     212.2637        16     1.282     0.822 -27.25   0
       303    789.3423    540.4697 307.5922651  +6.4762731     15720.35     24319.61     25657.73     78.27208     155.9256     311.7273      1.696     4.54      837.131     54.95247     2165.649        45     1.611     1.052 -31.36   0
       304    492.9420    538.7843 307.7154503  +6.4670234      37641.3     66034.27     70943.73     77.52779     155.8636     311.4792      1.873     4.43     839.2346     54.95247     4398.492        78     1.825     1.285 -25.72   0
       305    643.1981    537.3425 307.6530811  +6.4726642     907.1676     1468.154     2008.871     77.52779     155.6155     311.5102      1.743     5.32     838.5163     54.95247     141.9772        11     1.468     0.545 -28.94   0
       306    205.2319    535.1587 307.8350871  +6.4588381     1871.971     2996.795     3655.196     77.77668     155.8636     311.6343      1.728     4.43     841.1996     54.95247     264.0694        19     1.439     0.815 -36.34   0
       307     41.1232    535.0385 307.9032592  +6.4533525     1114.609     1820.768      2150.36     78.02477     155.9876     311.7583      1.860     5.51     843.4888     54.95247     185.6883        13     1.477     0.799 -48.55   0
       308    652.7208    533.7589 307.6492460  +6.4744632     2811.663     4506.642     5512.501     78.02477     155.9256     311.7583      1.798     4.72     838.2772     54.95247     378.7886        24     1.556     0.911 -30.64   0
       309    663.1252    533.6500 307.6449276  +6.4748572     1282.498     1969.018     2343.418     78.14852     155.9876     311.7893      1.624     5.94     838.1456     54.95247     175.2314        14     1.418     0.701 -34.41   0
       310    715.0052    532.8291 307.6234034  +6.4769361     1216.031     1774.816      2313.76     77.65234     155.7396     311.5723      1.485     4.11     838.0967     54.95247      181.889        11     1.254     0.594 -36.56   0
       311    390.6023    529.5306 307.7582752  +6.4674031     1713.235     2620.506     2552.981     77.65234     155.5534     311.5723      1.653     5.31     838.7686     54.95247     206.8824        15     1.345     0.739 -29.86   0
       312    322.0229    527.7014 307.7868250  +6.4658506     3673.318     5941.195     6613.835     78.27207     155.6776     311.5723      1.742     4.48     838.6324     54.95247     496.5925        26     1.545     0.936 -39.92   0
       313    137.2232    526.2526 307.8636387  +6.4602222     23920.91     39326.32     41104.67     77.65234     155.9256     311.5723      1.760     4.40      842.183     54.95247     3180.112        57     1.697     1.118 -33.75   0
       314    865.3939    526.6362 307.5611369  +6.4845315     1522.252     2564.688     2592.587     77.27811     155.6776     311.5413      1.829     4.50     835.5253     54.95247     217.1678        19     1.444     0.882 -33.42   0
       315    502.1638    526.9820 307.7120179  +6.4722060     1967.104     3341.004     3270.848     77.65234     155.7396     311.5413      1.670     4.61      838.793     54.95247     266.5858        18     1.540     0.731 -35.99   0
       316    102.3930    524.5151 307.8781655  +6.4597647     2538.029     3861.579     3459.624     77.77668     155.6155     311.6033      1.666     4.25     842.3467     54.95247     306.7236        21     1.469     0.885 -36.18   0
       317    962.9044    521.0399 307.5208163  +6.4901050     5013.415     7805.213     7982.195     78.14852     155.8016     311.8823      1.646     4.30     832.9337     54.95247     698.1935        28     1.491     0.946 -33.48   0
       318    339.4991    522.5825 307.7797384  +6.4685522     996.7841     1736.387     1842.195     78.14852     155.8016     311.5102      1.929     5.70     838.3617     54.95247     139.7759        12     1.433     0.639 -30.62   0
       319    535.9141    513.5027 307.6984524  +6.4789050     1330.043     2158.269     2151.954     78.14852      156.297     311.8203      1.678     6.03     838.2565     54.95247     179.5491        15     1.551     0.659 -34.39   0
       320      2.2526    510.3484 307.9202426  +6.4622333     22214.62     29184.75     29835.84     77.27811     136.7776     249.2299      1.435     3.59     843.8911     54.95247     2998.393        38     1.379     0.985 -65.00  24
       321    434.3204    507.4347 307.7408608  +6.4779959     40159.72      64128.7     67806.34     78.02477     155.9876     311.7893      1.761     4.40     838.1086     54.95247     5353.486        68     1.704     1.145 -32.51   0
       322    642.2825    507.1911 307.6544777  +6.4850819     11537.85      18178.1     18413.18     77.77668     155.5533     311.6033      1.669     4.25     837.4496     54.95247     1556.408        39     1.614     0.989 -35.53   0
       323    282.8950    507.3784 307.8037661  +6.4729236     892.5965     1423.995     1574.083     78.02477     155.7396     311.6033      1.787     5.96     838.0757     54.95247     104.0482        13     1.501     0.665 -47.82   0
       324    199.4243    504.9690 307.8385215  +6.4711062     17450.53     30283.37     32419.11     77.65234     155.8016     311.5723      1.867     4.27     840.4096     54.95247     2112.895        60     1.714     1.300 -29.81   0
       325    165.1916    506.0003 307.8527068  +6.4695265     1576.943     2531.856     2178.779     77.52779     155.6155     311.5723      1.694     4.45     841.5073     54.95247     199.0562        17     1.381     0.810 -40.39   0
       326    976.0729    505.6182 307.5158637  +6.4969126     1002.743     1576.532     2041.241     77.65234     155.8636     311.6963      1.690     5.17     832.1286     54.95247     148.9347        11     1.180     0.695 -35.86   0
       327    904.7903    504.8271 307.5455038  +6.4948545     839.1436     1141.503     877.4562     77.77668     155.7396     311.6343      1.519     5.60     833.7614     54.95247     126.0549        10     1.136     0.783 -38.00   0
       328    816.4937    505.2394 307.5821713  +6.4917281     913.9062     1284.931     1313.355     78.27208     155.8636     311.8513      1.619     4.46     835.8084     54.95247     156.9163        11     1.266     0.621 -20.54   0
       329    564.1556    503.9675 307.6870421  +6.4837902     2637.659     4074.271     3965.858     77.77668     155.9256     311.6343      1.631     4.68     837.7705     54.95247     361.2466        21     1.459     0.838 -35.32   0
       330    937.9581    501.1819 307.5318471  +6.4974693     4606.199     7243.757     7614.995     77.65234     155.7396     311.5413      1.644     4.36     832.5889     54.95247     667.7306        26     1.506     0.886 -32.16   0
       331    611.1141    499.5293 307.6676841  +6.4871991     6139.553     9683.457      10049.4     78.27207     156.1733     311.7893      1.689     4.18     837.3997     54.95247     872.2026        31     1.595     0.918 -34.96   0
       332     98.9971    500.0940 307.8804037  +6.4697324      1006.97     1772.071     1987.294     77.90083     155.6155     311.4792      1.782     5.37     841.9474     54.95247     164.6718        13     1.398     0.798 -48.22   0
       333    960.5411    493.4651 307.5227246  +6.5014108     3272.674     5080.886     4741.164     78.27208     155.8636     311.7893      1.710     4.46     831.8947     54.95247     434.8918        24     1.531     0.871 -28.70   0
       334    523.3232    490.7444 307.7044509  +6.4878780     7025.332     10930.94     11561.32     78.14852     155.9256     311.7273      1.691     4.35     837.4115     54.95247      954.449        32     1.517     0.984 -33.00   0
       335    369.4235    490.7900 307.7683823  +6.4826849     2466.115     4107.299     4420.772     77.77668     155.7396     311.6343      1.817     4.68     837.2602     54.95247     313.4872        24     1.475     1.010 -34.15   0
       336    738.6494    491.3764 307.6149770  +6.4948432     395.0346     472.2537     276.8951     77.77668     155.9876     311.6653      1.380     4.22     836.5472     54.95247     72.08191         5     1.230     0.413 -37.26   0
       337    879.8203    486.7066 307.5564865  +6.5015002     2988.936     4739.781     5648.585     78.02477     155.7396     311.5723      1.757     4.78     834.2112     54.95247     424.9057        25     1.519     0.916 -29.69   0
       338    398.8291    492.3475 307.7561141  +6.4830311     645.7991     1143.329     1870.028     77.90083     156.0495     311.6653      1.902     4.97     837.4727     54.95247      102.243         8     1.184     0.590 -25.39   0
       339    887.1978    481.0736 307.5536110  +6.5040728     2092.475     3006.906     3279.115     77.65234     155.4291     311.6343      1.498     4.44      833.749     54.95247      306.201        18     1.449     0.740 -37.17   0
       340    926.6754    480.4364 307.5372317  +6.5056570     1334.685     1992.675      2118.54     78.02477     155.9876     311.7893      1.662     4.13     831.8843     54.95247     194.1177        12     1.088     0.755 -35.79   0
       341    265.1823    479.2435 307.8120759  +6.4839426      547.261     789.2375     973.4349     77.65234     155.8016     311.5413      1.409     4.11     837.4393     54.95247     87.08398         7     1.541     0.313 -39.04   0
       342    711.1448    477.0397 307.6268862  +6.4998402     2691.698     4483.599     4720.569     78.14852     155.9876     311.7273      1.786     4.60     836.0925     54.95247     356.5843        23     1.499     0.894 -34.71   0
       343    381.9862    475.0930 307.7636940  +6.4895882     3474.314     5770.236     5648.156     77.90083     155.6776     311.6033      1.705     4.15     836.5742     54.95247     479.9249        30     1.515     1.048 -36.73   0
       344     73.0382    475.7920 307.8920106  +6.4788894     1754.897     2703.983     2734.172     77.40305     155.6776     311.4792      1.615     4.66       841.98     54.95247     270.9707        19     1.520     0.792 -33.75   0
       345    422.2021    475.4767 307.7469745  +6.4907825     981.7905     1720.001     1700.545     77.52779     155.4291     311.6343      1.699     5.28     836.6953     54.95247      129.379        11     1.485     0.531 -35.36   0
       346    609.8358    471.6742 307.6691544  +6.4986566     9353.719     14861.52     15378.83     78.02477     155.9876     311.7583      1.701     4.39     836.0112     54.95247     1271.069        38     1.599     1.012 -34.65   0
       347    772.8121    467.9952 307.6015717  +6.5056415     15281.37     24302.42     27194.68     77.77668     155.6776     311.6343      1.758     4.79     835.1353     54.95247     2155.666        57     2.233     1.022 -44.60   0
       348    292.2401    468.4641 307.8012004  +6.4893043     2675.024     4128.804     4632.585     78.14852     155.8636     311.8203      1.760     4.13     836.3101     54.95247     358.0753        21     1.409     0.886 -33.83   0
       349    801.6664    465.4598 307.5896697  +6.5076551     1242.258      1832.93     1500.215     78.27208     155.8636     311.7583      1.659     5.24     834.7278     54.95247      167.647        14     1.262     0.790 -46.37   0
       350    375.3882    465.1391 307.7667713  +6.4934757     1474.943     2554.772     3112.141     77.52779     155.7396     311.4792      1.868     4.50     835.8987     54.95247      202.739        18     1.385     0.941 -22.20   0
       351    957.6113    463.4103 307.5249517  +6.5137215     1847.718     3098.184     2826.963     77.90083     155.7396     311.7273      1.736     5.09     830.9189     54.95247     268.6621        20     1.535     0.834 -31.87   0
       352    706.6920    461.8629 307.6292473  +6.5059568     502.6282       844.46     713.5743     78.14852     156.0495     311.8203      1.443     3.43     835.3785     54.95247     93.55701         5     0.980     0.347 -48.41   0
       353    363.5996    461.1549 307.7718033  +6.4947240     604.9896     934.3876     1686.374     77.40305     155.6155     311.3551      1.901     4.40     835.6667     54.95247     85.56714         5     1.232     0.447 -32.83   0
       354    109.7746    460.0798 307.8772827  +6.4866157     4113.256     6690.059     7112.206     77.90082     155.7396     311.7273      1.761     4.42      840.728     54.95247     503.6595        28     1.473     1.058 -25.34   0
       355   1011.7357    458.0319 307.5026462  +6.5177519     3781.252     6788.796     6751.923     77.90083     155.9876     311.7273      1.885     4.44     830.0433     54.95247     410.8556        35     1.626     1.181 -16.98   0
       356    748.0638    459.2353 307.6121482  +6.5084288     2194.567     3393.815     3649.987     78.02477     155.8636     311.7583      1.700     4.46     834.8887     54.95247     319.9701        18     1.409     0.797 -38.59   0
       357    267.6483    457.2236 307.8117965  +6.4931167     1380.845     2374.492     2442.473     77.77668     155.9256     311.6653      1.942     4.97     836.5448     54.95247     183.2704        17     1.473     0.730 -23.64   0
       358    346.0466    454.8820 307.7793073  +6.4967231     2780.927     4528.642      4331.51     78.14852     155.9256     311.7893      1.679     4.57     835.4121     54.95247     397.3102        21     1.452     0.864 -31.83   0
       359    701.7870    452.8972 307.6315871  +6.5094940     1648.708     2349.125     2262.416     78.02477     155.6776     311.5102      1.551     4.51     834.9893     54.95247     206.5144        16     1.235     0.845 -58.41   0
       360    976.4702    451.2928 307.5175238  +6.5193552     498.0454     792.0484     825.1271     78.14852     156.0495     311.7583      1.766     5.99     830.3055     54.95247     83.69061         8     1.451     0.697 -32.37   0
       361    233.7552    450.9321 307.8260892  +6.4945724     782.1972     1265.686     938.4932     78.14852     155.8636     311.7893      1.744     4.11     837.3698     54.95247     115.6849         7     1.157     0.418 -34.74   0
       362    543.7474    445.3932 307.6974964  +6.5072878     873.7153     1128.018     1162.689     77.65234     155.7396     311.4792      1.550     5.61     834.3774     54.95247     137.3087         9     1.120     0.792 -30.81   0
       363    444.5039    446.0182 307.7387047  +6.5036946     669.7878     1137.601     1152.389     78.02477     155.7396     311.5413      1.751     5.56      834.401     54.95247     104.3542         7     1.169     0.747 -59.62   0
       364    465.4383    443.7608 307.7300841  +6.5053304     1360.231     2121.187     1906.817     77.90083     155.8636     311.6343      1.640     4.78     834.3323     54.95247     175.3851        14     1.297     0.725 -44.83   0
       365    827.9933    442.8378 307.5794935  +6.5178769     1435.363     2113.891     1559.682     77.40305     155.6776     311.5102      1.459     3.97     833.4246     54.95247     210.5597        15     1.305     0.729 -39.87   0
       366    813.5729    441.9895 307.5855131  +6.5177441     2029.245     2843.087     2492.944     77.77668     155.7396     311.6343      1.508     4.25     833.5618     54.95247     281.4712        17     1.332     0.777 -34.06   0
       367    710.9650    440.0289 307.6282077  +6.5151146     14250.82     22465.37     23677.84     77.77668     155.6776     311.5723      1.650     4.19     834.2532     54.95247     1937.735        41     1.582     1.028 -31.96   0
       368    613.6753    441.7249 307.6685692  +6.5111504     584.6174     830.0082     432.7604     78.39544     156.1733     311.8513      1.562     4.38     834.0886     54.95247     109.4711         6     1.604     0.341 -31.24   0
       369    632.0499    435.9407 307.6611306  +6.5141552     2471.004     4021.308     4691.242     78.14852     155.9256     311.7893      1.750     4.55     833.9713     54.95247      332.446        22     1.497     0.868 -35.76   0
       370    705.6486    434.4624 307.6306039  +6.5172345      609.545     987.7894     1096.764     78.02477     155.8636     311.8203      1.733     4.25     834.0267     54.95247     119.8839         5     1.159     0.445 -36.81   0
       371    607.4947    433.0719 307.6714287  +6.5145154     5106.591     7886.603     8312.879     78.02477     155.9876     311.7583      1.654     4.53     833.4332     54.95247     628.3593        24     1.577     0.860 -31.38   3
       372    603.4528    430.4111 307.6731976  +6.5154783     13945.65     22586.07     23990.45     77.52779     155.8636     311.5102      1.741     4.39     833.2386     54.95247     1835.064        43     1.624     1.090 -28.62   3
       373    936.3102    430.0042 307.5349240  +6.5268013     3638.638     5727.192     6136.221     77.65234     155.6155     311.4792      1.669     4.15     830.2386     54.95247     479.0401        24     1.461     0.898 -36.59   0
       374    375.3606    425.8072 307.7681122  +6.5097132     27083.32     44218.86     46695.03     77.52779     155.6155     311.4482      1.748     4.26     833.3559     54.95247     3348.778        59     1.682     1.141 -32.87   0
       375    121.3480    425.1363 307.8736590  +6.5014325     2267.992     3548.117     3982.507     78.14852     155.8636     311.7273      1.677     4.24     839.2931     54.95247     261.2438        22     1.433     0.921 -37.76   0
       376    891.8182    425.6694 307.5535545  +6.5271021      1351.42      2561.29     3432.696     77.65234     155.8016     311.6963      2.017     5.19     831.3283     54.95247      181.427        15     1.484     0.782 -25.67   0
       377    586.9366    421.6628 307.6803543  +6.5185356     672.0634     1013.642     1553.035     78.14852     155.9256     311.7893      1.609     4.61     832.7122     54.95247     123.3881         8     1.352     0.447 -21.53   0
       378    905.1354    420.3132 307.5482017  +6.5297592     4849.842     7328.079     7791.794     78.14852     156.1115     311.7583      1.595     4.05     830.7249     54.95247     720.4441        26     1.535     0.856 -27.27   0
       379     54.6926    420.7435 307.9014978  +6.5009968         1383     2300.946     2527.009     78.02477     155.8636     311.9132      1.793     5.48     840.9038     54.95247      166.045        14     1.281     0.855 -21.46   0
       380    960.2418    418.7702 307.5253589  +6.5322400     662.0195     1031.324     1140.378     77.77668     155.8016     311.6033      1.729     5.97     829.5464     54.95247     97.90857         9     1.514     0.663 -44.82   0
       381    232.8851    416.2927 307.8276231  +6.5088440     12794.11     20999.55     21954.67     77.90083     156.3589     311.8513      1.759     4.26     836.1819     54.95247     1565.479        49     1.650     1.150 -35.84   0
       382     68.4470    410.4879 307.8961317  +6.5056951     759.8345      1314.23     1895.776     78.14852     155.8016     311.7893      1.970     5.98       840.15     54.95247     93.69397        11     1.336     0.752 -53.22   0
       383    727.8890    409.8915 307.6221916  +6.5281247     675.0977     956.7499     1317.623     78.14852     156.4206     311.8513      1.415     4.66     832.4933     54.95247     114.6179         6     1.263     0.489 -31.32   0
       384   1005.4884    409.3326 307.5068774  +6.5376496     525.7466     730.8716     702.5319     78.27208     156.1115     311.7583      1.599     4.74     828.3949     54.95247     70.67731         6     1.081     0.588 -30.99   0
       385    956.4193    408.5793 307.5272895  +6.5363197     1011.898     1646.584     2308.519     77.90083     155.8636     311.6653      2.198     5.41     829.2689     54.95247      125.691        14     1.173     0.839 -40.81   0
       386    696.0040    409.7211 307.6354443  +6.5271259     653.2421     1199.073     1308.601     77.77668     155.4291     311.5102      1.574     3.87     832.9196     54.95247     107.8986         6     1.321     0.325 -13.98   0
       387    346.0377    405.9798 307.7809643  +6.5169123     1339.002     2108.848     2210.994     77.77668     155.6776     311.5102      1.679     4.61     833.0548     54.95247     155.1519        17     1.330     0.909 -34.80   0
       388    330.9544    405.0383 307.7872624  +6.5167933     406.9576     626.8094     583.4904     77.90083     155.8636     311.6653      1.693     3.65     833.2623     54.95247     74.30109         5     1.611     0.238 -58.01   0
       389    178.8927    406.0776 307.8503991  +6.5112415     806.9711     1236.023      1124.83     77.90083     156.1733     311.7893      1.551     4.86     837.8054     54.95247     123.3093         7     1.014     0.659 -27.38   0
       390    133.2186    404.8235 307.8694159  +6.5102190     4709.829     7675.318     7694.001     77.90082     155.8636     311.6963      1.727     4.23     838.7474     54.95247     603.8997        30     1.605     1.000 -37.97   0
       391    237.9510    403.9747 307.8259355  +6.5141002     1229.756     1890.742     1993.953     77.77668     155.9256     311.6653      1.623     4.95     835.6121     54.95247     174.5226        13     1.334     0.696 -38.57   0
       392    430.2935    403.7735 307.7460353  +6.5206578     760.1519     1098.335     1007.316     78.27208     155.6776     311.6033      1.603     5.57     831.6523     54.95247     111.9281        11     1.294     0.677 -32.36   0
       393    818.8321    401.7155 307.5846834  +6.5345480     844.7135     1253.071     1096.159     78.14852     155.7396     311.6963      1.640     5.32     831.8157     54.95247     136.1825        11     1.226     0.652 -35.81   0
       394    155.3735    400.6493 307.8603536  +6.5126895     2153.607     4076.423     4590.398     77.77668     155.9256     311.6963      2.040     5.20     838.4391     54.95247     259.5892        27     1.653     1.025 -41.71   0
       395    550.8948    399.7151 307.6960684  +6.5263866     820.8192     1083.759     1130.755     78.14852      156.297     311.8513      1.552     5.36     831.3457     54.95247     124.1482        11     1.658     0.489 -34.24   0
       396    378.6718    395.6916 307.7677545  +6.5222580     1891.575     3069.788     3335.256     78.02477     156.1115     311.7583      1.805     4.59     832.1977     54.95247     245.3539        21     1.553     0.875 -35.10   0
       397    266.3036    396.2645 307.8144177  +6.5182385     836.8204     1348.232     1368.669     78.14852     156.0495     311.7893      1.638     4.90     834.3671     54.95247     126.4556         9     1.320     0.515 -32.92   0
       398    967.4336    394.7601 307.5231777  +6.5423936     834.5497     1257.702     1565.844     77.90083     155.8016     311.5723      1.757     5.92     828.5405     54.95247      134.289        12     1.360     0.751 -31.66   0
       399    313.0929    393.3557 307.7950779  +6.5210152     630.7572     1163.933     1461.376     78.14852     155.8636     311.8823      2.123     5.86     833.1279     54.95247      96.6759         7     1.091     0.886  32.97   0
       400     28.8035    389.9722 307.9132962  +6.5128265     3013.323     5220.148     5421.525     77.65234     155.6776     311.6033      1.862     4.38     840.6142     54.95247     355.5738        29     1.616     1.033 -43.72   0
       401    765.2130    388.2443 307.6074139  +6.5383132     1952.012       3256.9     3661.599     77.65234     155.7396     311.5102      1.748     4.27     831.5488     54.95247     271.6868        23     1.437     1.074 -40.44   0
       402    432.5107    389.1391 307.7456085  +6.5267743     6998.483     11194.66     11667.97     78.14852     156.0495     311.8203      1.703     4.09     831.2612     54.95247     908.1343        36     1.542     1.072 -35.21   0
       403    773.1173    386.6257 307.6041844  +6.5392464     12276.22     19251.53     20419.98     78.02477     155.6776     311.7583      1.683     4.37     831.5114     54.95247     1734.784        38     1.558     1.014 -30.77   0
       404    336.3966    385.0023 307.7856790  +6.5252484     1035.776     1718.579      1485.82     77.52779     155.4912     311.5102      1.686     5.09      832.578     54.95247     173.8895        13     1.490     0.738 -28.70   0
       405   1016.9665    381.8506 307.5030316  +6.5493798     3492.009     5477.475     5637.244     78.02477     155.9876     310.4537      1.649     4.07     826.7575     54.95247     503.2692        24     1.489     0.870 -35.70  16
       406    948.2591    377.8372 307.5317130  +6.5487391     568.4365     1094.835     1129.226     78.14852     155.9876     311.7583      1.703     5.18     828.4064     54.95247     105.1613         6     1.393     0.545 -18.83   0
       407    181.7653    377.1189 307.8501864  +6.5232939     709.7564     1210.849     1421.544     78.02477     155.9256     311.7583      1.686     5.36      837.007     54.95247     104.8113        10     1.353     0.600 -57.14   0
       408    898.8419    376.5794 307.5522871  +6.5476049     499.1251     756.4818     569.9584     77.65234     155.7396     311.6033      1.794     4.51     829.5266     54.95247     81.55786         6     0.988     0.585 -69.27   0
       409    480.7808    372.8710 307.7261039  +6.5351136     2991.407      4557.44     4691.445     77.77668     155.8016     311.6963      1.615     4.32     830.0703     54.95247     354.8624        26     1.467     0.970 -33.78   0
       410    453.1946    373.4741 307.7375444  +6.5339372     2350.082      3518.55     3664.639     77.77668     155.4912     311.6653      1.586     3.61     830.5202     54.95247     571.4303        19     1.427     0.837 -31.56   0
       411    909.6285    372.9426 307.5479278  +6.5494674     845.7235     1510.804     1646.373     77.77667     155.9876     311.6653      1.654     5.74      829.175     54.95247     115.2053        10     1.349     0.687 -34.47   0
       412    838.4837    369.5478 307.5776012  +6.5484872     32373.48     51165.22     54033.07     78.14852     155.8636     311.8513      1.769     4.34     830.3636     54.95247     4079.899        61     1.648     1.180 -42.49   0
       413    983.8021    369.8706 307.5172133  +6.5532171     596.3076     910.2466      1041.77     77.65234     155.4912     311.5723      1.453     4.68      827.092     54.95247     83.97931         6     1.088     0.570 -65.36   0
       414     55.9462    365.6404 307.9028454  +6.5237882     614.6611     1327.084     1158.922     78.02477     155.9256     311.7583      2.177     5.07     839.3438     54.95247     104.2777         6     1.402     0.518 -34.78   0
       415    330.9635    364.9893 307.7886129  +6.5333280     774.9137     1136.112     1223.562     77.65234     155.7396     311.4792      1.556     5.96     832.0119     54.95247     117.7723        11     1.306     0.766 -26.87   0
       416    610.2161    361.7840 307.6727021  +6.5440388     2554.771     4130.534      4505.64     77.90082     155.6155     311.6963      1.739     4.26     829.0549     54.95247      356.264        20     1.323     1.000 -18.95   0
       417     18.7420    361.9489 307.9184266  +6.5240560     1174.068     1808.245     2221.975     78.14852     155.9256     311.7583      1.659     5.17     839.4344     54.95247     142.5664        14     1.352     0.757 -20.03   0
       418    141.9519    360.1673 307.8673008  +6.5289498     607.8438     897.0466     1029.587     77.90083     155.9256     311.6963      1.596     4.59     837.9959     54.95247     92.56812         7     1.153     0.518 -36.59   0
       419    694.9581    355.5000 307.6377059  +6.5494767     76821.82     119212.5     125691.2     78.14852     155.8016     311.9752      1.684     4.25     829.3176     54.95247     10598.08        90     1.686     1.194 -29.97   0
       420    853.3042    356.9078 307.5718688  +6.5542021     1162.979     1959.185     2618.841     78.14852     156.4206     311.7273      2.073     4.64     829.6807     54.95247     203.7153        15     1.396     0.767 -38.68   0
       421     74.2619    354.8824 307.8956012  +6.5288478     1315.884      2283.57     2168.991     78.27207     155.9256     311.7273      1.815     6.73      839.017     54.95247     161.8921        18     1.572     0.808 -34.87   0
       422    936.5810    352.5853 307.5374139  +6.5587741     1016.612     1356.452     1629.876     77.90083     155.6776     311.6653      1.635     5.38     827.9731     54.95247     138.1209        11     1.273     0.642 -48.62   0
       423    557.5056    352.1559 307.6949266  +6.5462440     2525.485     4118.919       4444.4     78.14852     155.9256     311.8823      1.790     4.19     828.4518     54.95247     366.5663        24     1.591     0.869 -33.56   0
       424     94.6759    350.8571 307.8872568  +6.5311985     5753.729     9249.702     9678.236     78.14852     155.8636     311.6963      1.718     4.39     838.9394     54.95247     721.0577        31     1.577     0.987 -33.69   0
       425    540.6923    348.3390 307.7020408  +6.5472551     6890.187     10970.44     11590.78     78.02477     155.9256     311.8513      1.699     4.25     828.2607     54.95247     851.1053        32     1.543     0.995 -33.45   0
       426    269.6810    345.8935 307.8147191  +6.5391481     2480.998     3979.559     3489.729     77.90083     156.1733     311.8203      1.722     4.33     832.5444     54.95247     337.0059        23     1.490     0.916 -30.11   0
       427    403.6026    343.5015 307.7591607  +6.5446438     24678.32     39673.75     41593.11     77.90083     155.6776     311.4482      1.750     4.13     830.4468     54.95247     3052.979        57     1.656     1.144 -32.31   0
       428    582.2627    342.8864 307.6849534  +6.5509024      570.019     794.4756     514.4129     78.27207     156.1115     311.7893      1.338     3.85     827.9456     54.95247     107.0211         5     0.870     0.488 -38.32   0
       429    511.3415    342.3552 307.7144373  +6.5487394     1222.624      1778.01     1773.672     78.02477     155.9256     311.8513      1.544     5.00     828.1932     54.95247     171.9193        15     1.497     0.630 -33.62   0
       430    383.3358    341.5709 307.7676461  +6.5447590     1236.812     1889.049     2310.752     77.90083     155.9876     311.6963      1.616     4.48     830.6739     54.95247     154.2572        16     1.231     0.894 -37.08   0
       431    482.8937    338.8424 307.7263751  +6.5492336     1038.867     1748.826     2015.916     78.27207     155.8636     311.8823      1.763     4.78     828.2897     54.95247      181.705        12     1.323     0.692 -40.06   0
       432    798.7629    336.1122 307.5952298  +6.5609610     761.4615     1415.518     1581.423     78.14852     155.8016     311.7583      2.112     5.36     829.1828     54.95247     102.5124         9     1.438     0.679 -35.67   0
       433    380.8473    336.1186 307.7688643  +6.5469263     786.0709     1422.237     1556.914     78.14852     155.9256     311.7893      2.059     5.09     830.4467     54.95247     113.5247        10     1.479     0.494 -40.48   0
       434    492.7042    333.9612 307.7224640  +6.5515786     8190.395     12943.47     13498.58     78.14852     155.8016     311.8823      1.694     4.08     827.9374     54.95247     1074.568        33     1.540     1.021 -31.10   0
       435    761.9896    332.6840 307.6106240  +6.5611441     3020.683     4814.732     5240.274     77.77668     155.6776     311.6033      1.757     4.12     828.9565     54.95247      404.502        25     1.550     0.997 -20.76   0
       436    917.6091    332.5498 307.5459701  +6.5664113     863.2427     1094.013     1006.974     77.65234     155.8016     311.4482      1.441     3.98     827.2442     54.95247     149.6261        10     1.127     0.860 -45.05   0
       437    709.9365    331.9367 307.6322766  +6.5597075     767.0026     1223.336      1177.65     78.14852     155.9256     311.7893      1.672     4.69     828.3028     54.95247     127.9428         9     1.244     0.502 -43.88   0
       438    319.2970    330.7916 307.7946165  +6.5470539     1088.751     1991.811     1937.896     77.90083     155.5533     311.5723      1.870     5.47     831.2529     54.95247     153.5015        14     1.333     0.916 -59.57   0
       439    154.3606    323.4727 307.8633888  +6.5445176       1626.3     2382.382     2322.881     78.02477     155.9256     311.8203      1.750     6.93     837.5316     54.95247     758.0947        13     1.387     0.969 -89.43   0
       440    382.6196    318.0154 307.7687399  +6.5544599     7039.826     11420.62     12253.44     77.90082     155.6776     311.6653      1.747     4.17     829.6237     54.95247     884.2329        36     1.574     1.103 -33.92   0
       441    238.3872    318.5865 307.8286446  +6.5493675     2047.352     3145.241     3515.374     78.02477     155.6155     311.6963      1.648     4.07     833.3988     54.95247     279.1659        19     1.346     0.880 -31.48   0
       442    736.2089    318.0408 307.6218288  +6.5663255     747.2404     1259.952     1368.545     77.52779     155.7396     311.4792      1.743     5.06     827.9318     54.95247     119.9265        10     1.341     0.540 -25.80   0
       443    750.4682    314.0431 307.6160389  +6.5684540     52903.04     80892.59     84802.12     78.14852     155.8636     311.8203      1.662     4.18     827.7147     54.95247     7239.845        64     1.616     1.108 -30.64   0
       444    422.0063    313.6077 307.7525247  +6.5576047     2117.753      3500.89      2996.91     77.52779     155.7396     311.6033      1.756     4.15     828.4764     54.95247     275.5779        22     1.601     0.850 -38.37   0
       445    926.2749    310.4825 307.5431114  +6.5758122     2229.624     3502.568     3602.972     78.39544     156.2352     311.8203      1.644     4.62     825.6757     54.95247     345.5641        20     1.489     0.849 -40.13   0
       446    985.2401    311.0074 307.5185936  +6.5775679     1563.899     2296.039     2523.395     77.52779     155.6776     311.4482      1.661     4.07     824.5667     54.95247     236.7643        18     1.354     0.882 -34.56   0
       447    568.2211    310.8960 307.6918668  +6.5636384     1245.236      1934.43     1892.713     78.02477     155.7396     311.5723      1.484     3.79     826.1456     54.95247     185.6957        12     1.283     0.622 -27.26   0
       448    459.4931    309.7650 307.7370795  +6.5604518     1087.612     1866.798     2707.172     78.27208     155.8016     311.8513      2.046     4.59      827.359     54.95247     166.7384        12     1.283     0.661 -52.99   0
       449    289.4242    308.2937 307.8077887  +6.5553362      503.352     628.7292     211.9478     78.27208     155.6776     311.6033      1.135     3.41     831.4754     54.95247     85.98065         5     1.022     0.330 -67.63   0
       450    408.7829    308.9763 307.7581752  +6.5590719     1839.614     3142.625     3077.618     77.90083     155.8016     311.6653      1.866     4.43     828.5368     54.95247     236.3955        22     1.475     0.918 -33.31   0
       451    829.6294    303.8222 307.5834918  +6.5753265     1151.949     1843.948     1480.638     77.52779     155.6776     311.6033      1.690     5.81     827.0347     54.95247     163.7869        13     1.244     0.765 -40.99   0
       452    961.9676    301.8205 307.5285722  +6.5805826     587.0849      986.535     1220.829     77.65234     155.7396     311.6033      1.533     4.74     824.5683     54.95247     112.2122         6     1.268     0.502 -18.78   0
       453    439.4569    300.4080 307.7457203  +6.5636411     983.2878     1640.269     2104.265     77.52779     155.8016     311.5102      1.850     5.24     827.3071     54.95247      141.312        11     1.318     0.599 -28.89   0
       454    185.1369    300.2606 307.8513888  +6.5551384     2084.345     3292.421     3656.562     78.14852     155.9256     311.7893      1.743     4.54     835.9841     54.95247     263.3248        21     1.487     0.854 -28.08   0
       455    748.8996    298.6368 307.6172095  +6.5747622     5977.553     9218.644     9971.062     78.14852     155.8016     311.9752      1.677     4.11     826.7416     54.95247     861.9943        29     1.463     0.957 -25.11   0
       456    339.6199    298.1309 307.7872775  +6.5612221     746.9153     1300.204     1147.409     77.77668     155.8016     311.6653      1.500     5.43     830.0097     54.95247     97.91211        11     1.497     0.555 -24.53   0
       457     81.1576    297.6118 307.8946781  +6.5527244     1110.164     1912.294     2166.188     77.52779     155.7396     311.4792      1.903     6.17     837.7763     54.95247     151.7098        16     1.520     0.908 -10.50   0
       458    765.3583    296.5049 307.6104427  +6.5761941     2758.413     4037.963     4187.159     78.14852     155.8636     311.8823      1.572     4.55     826.6609     54.95247      371.163        18     1.378     0.810 -34.26   0
       459    354.6286    291.3458 307.7812712  +6.5645286     1776.225     3467.148     4171.248     77.90083     155.9876     311.6653      2.278     5.28     829.3569     54.95247     222.5819        26     1.742     0.976 -15.81   0
       460     68.5558    291.6287 307.9001165  +6.5547691     1190.446      1913.62     1932.369     77.77668     155.9876     311.6653      1.747     4.76     837.6447     54.95247     159.5849        15     1.323     0.841 -59.45   0
       461   1003.5323    287.6157 307.5117790  +6.5878373     5706.516     8560.273     9111.759     77.65234     155.8016     311.6653      1.626     4.32     823.3904     54.95247     770.2212        30     1.520     0.957 -36.21   0
       462    481.5728    287.2767 307.7286653  +6.5704784     2008.801     2981.609     3307.566     78.02477     155.8636     311.7273      1.622     3.97     825.6506     54.95247     266.6865        20     1.408     0.846 -32.18   0
       463    244.1362    282.8863 307.8274645  +6.5643000     5530.624     8893.195     9542.772     78.27207     156.0495     311.7893      1.709     4.12     832.6885     54.95247     725.2516        32     1.589     0.991 -31.34   0
       464    763.5242    276.5721 307.6118761  +6.5843621     655.2543     973.1138     1125.299     78.02477     155.9256     311.7273      1.713     4.22     825.6915     54.95247     90.66064         7     1.116     0.493  -2.69   0
       465    220.9605    275.2847 307.8373509  +6.5666573     678.4787     956.5566     925.4562     78.14852     155.8636     311.7273      1.461     3.40     833.3988     54.95247     136.2767         6     1.177     0.531 -35.95   0
       466    378.4864    273.3035 307.7719687  +6.5727803     1488.498      2831.78     3115.574     78.14852      156.297     311.7893      2.019     4.63     828.0529     54.95247     209.7656        22     1.435     1.062 -29.65   0
       467    965.5266    272.6402 307.5280741  +6.5927492     1201.728     1701.224     1713.374     78.02477     155.9876     311.8203      1.557     4.87     823.4564     54.95247     151.2161        13     1.184     0.743 -47.16   0
       468    300.4659    269.6047 307.8045102  +6.5716809     1113.233     1622.422     1261.023     77.65234     155.6155     311.5723      1.647     6.00     830.6531     54.95247     159.2064        14     1.422     0.755 -42.21   0
       469    148.0419    269.2594 307.8678508  +6.5666862     1572.353     2913.771     3175.027     78.14852     155.9256     311.7893      2.018     5.09     836.5266     54.95247     210.8259        18     1.499     0.866 -31.88   0
       470    557.6721    265.1840 307.6977923  +6.5821567      2145.97     3588.045     3442.987     77.65234     155.8636     311.6653      1.737     4.42     823.9484     54.95247     326.7455        20     1.462     0.862 -34.73   0
       471    901.3889    264.3150 307.5550043  +6.5940404     1593.235     2615.596     2234.091     77.77668     155.6776     311.6033      1.738     5.34     824.3138     54.95247     220.5154        17     1.399     1.046 -20.51   0
       472    721.4246    262.7843 307.6298333  +6.5886431     4842.731     7529.278     7711.289     77.90083     155.8016     311.6963      1.665     4.23     824.9433     54.95247      633.395        30     1.545     0.996 -27.22   0
       473    959.2068    262.4018 307.5310442  +6.5967649     634.8273     729.6313     420.2382     77.52779     155.6155     311.5723      1.267     4.03      823.265     54.95247     114.6192         7     1.346     0.345 -44.38   0
       474    662.1121    262.5997 307.6544843  +6.5867298     2085.935     3168.674     3993.233     77.40305     155.4291     311.4171      1.756     4.32     824.5052     54.95247     294.6891        17     1.337     0.812 -30.20   0
       475    377.0143    257.0005 307.7731314  +6.5794615     553.8769     663.6249     1033.458     77.77668     155.6155     311.5413      1.485     3.79     827.6124     54.95247     93.22736         5     1.080     0.382 -34.77   0
       476    917.3455    254.7199 307.5486967  +6.5985359       1125.9     1369.724      1179.62     78.14852     155.9256     311.7893      1.524     5.99     823.7313     54.95247     137.7758        14     1.249     0.809 -30.72   0
       477    220.9380    247.8371 307.8382896  +6.5779882     2111.255     3494.337     3629.616     78.14852     155.9876     311.7583      1.715     4.21     832.9183     54.95247      280.549        23     1.509     0.910 -32.90   0
       478    863.4532    247.0163 307.5713491  +6.5999124     1711.438     2624.867     2697.717     77.65234     155.9876     311.5102      1.561     5.27      824.435     54.95247     253.1813        14     1.391     0.679 -32.70   0
       479    754.0176    246.3284 307.6168448  +6.5965299      1523.74     2527.733     2835.511     77.65234     155.8636     311.6963      1.910     4.44      824.468     54.95247     219.8645        17     1.501     0.728 -36.28   0
       480    243.2102    241.0024 307.8292671  +6.5815605     572.5018     986.8442     949.2899     77.65234     155.6155     311.6343      1.627     5.79     832.1078     54.95247     109.5286         8     1.505     0.627 -46.87   0
       481    455.0068    237.6123 307.7413809  +6.5900895     21583.94     35217.32     38181.48     77.77668     155.7396     311.6653      1.784     4.50     824.5491     54.95247     2865.189        72     2.316     1.155 -39.61   0
       482    316.3394    239.4616 307.7989347  +6.5846600     551.8626     958.9403     1017.644     78.14852     155.9256     311.7893      1.905     4.86     829.3937     54.95247     88.13062         6     0.993     0.673 -72.35   0
       483    780.8313    237.0372 307.6060161  +6.6012646     13030.74     20368.61     22298.49     77.77668     155.6776     311.5723      1.679     4.07     824.2605     54.95247     1794.752        50     1.765     1.061 -27.52   0
       484    719.6655    232.6421 307.6315798  +6.6010287     553.2717     796.6759     1044.468     78.14852     155.8636     311.8203      1.578     4.09     823.8209     54.95247     80.44312         6     0.872     0.547 -44.56   0
       485    142.9121    231.0567 307.8712767  +6.5822850     2220.928     3528.974     3488.779     78.14852     155.8016     311.8823      1.715     4.44      835.022     54.95247     259.8516        21     1.498     0.851 -29.26   0
       486    117.6747    230.1983 307.8817916  +6.5817880     1066.653     1794.472      2018.55     77.65234     155.3669     311.6343      1.809     6.07     836.3812     54.95247     140.0316        13     1.407     0.737 -41.78   0
       487    773.1597    229.7882 307.6094480  +6.6040004     611.5377     1008.851     1568.399     77.52779     155.7396     311.5102      1.840     4.27     823.9565     54.95247     93.59924         6     1.350     0.384  -6.14   0
       488    169.6037    229.2844 307.8602467  +6.5839170     543.2927     904.9456     668.3205     77.65234     155.5534     311.4482      1.601     4.12     833.7122     54.95247     97.28235         6     1.085     0.446 -36.77   0
       489    917.1711    227.6076 307.5496809  +6.6097237     1427.001     2329.458     2318.914     77.77668     155.7396     311.5723      1.743     4.67     823.0106     54.95247     234.2562        16     1.455     0.723 -24.17   0
       490    578.8134    223.6115 307.6904108  +6.6000303     4455.429     7131.718     7749.344     78.02477     155.6155     311.6963      1.738     4.43      822.329     54.95247     546.6295        27     1.504     0.978 -35.08   0
       491    299.0188    224.4012 307.8066408  +6.5902944     1020.032     1669.725     1498.888     77.77668     155.4912     311.4792      1.683     6.42     829.9349     54.95247     130.1829        15     1.392     0.831 -45.78   0
       492    541.3859    223.5626 307.7059641  +6.5987933     2006.261     3116.369     3472.716     77.65234     155.7396     311.5102      1.634     4.22     822.3665     54.95247     258.6632        19     1.326     0.877 -25.60   0
       493    383.5603    222.7067 307.7715710  +6.5938401     1513.306     2558.134     2595.041     78.27208     155.8636     311.8513      1.829     4.57     826.4557     54.95247     210.9066        19     1.489     0.925 -32.95   0
       494    939.6408    220.7887 307.5405734  +6.6132909     2727.543     4030.829     3851.765     77.52779     155.7396     311.4792      1.623     4.25     822.4109     54.95247      365.087        22     1.311     0.957 -27.17   0
       495    885.8512    220.3046 307.5629409  +6.6116906     11000.84     16706.12     17462.61     78.02477     155.8636     311.9752      1.638     4.20     823.0059     54.95247     1444.724        35     1.503     0.979 -34.38   0
       496    561.0610    220.6069 307.6978886  +6.6006745     822.1501     1437.078     1026.449     77.52779     155.7396     311.5102      1.814     5.07     822.2698     54.95247     141.8034        12     1.322     0.791 -46.21   0
       497    313.5555    220.3572 307.8007377  +6.5924536     833.8845      1518.66     1929.607     78.02477     155.9256     311.6343      2.082     4.53     829.1339     54.95247     115.8306        10     1.287     0.612 -50.95   0
       498    205.3852    220.1300 307.8456899  +6.5889028     732.8329     1388.728     1116.314     77.65234     155.8636     311.6653      1.861     6.03     832.7025     54.95247     135.8428        11     1.420     0.785 -41.46   0
       499    972.5574    218.0984 307.5269859  +6.6155028     9595.359     14630.66     15160.01     78.14852     155.8016     311.9752      1.663     4.15     821.8098     54.95247     1334.657        37     1.543     1.029 -30.01   0
       500    683.7774    218.1558 307.6469803  +6.6058058     2758.569     4318.052     4502.201     77.65234     155.8016     311.5723      1.680     4.52     823.1476     54.95247     365.1095        23     1.426     0.931 -33.36   0
       501     11.9952    216.6498 307.9261591  +6.5838137     23805.24     39721.66     42350.91     77.52779     155.7396     311.3861      1.784     4.27     837.8522     54.95247     3014.354        59     1.695     1.175 -33.95   0
       502    258.2224    217.6851 307.8238190  +6.5916929     885.7854     1465.385     1359.618     78.02477     155.6776     311.6963      1.777     5.92     831.3102     54.95247     129.6549        12     1.666     0.592 -31.66   0
       503    492.7528    212.7906 307.7265355  +6.6016063     1932.469     2811.948     2828.323     77.65234     155.8636     311.4171      1.576     4.25     822.5308     54.95247     263.9396        16     1.356     0.754 -26.65   0
       504    824.3792    209.7282 307.5888403  +6.6139986     2058.148     3054.164     3199.635     77.77668     155.8016     311.7273      1.635     4.28     822.8928     54.95247      263.849        19     1.450     0.816 -36.51   0
       505    876.9063    208.5774 307.5670523  +6.6162329     2009.219     3045.624     3797.197     78.14852     155.7396     311.6033      1.653     5.01     822.4122     54.95247      266.396        16     1.483     0.687 -42.00   0
       506    504.6170    208.8237 307.7217398  +6.6036428     2395.667     3688.351     3732.324     77.90083     155.8016     311.6653      1.651     4.46     822.3364     54.95247     299.4028        21     1.428     0.916 -34.33   0
       507    736.0039    206.1937 307.6256819  +6.6124961     38431.92     60425.73     63727.53     77.52779     155.6155     311.6653      1.675     4.19     822.7775     54.95247      5242.73        63     1.641     1.107 -31.51   0
       508    339.0584    205.4904 307.7906440  +6.5994500     5508.569     11681.31     13056.12     78.02477     155.9256     311.8823      2.259     6.63     827.7086     54.95247     576.8115        50     2.109     1.239 -65.81   0
       509    969.8386    205.0089 307.5285556  +6.6208161     2821.016     4188.768      4248.37     77.40305     155.7396     311.4792      1.568     4.47     821.2948     54.95247     399.6259        21     1.417     0.871 -29.67   0
       510    903.9140    203.3493 307.5560055  +6.6192954     7333.036     11340.14     12126.62     78.14852     155.8016     311.8203      1.659     4.48     821.8135     54.95247     1055.696        31     1.515     0.967 -30.43   0
       511   1008.1229    203.5986 307.5126943  +6.6226786     1697.535     2717.952     2816.183     77.40305     155.3669     311.5723      1.693     4.55     820.8702     54.95247     225.4786        16     1.430     0.724 -27.98   0
       512    447.4846    202.3353 307.7456983  +6.6044008     4880.747     7875.412     7686.673     78.27208     156.1115     311.8203      1.747     4.17     823.6125     54.95247     629.2408        29     1.522     1.008 -29.79   0
       513    221.9617    199.4962 307.8395012  +6.5979801     631.7215     1001.521     908.0616     78.14852     155.8016     311.8823      1.844     3.81     832.0099     54.95247     107.3659         6     1.191     0.349 -47.36   0
       514    104.8400    193.5593 307.8883663  +6.5964811     4386.875      7448.91     7822.235     77.90083     156.0495     311.6343      1.802     4.46     835.4346     54.95247     530.4943        30     1.616     0.977 -33.12   0
       515    275.1392    190.2767 307.8177177  +6.6035783     31734.03     52442.84     55116.62     78.39544     155.9876     311.7273      1.773     4.22     830.4442     54.95247     3985.536        63     1.690     1.192 -34.21   0
       516    924.3617    192.8340 307.5478624  +6.6243212     915.1751     1219.356     1549.431     77.90083     155.7396     311.5413      1.464     4.35     821.1091     54.95247     149.5345        10     1.212     0.571 -20.60   0
       517    250.4111    191.3722 307.8279554  +6.6022929     6263.748     10254.69     10265.11     77.77668     155.7396     311.6343      1.778     4.24     831.1458     54.95247     772.7061        35     1.608     1.037 -31.54   0
       518    601.0003    192.2893 307.6822485  +6.6137069     586.9929     1116.821     1740.094     77.40305     155.4291     311.4171      2.086     5.82     821.6967     54.95247     89.16223         8     1.569     0.608 -15.95   0
       519    704.5226    189.3747 307.6393301  +6.6183843     957.0939     1234.514     1164.955     77.77668     155.8636     311.7273      1.478     4.32     822.0446     54.95247     142.6724        10     1.115     0.667 -36.93   0
       520    190.3996    190.4699 307.8529210  +6.6006426     516.5382     697.5182     1162.102     77.65234     155.4291     311.5723      1.344     4.21     832.1261     54.95247      90.2251         5     0.957     0.528 -46.57   0
       521    399.1777    185.7729 307.7663304  +6.6096138     47274.31     76932.57     81105.41     77.65234     155.7396     311.6963      1.727     4.27     824.8201     54.95247     5973.175        69     1.690     1.169 -34.52   0
       522    416.6981    186.3507 307.7590308  +6.6099647     1462.079     2333.946     2243.998     78.14852     155.8636     311.9132      1.652     5.11     824.0468     54.95247     187.1971        15     1.435     0.760 -40.43   0
       523    155.1503    187.0811 307.8676820  +6.6008529     3763.676     6195.798     6599.457     78.14852     155.9876     311.7893      1.740     4.60     832.5703     54.95247     457.8477        26     1.509     0.982 -32.61   0
       524    569.4067    185.3561 307.6956104  +6.6155084     512.2277     995.2772     1190.973     77.65234     155.6776     311.4482      1.891     4.64     821.5583     54.95247     85.84747         6     1.271     0.481 -46.12   0
       525    303.1825    183.4532 307.8062964  +6.6073400     17151.68     28132.08     29230.23     77.65234     155.9876     311.4792      1.765     4.21     829.2775     54.95247      2205.96        48     1.677     1.100 -32.36   2
       526    310.4492    183.6336 307.8032708  +6.6075103     2026.876     3866.338      4764.81     78.02477     155.9256     311.6963      2.219     4.64     828.9367     54.95247     261.2361        23     1.656     0.898 -46.39   3
       527    738.4842    182.0826 307.6254636  +6.6225338     32371.43     49676.31     52065.08     77.90082     156.1733     311.8203      1.675     4.10     821.7715     54.95247     4454.632        57     1.617     1.081 -30.09   0
       528    686.8018    183.8041 307.6468815  +6.6200897     1041.782     1589.237     1774.545     77.52779     155.4912     311.5102      1.486     4.63     821.8372     54.95247     155.8849        11     1.303     0.610 -34.48   0
       529    786.5422    182.7699 307.6054706  +6.6238609     1235.812     1806.922     1664.584     77.90083     155.9256     311.6653      1.690     5.24     821.5862     54.95247     190.7904        13     1.330     0.699 -35.76   0
       530     55.2463    179.1945 307.9094594  +6.6007374     8664.287      14422.9     15268.07     77.52779     155.7396     311.4171      1.773     4.45     837.0457     54.95247     1142.407        39     1.643     1.053 -35.76   0
       531     25.8004    182.5023 307.9215819  +6.5983774     629.4277     954.1601     1675.984     77.65234     155.5533     311.3551      1.976     4.30     838.3671     54.95247     83.43359         6     1.071     0.493   5.19   0
       532     89.2604    177.1586 307.8953957  +6.6027261     1328.242     2171.242     1952.118     78.14852     155.9256     311.8203      1.712     5.30     835.3152     54.95247     210.0138        17     1.523     0.790 -42.08   0
       533    997.2817    176.5392 307.5181086  +6.6334880     1123.004     1537.894     1694.187     78.27208     155.9256     311.7583      1.526     4.41     820.0128     54.95247     176.0159        12     1.336     0.599 -41.43   0
       534    723.0615    170.0976 307.6322762  +6.6269648     628.5459     893.1363     1072.062     77.90083     155.9876     311.8513      1.393     3.94     821.2804     54.95247     102.8943         6     0.975     0.455 -39.19   0
       535    997.8870    162.7183 307.5183215  +6.6392144     1956.288      3239.41     3999.111     77.90083     156.1115     311.8513      1.731     4.28     819.5113     54.95247     262.8931        18     1.335     0.883 -21.77   0
       536    581.0309    160.3492 307.6916241  +6.6262230     944.0927     1398.592     1352.204     78.02477     156.0495     311.6963      1.499     4.82     821.0564     54.95247     132.3786        11     1.124     0.834 -18.54   0
       537    589.0469    158.4248 307.6883581  +6.6272867     1928.005     3150.231     3252.256     77.77668     155.9256     311.6343      1.749     4.08     821.0032     54.95247     306.2906        20     1.443     0.878 -25.83   0
       538    273.9965    156.5398 307.8193344  +6.6174681     28292.44     46987.52     49830.91     77.52779     155.6776     311.4792      1.776     4.38     830.1332     54.95247     3602.357        68     1.785     1.182 -32.30   0
       539    333.8150    158.2098 307.7944221  +6.6187933     993.1005     1545.969      1536.27     77.90082     155.6776     311.6653      1.764     3.53     827.4872     54.95247     157.8111        10     1.030     0.691 -18.39   0
       540     19.2479    155.0832 307.9252348  +6.6094758     4236.558     7226.841     7483.115     78.14852     155.9256     311.7583      1.771     4.50     839.2809     54.95247     533.7604        30     1.578     1.059 -40.84   0
       541    705.7162    153.2937 307.6400502  +6.6333207     7838.221     11910.77      12847.1     77.90083      156.297     311.8823      1.676     4.20     820.6786     54.95247     989.5179        31     1.494     0.974 -32.67   0
       542    183.1230    153.8201 307.8571860  +6.6155280     765.1204     1228.878     1497.044     77.77668     155.6776     311.7273      1.665     4.47     831.2554     54.95247     106.5983         7     0.974     0.636  -0.48   0
       543    259.9122    151.2534 307.8253657  +6.6191760     704.8951     1331.075     1192.638     78.14852     155.8016     311.8823      1.816     6.08     830.4834     54.95247     106.1951        12     1.499     0.694 -39.99   0
       544    116.5325    150.1691 307.8849790  +6.6147889     4560.268     7769.117     8187.134     78.02477     155.9256     311.7273      1.840     4.27     832.9551     54.95247     609.0111        32     1.635     1.012 -33.18   0
       545    644.3205    147.2905 307.6657653  +6.6337392     809.0691     1306.322     1283.692     77.90083     156.1115     311.8203      1.855     5.57     820.6138     54.95247      122.882        11     1.345     0.651 -36.23   0
       546    455.3834    147.2645 307.7442769  +6.6274027     1233.375     1955.764     1808.395     77.65234     155.8636     311.6343      1.721     5.57     821.5499     54.95247     159.2577        17     1.410     0.896 -35.49   0
       547    387.0597    146.2289 307.7727026  +6.6255318     3603.992     6709.993     7057.966     77.77668     155.9256     311.7273      1.956     4.33     824.4105     54.95247     414.2471        35     1.541     1.328 -57.68   0
       548    351.5049    145.2483 307.7875099  +6.6247400     3183.756     5092.519     4953.716     78.02477     155.8016     311.9132      1.730     4.30     826.5767     54.95247     422.1043        27     1.615     0.914 -36.31   0
       549    563.5335    145.1645 307.6994074  +6.6319044      686.369     999.3164     896.3264     78.02477     155.9876     311.8203      1.680     5.67     820.6157     54.95247     108.4604        10     1.403     0.646 -42.54   0
       550    105.8608    145.0232 307.8895877  +6.6165532     1617.526      2661.94     2891.514     77.77668     155.8636     311.6653      1.702     4.31     833.2726     54.95247     273.7324        17     1.447     0.835 -31.42   0
       551    741.9836    143.7290 307.6253017  +6.6384858     635.9459     1003.325     882.9761     77.65234     155.8636     311.6653      1.721     4.28     820.3232     54.95247      115.587         9     1.218     0.709 -18.57   0
       552    667.5556    142.9231 307.6562573  +6.6363221      786.702      1146.81     1094.647     78.02477     155.9876     311.7893      1.365     4.62     820.4081     54.95247     109.6111         8     1.034     0.587 -44.70   0
       553    998.5367    139.3851 307.5188357  +6.6488696     1482.165     2173.438     2046.798     77.65234     155.8016     311.6033      1.583     3.61     818.0526     54.95247      209.518        12     1.157     0.684 -37.70   0
       554    725.0261    139.5139 307.6324904  +6.6396574     525.8123     616.4086     604.1486     78.27207     155.6776     311.6343      1.418     4.12     820.2616     54.95247     91.85345         5     0.764     0.635 -85.74   0
       555    203.4511    134.0552 307.8494089  +6.6243732     5227.824     8519.718     9133.947     78.14852     155.9256     311.7893      1.767     4.35     831.1266     54.95247     677.1051        32     1.622     0.996 -34.86   0
       556     86.2617    133.7264 307.8981145  +6.6205555     2088.228     3456.868     4476.112     78.27208     155.9256     311.7893      1.974     4.93     834.1866     54.95247     271.9661        24     1.527     0.990 -36.69   0
       557    813.0316    133.0078 307.5961386  +6.6452934      966.901     1592.174     2020.968     77.65234     155.7396     311.5413      1.974     5.70      819.206     54.95247     152.1287        13     1.499     0.611 -34.22   0
       558    665.2361    133.0104 307.6575554  +6.6403368     5999.365     9210.618     9383.147     77.65234     155.7396     311.5413      1.606     3.82     820.1112     54.95247     822.1965        29     1.482     0.939 -27.75   0
       559    617.4333    130.2529 307.6775128  +6.6398708      9185.87     14366.89     15771.06     78.02477     155.8636     311.6963      1.726     3.98     820.2636     54.95247     1268.264        39     1.572     1.031 -35.49   3
       560    620.9685    121.7647 307.6763301  +6.6434939     51819.65     81577.38        86352     77.77668     155.6776     311.5102      1.677     4.19     820.0323     54.95247     6824.464        70     1.648     1.150 -32.49   2
       561    252.6195    131.2726 307.8290724  +6.6271793      674.288     1048.243     993.1478     77.77668     155.8636     311.6963      1.607     5.73     830.6697     54.95247     110.7711         7     1.553     0.595  21.62   0
       562     16.3355    129.0414 307.9273286  +6.6201285     946.9107     1567.469     1389.875     78.14852     155.8636     311.8203      1.813     5.87     839.6682     54.95247     120.1373        12     1.429     0.680 -48.97   0
       563    344.5361    125.9555 307.7910582  +6.6324704     3670.188     6079.822      6683.23     78.14852     155.8636     311.7583      1.842     4.41     826.9741     54.95247     438.2173        30     1.684     0.967 -40.92   0
       564    526.4149    125.1752 307.7155066  +6.6389100     1695.104     2718.531     3083.166     77.90083     155.7396     311.6963      1.737     4.07     820.0607     54.95247     241.9336        18     1.367     0.826 -33.60   0
       565    990.7158    124.9729 307.5225702  +6.6545584     753.7151     1026.818      1015.12     78.27207     155.6776     311.6343      1.455     5.23     817.2056     54.95247     113.7162        10     1.219     0.633 -37.09   0
       566    300.0591    115.5201 307.8098930  +6.6352809     3479.147     5686.241      6609.26     78.27207     155.9256     311.7273      1.785     4.44     829.5999     54.95247     444.4656        25     1.501     0.971 -37.42   0
       567    494.8749    113.1742 307.7290182  +6.6428046     433.0895     806.0955     469.0529     77.77668     155.7396     311.7273      2.103     5.29     819.8892     54.95247     75.63599         5     1.218     0.650 -21.31   0
       568    699.8448    110.0482 307.6439477  +6.6509780      766.569     1030.809     616.4196     78.14852     155.8016     311.7273      1.461     4.84     819.3399     54.95247     108.2481         8     1.042     0.637 -25.73   0
       569      2.3743     97.6795 307.9341941  +6.6326042     49009.09     84426.35     104225.6     77.52779     138.2533     250.8145      2.208     5.39     841.1762     54.95247     13126.83       228     3.681     2.022 -87.17  24
       570    671.3716    108.7550 307.6558236  +6.6505567     1248.094     1932.117     1809.671     77.77668     155.9876     311.6653      1.732     5.10     819.3279     54.95247      205.181        12     1.364     0.610 -42.21   0
       571    685.4032    105.6591 307.6500970  +6.6523056     3088.884     4888.947     5010.556     77.52779     155.7396     311.5102      1.662     4.18     819.2169     54.95247     433.3808        24     1.503     0.902 -31.83   0
       572    427.1385     96.6984 307.7577227  +6.6473290     4030.774      6437.64      6194.06     77.90083     155.9876     311.8513      1.666     4.21     820.9532     54.95247     535.8323        31     1.527     1.026 -37.82   0
       573    881.6319     92.9405 307.5689793  +6.6641332     2143.724      3280.27     3394.176     77.90082     155.9876     311.7273      1.637     4.93     817.1804     54.95247     302.7084        16     1.276     0.845 -36.83   0
       574    899.6769     92.2069 307.5615050  +6.6650402     3847.251     6072.335     6413.122     77.77668     155.4291     311.5723      1.670     4.33     816.6381     54.95247     503.7977        24     1.542     0.846 -28.70   0
       575    579.9720     92.6016 307.6943504  +6.6541574     814.4851      1178.12     1344.686     77.65234     155.6776     311.5413      1.719     4.96     819.1617     54.95247     136.0691         9     1.249     0.558 -45.42   0
       576    591.9226     90.6628 307.6894497  +6.6553592     1611.358     2582.582     2725.479     78.39543     155.9876     311.7273      1.655     4.81     819.1451     54.95247     196.5359        16     1.369     0.780 -29.08   0
       577    390.4400     88.4856 307.7732504  +6.6494849     1783.189     2762.539     2674.907     78.14852     155.8636     311.7583      1.740     4.52     823.3716     54.95247     230.2599        18     1.412     0.836 -41.16   0
       578    237.4413     89.7745 307.8367846  +6.6438001     786.6102     1335.295     1847.926     77.77668     155.8016     311.5413      2.167     4.92     830.8574     54.95247     107.2258         9     1.400     0.490 -38.72   0
       579    138.5309     85.4558 307.8780319  +6.6422476     3117.109     5036.534     5019.064     78.27208     155.8016     311.7273      1.735     4.43     830.9163     54.95247     389.5552        24     1.494     0.941 -39.22   0
       580     20.2826     83.1872 307.9272446  +6.6391921     11409.28     18932.02      20243.8     77.77668     155.6776     311.6033      1.770     4.38     838.0948     54.95247     1475.019        44     1.621     1.118 -35.09   0
       581    286.9658     83.8112 307.8164070  +6.6479308      1193.74     1801.299     1837.588     77.65234     155.7396     311.5723      1.598     5.79      830.562     54.95247     161.2443        13     1.233     0.765 -43.64   0
       582    559.8361     83.2277 307.7030345  +6.6573511     599.0561     749.2122     250.0205     77.77668     155.6776     311.5723      1.268     4.23     818.7483     54.95247     107.6622         7     1.137     0.448 -30.88   0
       583    547.5404     82.8738 307.7081561  +6.6570842      885.728     1072.597     945.4142     78.27207     155.9256     311.7583      1.384     3.86     818.7144     54.95247     139.4928         9     0.955     0.636 -17.60   0
       584    941.5082     81.8088 307.5444707  +6.6707331     530.0628     805.8462     1149.579     77.77668     155.6155     311.5102      1.719     4.79     815.2108     54.95247     75.69037         6     1.188     0.548 -42.47   0
       585    755.4169     81.9351 307.6218013  +6.6644483       559.72     991.4084     1078.151     77.65234     155.8016     311.6343      1.552     4.96     818.0874     54.95247     98.77081         8     1.378     0.505 -24.00   0
       586    412.2097     79.0699 307.7645223  +6.6541047     995.2112     1674.013     1383.934     77.65234     155.6776     311.6033      1.839     5.99     821.2768     54.95247     146.8546        16     1.581     0.815 -34.97   0
       587    822.0117     77.9474 307.5942606  +6.6683265     6046.977     9350.361     9890.654     77.52779     155.8636     311.4792      1.591     4.07     816.9183     54.95247     820.6507        28     1.473     0.925 -29.52   0
       588    767.1696     78.1080 307.6170461  +6.6664223     3245.788      5078.03     5422.484     78.27207     155.7396     311.7273      1.647     4.19     817.6754     54.95247     417.0118        25     1.520     0.978 -38.49   0
       589    529.5526     76.3889 307.7158501  +6.6591571     1070.408     1725.836     1813.373     77.65234     155.8016     311.4482      1.679     5.37     818.5872     54.95247     172.3718        12     1.309     0.705 -31.89   0
       590     60.5582     75.0703 307.9107843  +6.6439034     3077.429     4924.826     4860.802     78.02477     155.9256     311.8203      1.723     4.27     834.0858     54.95247     402.8016        26     1.589     0.910 -37.31   0
       591     44.9087     76.2953 307.9172456  +6.6428692      862.652     1520.106      1078.99     78.14852     156.4206     311.7273      1.807     6.16     835.4177     54.95247     123.8971        12     1.521     0.701 -21.09   0
       592    421.9236     74.6866 307.7606338  +6.6562411     1083.141     1527.755     1811.757     78.14852     156.2352     311.8203      1.617     5.53     820.5816     54.95247     129.0255        13     1.244     0.784 -23.66   0
       593    584.1997     71.6446 307.6933008  +6.6629516     1342.375     1802.142     1693.312     77.40305     155.6155     311.3861      1.544     4.57     818.4144     54.95247     183.7689        15     1.404     0.759 -21.67   0
       594      2.9309     70.4707 307.9348863  +6.6438558     2378.445     3641.377     4033.341     78.14852     144.8078     258.9655      1.644     4.59     838.0413     54.95247     288.0698        19     1.363     0.906 -29.01  24
       595    761.8102     65.7812 307.6196886  +6.6713319     1818.305      2880.24      3538.65     77.77668     155.6155     311.6343      1.702     4.72     817.2549     54.95247     287.6624        17     1.371     0.814 -26.08   0
       596    402.4575     65.8661 307.7690213  +6.6592277     1053.884      1474.65     1383.104     78.27207     155.8636     311.7583      1.514     5.26     822.0011     54.95247     130.4929        11     1.152     0.677 -39.42   0
       597     75.8637     65.9691 307.9047331  +6.6481774     661.2126     899.9259     709.6327     77.90083     155.9876     311.7273      1.502     5.03     832.3428     54.95247     119.9452         7     1.279     0.559 -40.20   0
       598     99.7321     64.4122 307.8948677  +6.6496259     885.7182     1287.531     1169.913     77.65234     155.8016     311.6653      1.626     5.33     830.6981     54.95247     109.2882        11     1.328     0.615 -36.36   0
       599     88.2884     59.3734 307.8997939  +6.6513198     8998.877     14834.23     14803.31     78.27208     155.6776     311.6343      1.776     4.29     831.0911     54.95247      1145.88        40     1.587     1.104 -36.23   0
       600    417.4723     59.0668 307.7630116  +6.6625400     2514.305     3786.091     3592.949     78.14852     156.0495     311.7583      1.624     4.00     820.3831     54.95247     294.6607        22     1.380     0.875 -37.28   0
       601    631.0959     51.4735 307.6744927  +6.6728540     17843.99     28313.54     30137.34     77.90082     156.0495     311.7583      1.712     4.23     817.4921     54.95247     2510.622        47     1.599     1.090 -31.79   0
       602    255.2181     53.3802 307.8306299  +6.6594244      1310.29     2130.681     2963.707     77.90083     155.8016     311.6963      1.983     5.32     830.8674     54.95247      189.492        15     1.391     0.754 -40.67   0
       603    660.3029     52.9660 307.6623047  +6.6732181     454.4146     686.5853     368.9615     78.14852     155.8016     311.8823      1.466     3.88     817.4937     54.95247     73.50427         5     1.318     0.326 -26.26   0
       604    530.8384     47.5934 307.7162881  +6.6710886     4889.856     7981.962      8069.28     77.40305     155.6155     311.5102      1.713     4.21     817.7588     54.95247     645.0453        35     1.528     1.115 -38.84   0
       605    249.0083     47.8426 307.8333979  +6.6615013     1776.434     3143.468     4301.089     77.65234     155.7396     311.5102      1.821     4.84     830.8961     54.95247     227.0468        20     1.578     0.832 -28.49   1
       606    436.4381     43.0896 307.7556702  +6.6697742     21881.43     34848.35     36646.87     78.14852     155.8636     311.7893      1.724     3.99     819.3461     54.95247     2877.243        57     1.634     1.175 -37.43   0
       607    618.8594     45.3821 307.6797835  +6.6749580     938.7307     1494.242     1789.516     77.77668     155.8016     311.5102      1.839     4.34     817.2769     54.95247     134.7324        10     1.062     0.805 -18.69   3
       608    617.3011     41.2149 307.6805717  +6.6766262     3228.987     5122.448     5677.062     78.14852     155.6776     311.5102      1.688     4.22     817.1164     54.95247      452.326        25     1.475     0.979 -39.78   2
       609    317.0491     43.8084 307.8052596  +6.6654591     909.1589     1346.283     1287.601     77.65234     155.7396     311.4482      1.589     5.94     829.1578     54.95247     120.1119        13     1.352     0.813 -56.56   0
       610    257.0156     43.5159 307.8302170  +6.6635573     8901.006     14351.01     15787.51     77.77668     155.6776     311.6653      1.773     4.19      830.897     54.95247     1118.903        38     1.568     1.081 -32.88   0
       611    914.3453     43.1893 307.5570581  +6.6857686     1979.488     2759.014     2461.371     77.52779     155.8636     311.4482      1.529     4.18      814.272     54.95247     259.2544        17     1.223     0.905 -26.75   0
       612    549.5532     43.1885 307.7086595  +6.6735360     775.7562     973.0601     424.1511     77.65234     155.7396     311.4792      1.413     4.78     817.5533     54.95247     115.5249         8     1.246     0.520 -40.48   0
       613     22.3027     43.0892 307.9277660  +6.6558143      2253.72     3576.024     3732.779     78.14852     156.3589     311.7583      1.708     4.62     833.9169     54.95247     313.7933        20     1.431     0.863 -38.86   0
       614    521.9884     43.1480 307.7201160  +6.6726264      578.487     820.5235     635.1037     77.52779     155.8636     311.4792      1.415     3.89     817.6306     54.95247     86.38385         6     0.924     0.470 -32.37   0
       615    244.9414     40.1388 307.8353488  +6.6645447     2862.464     4635.297     5403.968     78.14852     155.8636     311.7893      1.687     4.28     830.9223     54.95247     352.9734        23     1.431     0.934 -37.94   0
       616    298.2239     38.3440 307.8132676  +6.6670809     970.5247       1519.8     1453.783     77.77668     155.9256     311.5723      1.724     5.06      830.356     54.95247     140.3542        13     1.367     0.718 -39.48   0
       617     90.2133     33.8156 307.8998608  +6.6619360      558.472     911.0715     1090.144     77.90082     155.6155     311.6963      1.632     3.82        829.6     54.95247     76.37152         5     0.984     0.425 -44.37   0
       618    934.8892     33.2132 307.5488558  +6.6905749     801.5502     1236.713      873.045     77.90082     155.6776     311.6343      1.547     4.18     813.3645     54.95247     130.0169         7     1.155     0.432 -31.07   0
       619    686.4136     32.6352 307.6521392  +6.6824879     1777.755      2662.49     2909.224     77.65234     155.7396     311.6033      1.680     4.05     816.7892     54.95247     262.7542        18     1.393     0.861 -31.74   0
       620    197.0233     28.4437 307.8556577  +6.6677575     675.6544     1061.102      864.904     77.65234     155.8016     311.5723      1.777     4.61     830.1245     54.95247     100.2875         8     0.999     0.603 -42.15   0
       621    251.0066     28.6386 307.8332178  +6.6694969     565.6357      962.478     1423.437     77.40305     155.6155     311.4792      1.713     4.14     830.9514     54.95247     96.20557         5     0.923     0.728  33.93   2
       622    174.5289     25.5516 307.8651034  +6.6681928     10457.04      16715.3     17680.76     78.14852     155.8636     311.7893      1.761     4.19     829.4464     54.95247     1262.993        38     1.583     1.069 -37.34   0
       623    920.1471     23.3874 307.5553130  +6.6941382     3890.802     5979.285     6223.219     77.52779     155.8636     311.4792      1.610     4.28     813.4293     54.95247     554.3668        24     1.458     0.889 -39.04   0
       624    518.7693     23.8707 307.7221049  +6.6804769     2813.956     4524.147     4586.473     78.02477     155.9256     311.7273      1.715     4.18     817.0567     54.95247     379.1416        25     1.432     0.998 -30.81   0
       625    721.1963     21.8694 307.6380469  +6.6880993     1712.419     2736.488     3037.575     77.52779     155.5533     311.5413      1.704     6.02     816.4206     54.95247     239.2297        18     1.491     0.828 -38.41   0
       626    456.9781     22.3044 307.7478368  +6.6790462       1691.3     2739.327     2958.655     78.02477     155.7396     311.6033      1.663     4.37      817.966     54.95247     239.9616        19     1.419     0.906 -33.44   0
       627    984.9235     19.4440 307.5285246  +6.6979335     2021.398     3156.209      3356.57     78.02477     155.9876     311.7893      1.728     4.03     809.1057     54.95247     266.8149        18     1.332     0.833 -38.91   0
       628    435.5673   1020.6837 307.7230150  +6.2661381     956.0306     1387.841     1464.608     78.14852     155.2424     277.3091      1.477     5.88     853.3796     54.95247     142.3558        11     1.323     0.736 -42.18  16
       629    727.9106   1018.8954 307.6016798  +6.2766882     1000.365     1644.225     1667.966     78.14852      156.297     296.8003      1.699     3.83     851.7253     54.95247     163.2664        11     1.195     0.757 -35.38  16
       630    358.7141   1017.4108 307.7550380  +6.2649054     1925.826     3145.016     3561.294     77.77668     155.6776      308.079      1.839     5.21     853.2943     54.95247     232.5972        21     1.583     0.853 -18.70  16
       631    541.1240   1007.6207 307.6796235  +6.2750773      4040.58     7012.111     7571.977     77.77668     155.6776     311.6963      1.871     4.53     852.3764     54.95247     573.6129        32     1.656     1.032 -37.91   0
       632    380.7332     13.2748 307.7798276  +6.6802089     726.4578     1034.119     1411.172     78.27208     156.0495     311.7273      1.873     4.23     823.8013     54.95247     98.00861         7     1.120     0.457 -32.18   0
       633    511.6404   1008.7327 307.6918291  +6.2736281     1047.223     1762.907     1625.408     78.02477     155.8636     311.8203      1.767     5.41      852.931     54.95247     144.1697        12     1.321     0.642 -52.06   0
       634    745.6928   1007.0062 307.5946957  +6.2821928     7406.847     12469.58     13418.97     77.77668     155.6155     311.5723      1.799     4.21      850.987     54.95247     911.1903        38     1.649     1.095 -34.95   0
       635    584.8314   1009.1700 307.6614217  +6.2759049     508.7133     766.8787     1030.688     77.65234     155.6776     311.5102      1.452     3.74     852.0326     54.95247      91.0921         5     0.938     0.429 -45.04   0
       636    291.4108   1006.2068 307.7833634  +6.2672665     14263.71     23600.04     25767.54     77.77668     155.7396     311.6653      1.831     4.34     853.1835     54.95247     1950.419        56     1.919     1.124 -36.88   0
       637    806.7400   1006.4971 307.5693622  +6.2844480      1048.09     1534.282     1665.685     77.90083     155.9256     311.8513      1.675     6.28      849.106     54.95247     119.8773        15     1.210     0.964 -12.93   0
       638    416.0186   1006.6276 307.7316069  +6.2712842     956.5215     1472.669     1284.986     77.77667     155.7396     311.6653      1.565     5.73     853.0775     54.95247      151.709        14     1.328     0.857 -41.43   0
       639    117.4926   1006.5291 307.8555691  +6.2612748     533.2105     822.6839     1331.603     78.02477     156.0495     311.7893      1.881     3.80     851.3351     54.95247       75.164         6     1.048     0.394 -18.36   0
       640    262.7522   1003.7096 307.7953480  +6.2673327     958.3046     1310.205     1047.373     78.14852     155.8016     311.9132      1.547     5.10     853.2469     54.95247     149.8694        13     1.293     0.730 -26.53   0
       641    907.0931   1000.4779 307.5278912  +6.2902922     7645.822     13506.02     14201.73     77.90082     156.1115     311.7893      1.887     4.22     847.7545     54.95247     898.0792        41     1.642     1.216 -26.49   0
       642    538.3782    999.7770 307.6810281  +6.2782235     8001.834     12976.99      14041.5     77.90083     155.7396     311.7273      1.765     4.13     852.3374     54.95247     1052.987        36     1.578     1.043 -30.51   0
       643    880.6768    996.7473 307.5389864  +6.2909485     11050.49     19613.21     21141.18     78.27208     155.9256     311.7583      1.934     4.36     847.6143     54.95247      1242.65        56     1.807     1.262 -27.46   0
       644   1002.3697    996.1229 307.4884717  +6.2952763     4000.874     7376.801     7769.673     78.02477     155.9876     311.7583      1.913     4.53     844.6031     54.95247     455.6919        35     1.642     1.170 -27.89   0
