#   1 NUMBER                 Running object number                                     
#   2 X_IMAGE                Object position along x                                    [pixel]
#   3 Y_IMAGE                Object position along y                                    [pixel]
#   4 ALPHA_J2000            Right ascension of barycenter (J2000)                      [deg]
#   5 DELTA_J2000            Declination of barycenter (J2000)                          [deg]
#   6 FLUX_APER              Flux vector within fixed circular aperture(s)              [count]
#   9 FLUXERR_APER           RMS error vector for aperture flux(es)                     [count]
#  12 FLUX_RADIUS            Fraction-of-light radii                                    [pixel]
#  13 FWHM_IMAGE             FWHM assuming a gaussian core                              [pixel]
#  14 BACKGROUND             Background at centroid position                            [count]
#  15 THRESHOLD              Detection threshold above background                       [count]
#  16 FLUX_MAX               Peak flux above background                                 [count]
#  17 ISOAREA_IMAGE          Isophotal area above Analysis threshold                    [pixel**2]
#  18 A_IMAGE                Profile RMS along major axis                               [pixel]
#  19 B_IMAGE                Profile RMS along minor axis                               [pixel]
#  20 THETA_IMAGE            Position angle (CCW/x)                                     [deg]
#  21 FLAGS                  Extraction flags                                          
         1    156.6892     20.5067 307.8657861  +6.6675453     3305.702      11628.5     16748.29     94.35655     188.7877     376.4919      3.276     8.54     1268.206     66.34963     425.4169        78     2.474     2.119 -41.87   0
         2    499.1282     20.8855 307.7230325  +6.6787443     800.6172     1808.633      3758.02     94.50573     188.5637     376.4545      3.752     4.39      1242.43     66.34963     129.8674         7     1.119     0.499 -52.96   0
         3    899.9766     18.6768 307.5560105  +6.6928960     1483.552     4103.026     6539.531     93.90759      188.115     376.3797      3.262    11.00     1229.865     66.34963     200.7119        25     1.936     1.741  -8.15   2
         4    966.3146     11.6551 307.5285930  +6.6979802     764.6604     2181.805     3201.268     94.35655     188.2647     376.6042      3.075     4.42     1225.591     66.34963     129.4135         5     0.820     0.678 -15.36   3
         5    965.5088     15.8625 307.5287871  +6.6962169     835.3007     1607.247     3263.075     94.35655     188.4143     376.5293      3.392     7.09     1225.954     66.34963     94.75085        11     1.498     0.939  -6.28   2
         6    686.3005     12.1055 307.6453062  +6.6885579     2391.374     5897.562     7754.625     94.35655     188.8623     376.2299      2.598     8.86     1235.799     66.34963     236.8987        41     2.309     1.332 -25.44  19
         7    685.3745      8.5925 307.6458109  +6.6899774      1832.12     4107.224      5554.35     93.75745      188.115     376.2299      2.618     6.04     1235.776     66.34963     197.7212        20     1.682     1.010 -18.65  19
         8    608.0079      9.6639 307.6780256  +6.6869783     1087.614     3367.277     5145.113     93.75745     187.9651     376.2299      3.341     8.03     1236.854     66.34963     148.1659        16     1.816     0.994 -77.75  18
         9    407.3285      7.5091 307.7617519  +6.6812258     1913.192     5263.847     7428.386     94.20714      188.489       371.52      3.071    11.95     1253.469     66.34963     213.6204        54     2.568     1.994  -8.90  18
        10    406.2455      3.9917 307.7623226  +6.6826418     1348.315     2380.688     3213.946     93.75745     185.5513     329.6929      1.829     5.82     1253.915     66.34963     174.5917        12     1.270     0.750 -87.52  19
        11      7.8120      6.3803 307.9283214  +6.6684267      2582.64     9085.848     12807.27     93.90759     187.8902     358.3961      3.148     8.45     1273.924     66.34963     354.6024        67     2.430     1.938 -44.87  24
        12    303.0794      2.8584 307.8053651  +6.6796895     3940.477     10058.24     12079.46     94.50573     173.8715     311.5919      2.538     9.81     1264.399     66.34963     423.2634        49     2.435     1.331 -11.05  24
        13     77.6371      3.1990 307.8993251  +6.6720623     817.8972     2009.448     2874.326     93.30561     177.8764     317.1485      2.836     7.73     1269.304     66.34963     102.2286        15     2.085     0.802 -31.82  24
        14    370.2324      1.7770 307.7774096  +6.6823625     647.1135      1094.94     832.6658     87.70207     157.2808     291.6487      1.529     3.80      1256.63     66.34963     91.69128         5     0.934     0.444 -44.79  24
        15    507.4237    989.4807 307.6868057  +6.2791889      1954.36     5321.649     6545.407     93.90759     187.8902     376.3797      2.727     8.12     1302.106     66.34963      211.011        40     2.038     1.494 -36.58   0
        16    695.8657   1023.7897 307.6071565  +6.2712521     1396.677     2120.736     2903.133     79.97264     147.4814     280.7209      1.546     4.57     1299.773     66.34963     377.1179        11     1.532     0.406   1.45  24
        17    552.1135   1023.6046 307.6670382  +6.2665803     1268.478     2175.845     2286.234     82.57265     150.6005     284.1624      1.780     5.31     1303.474     66.34963     247.1409        13     1.671     0.477  -3.82  24
        18    574.3618    990.0236 307.6589059  +6.2811778     652.8981     1370.746     2037.545     93.90759     187.9651      376.155      3.088     4.20     1300.607     66.34963     95.67542         5     0.803     0.626   3.42   0
        19    461.0103    985.6636 307.7062670  +6.2792294     990.0059     2482.458     3341.638     93.75745     188.0401     376.2299      2.739    10.31      1301.89     66.34963     128.5624        19     1.814     1.634 -73.38   0
        20    894.7709    977.8943 307.5258527  +6.2967567     28759.52     61248.71     68758.12     94.50573     187.9651     376.3048      2.246     5.16     1295.985     66.34963     3107.888        81     2.040     1.532 -35.07   0
        21    203.6145    976.2299 307.8137960  +6.2745966     870.3016     2171.642     2967.181     93.90759     187.9651     376.3422      3.014     8.08      1300.58     66.34963     99.13489        18     2.030     0.900   4.09   0
        22    792.6570    971.6756 307.5685973  +6.2959582     1257.455     3190.072     3627.699     94.35655     188.1898     376.3422      2.463     9.29     1296.207     66.34963     153.7834        25     1.826     1.318 -44.69   0
        23    740.9918    969.6758 307.5901855  +6.2950796     3683.533     8987.235     10570.03     93.90759     187.6651     376.1925      2.473     6.45     1297.399     66.34963     402.4714        48     2.018     1.518 -39.89   0
        24     35.5204    967.8243 307.8840933  +6.2724859     1223.724     3230.111     3758.378     93.90759     188.0401     376.4171      2.586     9.38     1299.851     66.34963     139.2942        24     1.830     1.342 -36.69   0
        25    210.9042    967.5963 307.8110525  +6.2784022     741.2231     1482.794     1669.995     94.05748     187.8902     376.0427      2.279     5.04     1300.494     66.34963     97.78687         7     0.970     0.740 -44.92   0
        26    929.0804    964.5330 307.5120110  +6.3034024     4671.018     9897.043     10122.87     94.50573     188.5637     376.4171      2.207     5.33     1295.307     66.34963     494.4019        45     1.895     1.367 -40.79   0
        27    902.5839    956.2554 307.5233269  +6.3059468     1228.961     2636.729     2585.221     93.60709     188.1898     376.0801      2.263     6.07     1294.955     66.34963     221.8088        20     1.682     1.039 -37.10   0
        28    623.4099    952.5721 307.6397406  +6.2982583     2427.496     6068.338     6716.165     93.90759     188.0401     376.2674      2.482     6.57     1298.173     66.34963     311.6682        44     1.901     1.598 -36.23   0
        29    236.1739    953.0412 307.8010207  +6.2852484     2114.316     5727.919     6462.793     93.90759      188.115     376.2299      2.581     6.98     1300.482     66.34963     237.7648        43     1.903     1.606 -24.31   0
        30    762.3874    953.4362 307.5818209  +6.3024892     730.2072      1605.35     1763.539     93.75746     188.0401     376.0801      1.829     4.10     1296.209     66.34963     114.2701         7     1.593     0.301 -14.58   0
        31      5.0945    949.4709 307.8973892  +6.2790507     887.5129     2073.723     2375.378     94.20713     188.3395     345.8337      2.546     6.65     1299.347     66.34963     103.0793        11     1.462     0.849  69.91  18
        32    547.4005    944.6153 307.6716705  +6.2990311     834.7197     1768.499     2021.723     93.90759     187.8902     376.1176      1.821     3.82     1299.584     66.34963     146.6039         5     1.186     0.352 -38.15   0
        33    979.1879    943.4821 307.4918470  +6.3137421     698.7815     1323.625     832.1078     93.90759     187.9651     376.2299      2.186     4.64     1293.712     66.34963     97.99841         6     0.921     0.664  82.60   0
        34    586.2988    943.0487 307.6555206  +6.3009634     609.2137     1329.484     1507.344     94.35655     188.1898     376.6416      1.786     5.60     1298.649     66.34963     96.99304         6     1.339     0.659  43.79   0
        35    269.2345    938.7376 307.7877350  +6.2922489     526.2735     884.7735     1547.003     94.20714     188.3395     376.3797      1.616     3.76     1300.622     66.34963     103.2185         5     1.301     0.312 -31.49   0
        36    871.6655    931.5284 307.5370390  +6.3151356     4352.011     9806.642     10846.99     94.35655     188.3395     376.4919      2.272     5.68     1294.013     66.34963     476.5754        45     1.909     1.422 -34.59   0
        37    309.6664    927.5307 307.7712736  +6.2982151     4382.648     12048.32     14892.09     94.35655     188.3395     376.4171      2.737     6.74     1300.558     66.34963     467.9071        64     2.167     1.790 -27.34   0
        38    405.9271    929.6340 307.7311064  +6.3005351     1018.253     2398.153     3685.815     94.20713     188.1898     376.3797      3.159     6.19       1300.1     66.34963     138.6631        10     1.062     1.015  79.89   2
        39    229.6270    926.5760 307.8046448  +6.2959558     2913.547     8767.872     10731.05     93.75745      188.115     376.2299      2.758     7.05     1300.155     66.34963     355.0446        56     2.085     1.747 -33.67   0
        40    723.2959    910.1281 307.5995654  +6.3190771     971.3055     2157.758     2835.393     94.20714     188.4143     376.4171      2.720     7.70     1294.429     66.34963     115.6903        16     1.725     0.962  50.28   0
        41    955.1498    904.8464 307.5031607  +6.3288998     825.9222     1812.789     2467.205     94.35655      188.115     376.4919      2.395     6.15     1291.586     66.34963      123.134        11     1.373     0.972  10.81   0
        42    642.0530    902.6331 307.6336610  +6.3194889     1156.108     2620.785     2780.689     94.20713     188.1898     376.3422      2.352     8.22     1295.822     66.34963     138.9845        19     1.640     1.151 -69.17   0
        43     39.4985    899.9687 307.8847411  +6.3006276     1154.268     3211.795      3475.51     94.35655     188.0401     376.5667      2.644    10.24     1297.726     66.34963     158.6393        25     1.942     1.505 -44.71   0
        44    183.1270    898.4944 307.8249657  +6.3060051     1119.889     2842.021     3263.245     94.20713     188.3395     376.4171      2.446     8.53     1299.385     66.34963      138.446        19     1.669     1.324  12.13   0
        45     57.8806    899.5989 307.8770970  +6.3013909     1004.797     2031.866     2247.522     93.45647     187.6651      376.155      2.183     6.48     1297.836     66.34963     123.4426        11     1.222     0.964 -52.24   0
        46    637.1132    892.4949 307.6360611  +6.3235108     3207.727     8738.263     10260.19     94.35655     188.7131     376.4919      2.640     7.20      1295.14     66.34963     329.9885        55     2.083     1.798 -34.91   0
        47    874.6558    888.6469 307.5372379  +6.3329359     1445.237     3768.766     3828.056     94.35655     188.2647     376.4919      2.490     7.65     1291.166     66.34963     190.3422        31     1.874     1.288 -30.98   0
        48    320.2886    885.7783 307.7682633  +6.3158021     6822.611     19745.69     25238.55     94.35655     188.0401     376.3048      2.844     6.84     1299.661     66.34963     664.6205        78     2.264     1.897 -31.09   0
        49     81.8661    875.3057 307.8679313  +6.3122155     1685.095     2489.675     3397.898     94.35655     188.4143     376.4171      1.323     5.64     1297.251     66.34963     1058.543        10     1.362     0.657  13.38   0
        50    864.8719    870.2637 307.5419330  +6.3402021     1197.807     2577.338     2614.321     94.35655     188.2647     376.4545      2.290     8.21     1289.917     66.34963     150.7952        21     1.882     1.037 -34.02   0
        51     67.5046    870.0153 307.8740930  +6.3139223      1124.84     3073.534      3722.95     94.05748     187.9651     376.1925      2.763     8.82     1296.941     66.34963     118.7218        23     1.804     1.202  70.81   0
        52    799.5858    868.6906 307.5691829  +6.3386993     1527.331     3764.252     4595.202     94.05748     188.0401     376.2299      2.604     8.17     1290.242     66.34963     192.8544        29     1.983     1.243 -23.65   0
        53    835.3624    868.5905 307.5542825  +6.3399202     947.8744     1904.748      2806.34     93.45647     188.0401     376.0801      3.160     5.35     1290.031     66.34963     106.4486        10     0.984     0.821 -48.95   0
        54    535.2244    860.9014 307.6795719  +6.3331854     136571.5     402584.7     506850.4     94.50573     187.9651     376.1925      2.839     7.07     1296.078     66.34963     13996.13       198     2.444     2.098 -36.95   0
        55    379.5700    863.5767 307.7443213  +6.3269305     3088.923     9082.068     11605.67     93.75746      188.115     376.2299      2.892     7.73     1298.928     66.34963     329.3901        56     2.167     1.741 -30.28   0
        56    322.8533    862.1274 307.7679961  +6.3256500     5039.027     15288.01     19496.36     94.20713     188.1898     376.3797      2.897     7.12     1299.164     66.34963     521.5068        76     2.251     2.006 -41.91   0
        57    640.8293    857.8732 307.6356821  +6.3379254     1589.307     4522.385     5114.791     94.20713     188.2647     376.3797      2.619     8.73     1292.879     66.34963     192.7576        37     1.890     1.545 -38.22   0
        58    873.3040    856.7805 307.5388746  +6.3460459     2828.184     6945.602     8285.635     94.20714     188.0401     376.1925      2.534     6.20     1288.994     66.34963     299.9049        47     1.969     1.502 -29.72   0
        59    615.6201    851.9291 307.6463844  +6.3395464      1499.09     4471.775     6575.944     93.90759      188.115     376.3422      3.639     8.52      1292.53     66.34963     225.9882        44     1.974     1.791  -8.28   0
        60   1006.6821    850.7935 307.4835123  +6.3529095      3065.29     6484.258     7528.761     93.90759     187.7402     376.1925      2.222     5.49     1286.231     66.34963     357.7286        39     1.866     1.317 -43.68   0
        61    802.6071    849.7869 307.5685616  +6.3466025     766.9071     1791.628     2457.401     93.90759     188.0401     376.3048      3.193     5.85      1288.89     66.34963     114.2372         9     1.187     0.812   7.61   2
        62    607.4013    849.4585 307.6498916  +6.3402947     869.9423     2564.052     4459.156     93.60709     187.8902     376.0801      3.591     8.76     1292.432     66.34963     126.8966        15     1.796     1.194  51.69   3
        63    892.2522    844.2215 307.5314041  +6.3518547      1776.54     4172.576     4801.968     93.75745     188.2647     376.1925      2.436     5.75     1287.974     66.34963     235.5261        30     1.633     1.387 -59.85   0
        64    352.5887    840.5517 307.7563403  +6.3355414     1077.846     2473.629     3592.715     93.60709      188.115     376.0427      2.639     6.05     1298.665     66.34963     156.3636        14     1.593     0.685 -63.43   2
        65    349.9518    839.4557 307.7574759  +6.3359064     851.5471     1672.583     2916.454     94.35655     188.2647     376.5293      2.815     4.45     1298.634     66.34963     134.1357         5     0.986     0.571 -77.89   3
        66    487.0092    830.4084 307.7006880  +6.3441782     1189.842     3555.105     4112.361     93.75745     188.0401     376.2674      2.704    10.24     1294.648     66.34963     140.5632        31     1.895     1.544 -16.59   0
        67    534.0657    826.4753 307.6812183  +6.3473581     2464.242      7291.12     10651.41     94.50573     188.2647     376.3422      3.189     8.59     1293.941     66.34963     320.0642        62     2.455     1.855 -19.06   0
        68    504.2747    820.5726 307.6938282  +6.3488095     7588.267     23061.56     29076.28     94.20714     188.1898     376.3797      2.874     7.40     1293.889     66.34963     745.6855        78     2.316     1.924 -32.65   0
        69    917.7211    818.2391 307.5216690  +6.3634194     2141.816     4509.383     4942.092     94.20714     188.3395     376.4171      2.183     6.18     1285.845     66.34963     234.3322        28     1.691     1.223 -41.76   0
        70    297.5346    809.4516 307.7803276  +6.3465550     1272.313     3702.862     5016.941     94.35655     188.1898     376.4171      3.024    10.84     1298.419     66.34963     135.5493        30     1.956     1.672 -51.70   0
        71    762.3364    804.9304 307.5868507  +6.3637912     24628.44      67940.2      82878.2     94.35655     188.2647     376.4919      2.689     6.60     1286.347     66.34963     2578.521        99     2.302     1.868 -38.61   0
        72    219.3778    781.9046 307.8138194  +6.3553346     733857.8      2568662      3492046     94.35655     188.0401     376.2299      3.141     8.27     1296.135     66.34963     63814.26       598     2.807     2.527 -66.83   4
        73    685.5717    796.7760 307.6191058  +6.3646239     29989.82     100223.8     158084.5     93.75745      188.115     376.2299      3.525    10.85     1288.322     66.34963     3648.391       186     3.510     2.309  23.38   0
        74    887.5240    800.1015 307.5348601  +6.3699119     4341.891     11060.78     13406.09     93.90759     188.4143     376.4171      2.562     6.60     1284.869     66.34963     443.5511        54     2.123     1.556 -44.91   2
        75    884.4915    791.4200 307.5364159  +6.3733958     3456.011     8722.882     10247.08     94.20714     187.9651     376.2674      2.515     6.77     1284.539     66.34963     364.6554        51     2.102     1.559 -38.20   2
        76    329.3886    797.3248 307.7674688  +6.3526164     7409.872     23739.48     30765.07     93.90759     187.8902     376.1925      2.975     7.66     1297.609     66.34963     719.6729        87     2.373     2.041 -40.17   0
        77    391.2484    795.1185 307.7417740  +6.3555763      7935.31     25534.66     33277.23     94.35655     188.2647     376.4545      2.987     7.89     1296.373     66.34963     812.9448        86     2.366     2.066 -31.35   0
        78    927.8656    793.4227 307.5182784  +6.3739979     1171.058     2553.815     2631.186     93.90759     188.2647     376.3048      2.199     6.96     1284.141     66.34963     127.3331        17     1.398     0.972 -57.73   0
        79    625.1686    790.8383 307.6444701  +6.3650801     2250.301      7375.97     9167.124     93.90759     187.9651     376.2299      2.876     9.57     1288.575     66.34963     251.5079        56     2.306     1.708 -39.44   0
        80    661.6758    782.3550 307.6295477  +6.3697879     635.1404     1836.117     2335.846     94.20714     188.3395     376.4545      2.929     9.48     1287.998     66.34963     103.9889        10     1.938     1.294   7.55   2
        81    662.0302    779.3576 307.6295013  +6.3710369      806.754     1661.981     2357.932     93.90759     188.1898     376.2299      1.870     4.45     1287.827     66.34963     96.31482         5     1.390     0.405   7.24   3
        82    658.6389    778.7206 307.6309356  +6.3711878      574.705     1349.725     2801.582     94.20714     188.3395     376.4171      3.027     6.21     1287.837     66.34963     112.8855        10     1.922     0.563 -49.85   2
        83    394.1473    777.7853 307.7411532  +6.3628273     18407.92     60547.23     80774.03     93.60708     188.1898     376.1176      3.034     7.70     1294.773     66.34963     1765.283       113     2.466     2.140 -35.64   0
        84    511.7351    776.6042 307.6922071  +6.3672063     2700.092     8200.714      10459.2     93.45647     187.8902      376.155      2.907     7.87     1290.764     66.34963     276.6193        59     2.228     1.816 -32.15   0
        85    428.9049    775.0546 307.7267660  +6.3651053      1668.76     4891.454     8550.552     94.20714     188.1898      376.679      4.025    13.35     1293.468     66.34963     183.9235        54     2.535     2.295  40.09   2
        86    756.8705    773.0911 307.5902018  +6.3767542     5091.724     14086.72     17718.67     94.20714      188.489     376.4171      2.760     6.73     1284.821     66.34963     517.3368        68     2.272     1.758 -37.99   0
        87    115.4684    765.7299 307.8576542  +6.3585626     4459.578     13607.83      21050.6     94.35655     188.4143     376.3797      3.950    14.23     1294.078     66.34963     490.5959       120     4.151     2.436   6.88   2
        88    107.8852    762.2537 307.8609312  +6.3597457     1301.024     4025.258     7556.562     94.35655     188.1898     376.6042      3.859    11.50     1293.741     66.34963     167.0421        31     3.037     1.214  74.75   3
        89    902.4144    761.4022 307.5299602  +6.3863779      3131.15     8148.364     9526.939     93.90759     187.8902     376.2299      2.528     6.71     1283.151     66.34963     342.2886        49     2.053     1.550 -35.36   0
        90    544.0446    758.6287 307.6793547  +6.3756950     715.6556     2131.205     2820.765     93.90759     188.3395     376.3048      2.861     8.53     1289.127     66.34963     102.1869        12     1.638     1.241  43.78   2
        91    657.3954    758.1807 307.6321472  +6.3796257     636.0453     1639.976     2695.735     93.90759     187.8152     376.1925      2.922     4.12      1286.66     66.34963     102.0344         5     0.909     0.534 -38.90   0
        92    925.8848    752.7885 307.5204721  +6.3907068     1541.395     3962.616     4328.791     93.90759     187.9651     376.2299      2.504     7.79      1282.68     66.34963     195.4224        32     1.951     1.353 -15.96   0
        93    896.5894    753.2639 307.5326612  +6.3895455     1477.256     3662.866     4411.823     93.75745     188.0401     376.2674      2.502     8.78     1282.863     66.34963     185.0896        30     1.831     1.286 -29.62   0
        94    956.4079    752.2366 307.5077740  +6.3919397     989.5392     2304.546     2666.292     93.45647     188.0401     376.1176      2.441     7.28     1282.024     66.34963     156.4536        15     1.685     0.882 -25.51   0
        95    222.3819    748.4508 307.8137025  +6.3692435     971.5361     3158.895     5830.216     93.75746     188.3395     376.1176     10.667    11.58     1293.271     66.34963     132.7574        20     2.666     1.400 -54.49   2
        96    795.4590    751.6940 307.5748470  +6.3868599     592.4886     1200.552     1583.535     94.20714     188.2647     376.5667      2.383     5.76     1283.408     66.34963     88.21497         6     1.260     0.742 -56.57   0
        97    940.7550    740.1931 307.5147010  +6.3963959      1494.17     3028.237     3153.392     93.75745     188.0401     376.0052      2.210     7.88     1281.905     66.34963     174.9364        23     1.772     0.981 -36.96   0
        98   1014.8824    734.5566 307.4840070  +6.4011630     4137.991     9544.453      11138.3     94.35655     188.2647     376.3797      2.389     5.68     1279.932     66.34963     453.5354        51     2.009     1.508 -41.61  16
        99    982.6568    733.8724 307.4974562  +6.4003848     991.2858     1835.168     1662.186     94.35655     188.1898     376.3797      1.937     6.93     1280.588     66.34963      129.974        12     1.402     0.960 -28.83   0
       100    868.9990    730.1337 307.5449353  +6.3981847     657.5923     1629.228     2099.338     93.45647     187.8152     376.1176      2.137     6.12     1281.729     66.34963     112.0757         8     1.801     0.585 -63.42   0
       101     27.7637    720.6929 307.8957196  +6.3742393     967.9294     2614.096     3291.215     94.50573      188.115     376.4919      2.583     8.11     1291.286     66.34963     142.8552        14     1.508     1.218  47.96   0
       102    827.7606    720.7819 307.5624317  +6.4006858      686.286     1731.809     1681.329     93.90759     188.0401      376.155      2.248     6.34     1281.185     66.34963     85.62634         9     1.962     0.576 -16.40   0
       103    638.9944    709.0982 307.6414710  +6.3992792     2322.424     7469.749      10056.8     94.05748     187.8152     376.0801      3.015     8.47     1283.349     66.34963     274.5988        56     2.187     1.846 -59.94   0
       104    102.5276    705.6641 307.8650844  +6.3829270      1343.93      4613.74      5973.34     94.35655     188.2647     376.4545      2.990    10.39     1290.947     66.34963     169.1063        39     2.057     1.716 -55.91   0
       105    975.5849    703.6634 307.5014196  +6.4126225     1436.005     2920.938     3064.986     93.75745      188.115     376.2299      2.187     6.85     1278.504     66.34963     170.1212        22     1.614     1.095 -39.37   0
       106    755.9491    701.0715 307.5930153  +6.4064538     7843.781     23575.88     30424.04     94.35655     188.2647     376.4545      2.907     7.40     1280.341     66.34963     795.2251        84     2.348     1.948 -39.47   0
       107    612.2429    704.1179 307.6527846  +6.4004512     861.1621     1976.802     2519.968     94.35655     188.2647     376.3797      2.487     5.58      1283.22     66.34963     109.3867        10     1.330     0.661   9.17   0
       108    885.5884    700.7902 307.5390124  +6.4108445     1695.854     4374.897      5191.66     94.05748     188.0401     376.3797      2.578     8.77     1279.071     66.34963     213.7957        33     1.975     1.313 -36.72   0
       109    229.6938    695.2440 307.8124608  +6.3914492     1963.793     6767.213     9712.396     94.20714     188.2647     376.5667      3.219    10.37     1289.685     66.34963     222.3157        65     2.354     2.060 -44.61   0
       110    636.1776    695.9854 307.6430875  +6.4045991     2029.148     4418.956     6586.696     94.05748     188.0401     376.3048      2.495     8.00     1282.323     66.34963     241.5789        23     2.308     0.775 -19.96   3
       111    636.1819    692.6865 307.6431971  +6.4059610      2695.59     6002.188     8146.483     93.90759     187.9651     376.2674      2.564     8.79     1282.079     66.34963     265.0919        37     2.195     1.275 -15.08   3
       112    895.4310    685.1696 307.5354379  +6.4176171      807.376     1448.249     1457.624     93.75745     187.9651     376.1176      2.177     6.99     1277.576     66.34963     91.44104        12     1.677     0.816  68.95   0
       113    707.4496    682.8411 307.6138371  +6.4123787     1456.344     4264.891     5677.493     94.50573     188.2647     376.3422      2.889     9.97     1280.026     66.34963     163.6605        31     1.778     1.561 -70.84   2
       114    974.2802    678.6992 307.5028036  +6.4228850     4721.973     11481.64     12948.04     94.20714     188.7131     376.4545      2.411     5.98     1276.641     66.34963     519.2972        51     1.998     1.537 -38.28   0
       115    911.9578    678.9222 307.5287625  +6.4207405     1181.886     2495.504     3123.112     94.20714     188.2647     376.4919      2.423     7.89      1276.89     66.34963     159.7755        17     1.742     1.001 -53.02   0
       116     52.1409    674.4796 307.8871345  +6.3941255     8637.866     28783.76     39101.52     94.50573     188.2647     376.3422      3.103     7.76     1289.669     66.34963     946.2437        95     2.427     2.152 -39.85   0
       117    515.5142    673.4288 307.6941218  +6.4099218     816.9835     1482.886     3365.397     94.50574     187.8902     376.2299      2.252     5.07     1284.819     66.34963     106.5409         7     1.279     0.569  53.06   0
       118    696.2738    664.5739 307.6191100  +6.4195505     1130.764     2261.355     3279.719     93.90759      188.115     376.3797      2.602     4.13     1278.952     66.34963     156.5543         9     1.101     0.668 -33.44   2
       119    699.0046    667.6525 307.6178683  +6.4183698     1002.411     2613.934     3590.648     93.60708     187.9651     375.9677      2.981     6.67     1279.091     66.34963     123.6136        12     1.299     0.962 -48.77   2
       120    720.9830    664.3134 307.6088239  +6.4204737     1369.641     3380.324     4070.854     93.90759     187.9651     376.3422      2.477     8.60     1278.375     66.34963     155.8866        25     1.703     1.214 -63.79   3
       121    717.6554    663.9960 307.6102210  +6.4204949     921.8677     2189.993     2520.966     93.60708     188.0401     376.0427      2.566     8.91     1278.437     66.34963     157.4219        15     2.334     0.950 -63.09   3
       122    550.3592    661.6556 307.6800023  +6.4159341     1152.341      3018.39     4568.891     94.20714     188.3395     376.4545      3.399     8.92     1283.575     66.34963     174.4548        19     2.002     1.122 -75.61   2
       123    553.9385    660.0615 307.6785649  +6.4167105      555.994     1570.162      3133.92     94.35655     188.2647     376.4545      2.561     3.97     1283.175     66.34963     106.1759         5     1.512     0.299 -42.88   3
       124    992.4037    660.1631 307.4958764  +6.4311334     2553.368     6453.446     7229.167     93.30561     188.0401     376.1925      2.484     6.68     1275.297     66.34963     261.1318        48     2.044     1.558 -35.25   0
       125    957.9713    659.0519 307.5102602  +6.4304585     3882.761     10235.25     12287.69     94.05748     188.4143     376.3048      2.552     6.56     1275.229     66.34963     392.4879        55     2.087     1.611 -41.09   0
       126    404.3866    653.6508 307.7410901  +6.4144084     1038.809       3149.5     4555.484     93.60709     188.2647     376.1176      3.160    10.33     1286.519     66.34963     129.0125        24     1.852     1.606  67.35   0
       127    116.8364    653.3654 307.8608991  +6.4049903     7814.735     26693.66     36230.83     94.05748     187.9651     376.1176      3.117     8.19     1287.737     66.34963     838.1659        91     2.433     2.169 -36.63   0
       128    952.9702    642.0363 307.5129170  +6.4373181     3354.526     9187.567     11635.47     93.90759     187.9651     376.2299      2.710     6.44     1274.064     66.34963      365.311        57     2.044     1.748 -20.17   0
       129    546.5939    637.7910 307.6823779  +6.4256609     14314.84     52081.28     72894.75     93.60709     188.0401     376.2299      3.182     8.61     1281.862     66.34963     1536.891       111     2.547     2.198 -35.66   0
       130   1008.2037    637.1526 307.4900676  +6.4411523     46462.42     119163.5     140336.5     93.60708     187.9651     376.0052      2.534     6.06     1273.722     66.34963     4866.292       110     2.245     1.772 -39.92   0
       131    155.7620    634.1874 307.8453331  +6.4141992     829.5576     2192.222      2844.01     93.90759     188.0401     376.0801      2.769     7.43     1286.097     66.34963     102.0894        10     1.617     0.957  88.20   2
       132    443.9174    621.6757 307.7257026  +6.4289162     18439.92      66660.2     94455.36     94.50573     188.6384     376.5293      3.225     8.84     1282.657     66.34963     1818.433       122     2.573     2.280 -36.36   0
       133   1021.6741    620.3619 307.4850201  +6.4485270     1852.343     3910.302     3962.495     94.20714     179.4534     319.4058      2.132     6.08     1272.557     66.34963     221.9792        31     1.715     1.309 -53.65  24
       134    289.6512    609.1638 307.7903999  +6.4289706     782.2808     2038.121     3402.707     94.20714     188.2647     376.3422      3.158     4.90     1284.183     66.34963     114.0818         6     1.087     0.625  14.16   0
       135    715.5714    604.9694 307.6130817  +6.4447924     1753.467     5674.125     7011.721     93.75745     187.9651     376.1176      2.863     9.39      1274.73     66.34963     205.1785        49     2.054     1.863 -42.39   0
       136    769.3489    600.1487 307.5908372  +6.4485572     4936.307     15897.05     20782.58     94.35655      188.115     376.4171      2.975     8.21     1273.275     66.34963     499.8994        77     2.407     1.915 -37.97   0
       137   1008.7315    599.2557 307.4911232  +6.4568139     823.7671     2177.456      2594.49     94.50573      188.115     376.3422      2.242     5.79     1270.614     66.34963     127.9963         8     1.991     0.475  48.25   0
       138    593.4769    597.4791 307.6642068  +6.4438515     1045.469     2867.154     4022.559     94.65468     188.5638     376.5293      2.926     9.05     1276.089     66.34963     156.1514        20     1.995     1.146  26.66   2
       139    512.9338    597.4221 307.6977676  +6.4412118     618.7347     1408.269     1914.358     93.90759     188.2647     376.3422      2.403     4.82     1279.146     66.34963     87.77051         7     1.197     0.551 -27.21   0
       140    843.0000    584.9645 307.5606610  +6.4572542     824.2468     1876.585     2863.147     93.15451     187.9651      376.155      1.935     3.75     1271.539     66.34963     141.1094         5     1.299     0.311  77.03   2
       141    844.4807    581.3564 307.5601657  +6.4587925     973.4405     2270.307     4105.313     94.35655     188.2647     376.3797      3.805     5.78     1271.398     66.34963     121.6613        11     1.195     0.788  37.77   2
       142    804.0179    579.5793 307.5770855  +6.4581919     957.1735     2581.389     3739.193     94.05748      188.115     376.3048      3.197     8.87     1271.522     66.34963     139.0197        16     1.974     1.113  -1.03   0
       143    232.4924    576.2739 307.8153298  +6.4406515     2222.739     8229.641     12003.58     94.35655     188.4143     376.4545      3.293     9.04     1282.612     66.34963     243.7494        72     2.401     2.173 -33.61   0
       144    784.6660    572.0445 307.5854032  +6.4606640     53615.04     178270.6     237744.1     94.35655     188.1898     376.4545      3.040     8.07     1271.517     66.34963     5432.133       171     2.649     2.156 -33.43   0
       145    166.5956    570.9614 307.8429655  +6.4406576     16809.83     62135.46      90368.4     93.30561     187.9651     376.1176      3.288     8.68     1283.283     66.34963     1868.222       125     2.632     2.306 -41.53   0
       146     90.5787    567.3118 307.8747611  +6.4396396     1876.331     6816.255     8891.341     94.35655     188.0401     376.2674      3.126     9.42     1283.944     66.34963     244.6503        64     2.309     2.066 -64.31   0
       147    341.6747    558.6214 307.7704373  +6.4515584      4849.84     12442.34     16637.47     93.90759      188.115     376.3422      2.700     9.85     1279.358     66.34963     533.9014        48     2.694     1.137 -51.44   3
       148    338.8166    556.0013 307.7717169  +6.4525452      4718.66     11333.58     14040.54     93.90759     187.7402     376.0801      2.607    11.14     1279.115     66.34963     477.3275        46     2.680     1.289 -54.66   3
       149    821.0864    559.4116 307.5706536  +6.4670801     1568.778     5245.844     6325.204     93.90759     187.9651     376.2299      2.898    10.20     1270.683     66.34963     184.3864        47     2.134     1.746 -46.14   0
       150    143.0915    556.5490 307.8532476  +6.4458265     735.7958     2161.256     2727.757     94.20713     188.0401     376.6416      3.015     7.42     1283.123     66.34963     126.7578        12     2.285     0.674 -71.67   0
       151    775.3652    552.5689 307.5899357  +6.4683967     1979.395     6535.336     9082.865     93.90759     187.9651      376.155      3.149     8.98     1270.756     66.34963     226.7776        57     2.256     1.843 -43.11   0
       152    506.9349    553.6313 307.7017484  +6.4590900     1842.575     5725.162     8590.911     94.05748     188.3395     376.3422      3.178    11.55     1275.891     66.34963     210.0105        48     2.720     1.366 -39.71   3
       153    504.7234    551.2269 307.7027512  +6.4600094     1678.997      3459.56     3856.772     94.20714     188.1898     376.3797      2.313     6.12     1275.787     66.34963     226.1829        21     1.729     0.895 -43.69   3
       154    154.7855    546.1791 307.8487273  +6.4504953     2162.072     5918.062     7588.444     94.05748     187.9651     376.3048      2.804    10.71     1282.613     66.34963     237.0493        49     2.689     1.477 -47.10   2
       155    151.5254    544.0008 307.8501596  +6.4512862     1609.859      2875.81     3681.801     93.45647       187.59     376.1925      1.969     6.83     1282.557     66.34963     205.0787        16     1.837     0.713 -49.98   3
       156    248.5618    542.5211 307.8097793  +6.4551173      23309.6     89361.93     130010.9     94.20714     188.3395     376.4171      3.329     9.09     1280.147     66.34963     2544.268       139     2.656     2.387 -43.93   0
       157    550.8326    545.7630 307.6837236  +6.4637900     812.9775     2691.066     3536.447     93.90759     187.9651      376.155      3.141     7.10     1272.494     66.34963     117.3939        12     1.807     0.782 -16.60   2
       158    771.4984    534.4771 307.5921574  +6.4757375     5394.158     18159.15     23563.91     93.90759     188.5638     376.4171      3.000     7.88     1269.611     66.34963     546.4252        74     2.328     1.953 -37.06   0
       159    475.1959    533.1404 307.7156664  +6.4664984     11595.45     43288.34     66247.73     93.60708      188.115     376.1176      3.394     8.73     1275.759     66.34963     1122.831       134     2.734     2.398 -29.40   0
       160     25.2808    545.0053 307.9027246  +6.4466772     1776.067     5434.536     7553.388     93.90759     187.7402      376.155      3.052     9.63      1284.16     66.34963     195.9979        49     2.148     1.768  85.27   0
       161    635.1975    528.9193 307.6491398  +6.4735316     880.2269     2902.717     4622.393     93.60708     187.7402     376.1176      4.304     9.75     1270.443     66.34963     127.0674        16     2.199     1.205   9.17   2
       162    119.6480    521.1393 307.8642176  +6.4596645     7069.234     26537.68     38479.48     94.35655     188.1898     376.4919      3.301     8.78     1281.215     66.34963     795.2527       100     2.531     2.311 -43.56   0
       163    306.5324    521.5354 307.7863367  +6.4657023     1119.341     3055.982     5349.276     94.35655     188.2647     376.4545      3.974    13.39     1276.114     66.34963      145.363        31     2.548     1.958 -45.42   2
       164     85.9619    518.8112 307.8783322  +6.4595064      914.968     2450.949     3249.876     93.60709     188.0401     376.0427      2.741     8.35     1281.371     66.34963     109.7638        16     1.707     1.142  41.21   0
       165    848.3958    518.7932 307.5606437  +6.4847479     602.3674     1311.625     2036.371     93.60709     187.8902     376.2674      2.465     4.36     1267.274     66.34963     83.09351         5     1.162     0.465 -32.11   0
       166    944.8792    514.7127 307.5205766  +6.4896116     2140.609     6106.975     6822.948     94.05748     188.5637     376.5667      2.691     7.89     1264.941     66.34963     242.4788        48     2.065     1.654 -26.67   0
       167    416.5462    501.9071 307.7411617  +6.4774498     11062.24     43139.21     64238.03     94.20713     188.1898     376.6416      3.358     9.58     1272.777     66.34963       1146.6       115     2.674     2.295 -37.01   0
       168    624.5202    501.2909 307.6545225  +6.4845838     3564.048     12771.58     18043.25     94.05748      188.489     376.4919      3.234     8.73     1268.832     66.34963     356.1833        81     2.420     2.192 -34.81   0
       169    181.9247    499.6816 307.8389979  +6.4705897     5361.288     20289.72     29808.71     94.65468     188.5637     376.4919      3.308     9.10     1279.018     66.34963     594.6617       100     2.568     2.339 -32.55   0
       170    919.8482    495.0697 307.5316689  +6.4968959     1727.202     5281.823     6883.005     94.35655     188.1898     376.4545      2.946     9.26     1263.502     66.34963     208.0327        45     1.995     1.837 -16.92   0
       171    593.2393    493.7772 307.6678110  +6.4866516       1829.7     6874.742     10144.72     93.90759     187.9651     376.1925      3.291    10.42     1268.866     66.34963     209.5924        66     2.354     2.078 -39.01   0
       172    545.0732    496.5308 307.6877883  +6.4839224     878.7111     2022.375     2793.793     94.50573     188.4143     376.4171      3.139     5.47     1270.181     66.34963     104.8535        10     1.056     0.799 -71.71   0
       173    942.7277    486.8245 307.5224125  +6.5010531     1319.933     4126.105     4594.001     93.90759      188.115     376.3422      2.708    10.66     1262.518     66.34963     141.9453        35     2.033     1.556 -29.09   0
       174    504.5123    488.4969 307.7049614  +6.4858971     1295.266     2483.776      3559.69     94.35655     188.7877     376.4545      2.202     7.58     1270.284     66.34963      176.738        18     2.241     0.718  26.62   3
       175    507.9832    484.8203 307.7036395  +6.4875296     2109.878     4825.706     6596.963     94.05748     188.0401     376.3048      2.859    10.19     1269.988     66.34963     220.2389        35     2.098     1.531 -32.99   3
       176    504.0114    483.3336 307.7053448  +6.4880119     1978.026       3892.9     5162.476     93.75745     188.0401     376.2674      2.190     6.81      1269.85     66.34963     211.2562        20     1.714     0.895 -32.21   3
       177    351.0531    483.2332 307.7690841  +6.4829887     751.0594      1914.07     2884.579     94.20713     188.1898     376.3422      3.227     7.74     1271.538     66.34963     112.9724        11     1.664     1.006 -33.37   2
       178    350.1954    488.0093 307.7692796  +6.4809887     686.3754     1540.371     2636.691     93.60709     187.9651     376.2299      3.385     5.40     1272.088     66.34963     102.3206         5     1.096     0.751 -11.39   2
       179    865.0101    478.9899 307.5550624  +6.5017266     810.0325      2323.31     6451.645     93.90759     188.0401     376.3422      4.945     6.55     1262.085     66.34963     151.1912        11     2.352     0.512 -50.02   2
       180    862.0000    479.0199 307.5563157  +6.5016150     1131.298     3062.131     5871.093     93.75745     187.6651     376.0052      3.423     6.35     1262.233     66.34963     148.1986        11     1.417     0.800  86.16   2
       181    694.2106    469.9414 307.6265415  +6.4998268     827.7046     2657.812     3405.765     93.60708      188.115     376.0801      3.096     9.50     1266.191     66.34963     99.21021        13     2.017     1.249  17.14   0
       182    365.1658    469.3495 307.7636739  +6.4891874     996.5087     3542.434     5677.328     94.20714     188.2647     376.3048      3.974    11.11     1270.467     66.34963     131.7031        32     1.898     1.812  58.07   0
       183    592.0399    468.3773 307.6691693  +6.4970969     2320.964     5228.036     7300.268     93.90759     188.0401      376.155      2.546     8.98     1266.894     66.34963     273.3406        31     2.373     0.949 -22.77   3
       184    592.1552    464.2953 307.6692593  +6.4987858     2918.012     7964.042     10493.63     94.35655     188.1898     376.5667      2.841     9.33     1266.529     66.34963     323.0148        47     2.462     1.382 -14.14   3
       185    754.7421    462.2983 307.6015755  +6.5049801     5158.948     17932.93     25796.03     94.05748     188.2647     376.6042      3.219     8.52     1264.663     66.34963     548.8297        94     2.675     2.056 -44.04   0
       186    274.6552    465.9132 307.8015050  +6.4876055     877.5457     2074.751     3394.939     94.35655     188.1898     376.6042      3.334     5.24     1272.454     66.34963     126.1058         8     1.125     0.691 -47.87   2
       187    273.6348    460.2906 307.8021208  +6.4898926     718.0919     1758.595     2841.251     94.50573      188.115     376.4171      2.872     3.74     1272.044     66.34963     107.5323         5     0.857     0.469 -23.64   2
       188    938.1010    456.3568 307.5253670  +6.5134780     761.6467     1729.489     2013.891     94.35655      188.115      376.679      2.518     5.09     1259.513     66.34963      101.879         5     1.032     0.709 -63.34   0
       189     93.0817    455.4803 307.8775170  +6.4858847      1369.74     4168.086     7108.408     94.35655     188.5637     376.5667      3.686    11.34     1277.702     66.34963     203.6929        36     2.456     1.755 -23.41   2
       190    993.5858    451.7255 307.5024011  +6.5172168      1803.08     5035.339     6036.927     93.75745     187.9651     376.2299      2.677     7.98     1257.909     66.34963     205.9447        40     1.887     1.601 -63.59   0
       191    730.4391    452.3863 307.6120374  +6.5082697     853.2992     2341.697     2915.924     93.75746     188.0401     376.1176      2.713     8.18     1264.247     66.34963     122.3749        12     2.136     0.876   8.31   0
       192    329.4696    450.7722 307.7791777  +6.4956729     905.2582     2938.627     4768.495     94.05748     188.2647     376.3048      3.409     8.97     1270.237     66.34963     130.2743        18     1.679     1.339  -2.09   2
       193    694.3812    435.3944 307.6276371  +6.5140935     3944.215     9107.792     11992.19     93.90759     187.8152     376.1925      2.694     9.96     1263.153     66.34963     414.1479        42     2.820     1.113 -56.86   3
       194    692.0107    432.9328 307.6287081  +6.5150313       4534.4      10999.8     14521.38     93.75745     188.0401     376.2299      2.665     9.51     1262.992     66.34963      453.838        44     2.370     1.285 -62.40   3
       195    796.8229    436.3180 307.5849163  +6.5170932     730.4821      2018.75     2967.409     94.05748     187.8902     376.3048      2.662     7.68     1262.002     66.34963     95.30457        11     1.981     0.833 -84.72   2
       196    611.8651    428.9977 307.6622392  +6.5140080     843.0383     2224.502     4543.282     93.60709     187.9651      376.155      3.799     6.19     1262.767     66.34963     106.2834        10     1.417     0.760 -84.18   2
       197    586.4873    425.3405 307.6729381  +6.5146789     4981.969     16738.55     28919.15     94.35655     188.4143     376.5293      3.666     9.05     1263.171     66.34963     508.1141       123     2.995     2.436  21.84   0
       198    917.9501    423.9327 307.5348569  +6.5261990     1400.699     4434.365     5223.208     94.20714      188.115     376.4545      2.849    10.62     1257.096     66.34963     162.8326        42     2.150     1.707 -52.20   0
       199    357.6084    420.3907 307.7684820  +6.5091466     7227.913      28812.5     43175.25     93.75745     188.0401     376.2674      3.362     9.59     1268.294     66.34963     790.7593       107     2.639     2.327 -38.81   0
       200    886.5366    415.0000 307.5482490  +6.5288513     1741.256     4910.793     6290.557     93.45647     187.9651     376.0801      2.782     9.51      1257.64     66.34963      187.058        27     1.995     1.363 -11.98   2
       201    886.2502    412.7444 307.5484444  +6.5297730     1598.998     3007.292     4203.761     94.35655     188.2647     376.4545      2.290     7.22     1257.498     66.34963     175.4606        17     1.679     0.871  -9.94   3
       202    215.2147    411.0732 307.8281336  +6.5082708     3590.198     14197.59     21459.81     93.75745     187.9651     376.3048      3.375     9.08     1269.802     66.34963     415.5808        93     2.517     2.333 -39.48   0
       203   1019.5407    400.9071 307.4932958  +6.5390492     3859.873     10907.72     13351.61     94.20713     188.1898     350.8083      2.721     6.95     1251.149     66.34963     403.4359        59     2.220     1.687 -39.05  24
       204    117.1478    400.8065 307.8693463  +6.5092526     1417.489     3809.829     5409.517     93.75745     188.0401     376.0052      2.735    10.98     1274.904     66.34963     177.1038        39     2.603     1.290 -32.21   2
       205    114.8081    397.1694 307.8704447  +6.5106762     1160.817     2160.876     2703.012     93.75745     188.0401      376.155      1.935     6.55     1274.776     66.34963     138.9825        15     1.524     0.895  -8.63   3
       206    140.0132    395.3940 307.8600022  +6.5122463     868.7036     2264.968     4037.906     93.90759     188.0401     376.2674      2.956     8.13     1273.041     66.34963     123.5308        14     2.562     0.721 -57.67   2
       207     13.3965    385.0938 307.9131127  +6.5122900     1025.571     2045.437     3554.046     94.05748     187.8902     376.1176      3.360     4.42     1278.846     66.34963     145.8512         9     0.942     0.887 -82.74   3
       208     10.3988    382.7566 307.9144413  +6.5131551     870.5889     1979.276     3657.463     93.60709     187.8902     375.9677      3.791     7.11     1279.017     66.34963     119.5518        11     1.809     0.783 -61.85  18
       209    415.7888    386.1839 307.7453963  +6.5251943     1794.004     3660.087     5071.401     94.05748     187.8902     376.3048      2.529     9.18     1261.874     66.34963     258.8101        26     2.350     1.001 -41.95   3
       210    414.9974    383.4118 307.7458200  +6.5263123     956.7465     2264.962     4045.885     93.90759     187.8902     376.2299      2.813     6.44      1261.69     66.34963     193.3517        16     2.653     0.438 -37.69   3
       211    413.1904    381.6844 307.7466315  +6.5269655     1776.292     3804.546     4713.815     93.90759     187.8902     376.2299      2.336     8.44     1261.715     66.34963     202.3221        27     2.101     1.005 -41.15   3
       212    756.8469    381.1552 307.6034372  +6.5385455     3190.452     6411.111     8125.589     94.35655     188.1898     376.3797      2.240     8.17     1257.247     66.34963     376.3987        22     2.371     0.786 -61.13   3
       213    754.0136    379.7167 307.6046665  +6.5390458     3954.831     10667.86     16016.06     93.90759     187.9651     376.2299      3.186    10.35     1257.158     66.34963     396.8098        70     2.861     2.047 -34.23   3
       214    998.6935    375.6001 307.5028359  +6.5488099     1541.677      4578.93     5075.152     93.75745     187.8152     376.0052      2.678     8.42     1250.431     66.34963     164.9342        36     1.801     1.506 -55.79   0
       215    461.1514    368.7747 307.7270821  +6.5338826     832.0375     2579.939      4487.07     93.90759     188.3395     376.3048      3.544    11.66     1259.286     66.34963     113.6477        18     2.423     1.563 -62.92   2
       216    820.4938    363.5762 307.5775059  +6.5479019     11287.25     37099.58     49805.63     94.50574     187.9651     376.2299      3.048     7.81     1254.718     66.34963     1038.864       104     2.510     2.118 -47.51   0
       217    591.6923    355.1171 307.6731433  +6.5438389     826.1518     2056.226     3271.023     94.05748     188.6384     376.5667      3.447     7.26      1254.54     66.34963     157.0546        12     1.498     0.985  70.07   0
       218    677.8914    351.3614 307.6373474  +6.5482376     20394.39     48275.67      63102.9     94.50573     188.1898     376.4545      2.703     9.86     1253.898     66.34963     2083.904        68     2.993     1.195 -47.42   3
       219    675.9777    348.2390 307.6382504  +6.5494633     22478.91     54660.95     68200.65     93.90759     187.9651      376.155      2.558    11.24     1253.621     66.34963     2204.732        68     2.546     1.383 -53.27   3
       220     77.2711    345.9189 307.8878278  +6.5305841     1654.798      6316.76     9458.526     94.65468     188.6384     376.4545      3.424    12.57     1274.619     66.34963     208.7545        68     2.345     2.266 -44.65   0
       221    523.3478    343.7621 307.7020093  +6.5462659     1988.871     5862.734     8334.095     94.05748     188.3395     376.4171      3.153    12.16     1254.787     66.34963     209.0449        51     2.664     1.604 -32.76   2
       222    521.8170    340.5268 307.7027567  +6.5475508     1685.965      3477.27     4363.216     93.75745      188.115     376.3048      2.138     6.36     1254.534     66.34963     204.7826        18     1.434     1.077 -14.18   3
       223    386.8914    339.3605 307.7590247  +6.5435653     6907.033      20264.9     29207.58     94.50573     188.1898     376.4919      3.135    11.14     1259.636     66.34963     696.3062        79     2.947     1.731 -39.33   3
       224    384.0156    336.1420 307.7603322  +6.5447986     5925.907     12078.51     13124.59     93.60709     188.1898     376.0801      2.108     5.76     1259.594     66.34963     625.4473        31     1.832     1.112 -40.84   3
       225    252.7588    342.2481 307.8148238  +6.5379265      964.677     1954.821      2895.54     94.35655     188.1898     376.2674      2.928     5.98     1265.431     66.34963     145.6803        10     1.199     0.866 -52.92   2
       226    475.5469    329.8401 307.7224011  +6.5504310      2351.15     5844.257     8577.843     94.20714     188.2647     376.3797      3.290    11.32     1254.763     66.34963      242.576        46     2.980     1.241 -36.39   3
       227    473.6337    326.9423 307.7232965  +6.5515639     2106.074     5315.271     6612.196     94.20713     188.2647     376.3797      2.937     7.83     1254.555     66.34963     213.6676        34     2.086     1.219 -35.65   3
       228    744.4128    329.0287 307.6103788  +6.5596529     976.4269     2778.586     4889.327     93.75745     188.0401     376.3048      4.210    11.41     1252.143     66.34963     122.9929        22     2.691     1.348  72.46   2
       229    365.8967    313.7663 307.7686413  +6.5534347     2143.865     5823.775     8985.809     94.50573      188.115     376.6042      3.384    11.30     1259.196     66.34963      255.426        52     2.893     1.536 -41.46   2
       230    363.3967    311.2058 307.7697699  +6.5544087     1769.118     4260.261     5860.272     93.60709     187.8902     376.2299      2.556     7.99     1259.179     66.34963     184.0854        24     1.768     1.128 -75.69   3
       231    221.5558    315.9969 307.8287176  +6.5477272       623.89     1370.484      2786.16     93.60708     187.8152     376.0052      2.617     2.32       1265.5     66.34963     126.7748         6     0.765     0.497  89.05   0
       232    732.9331    309.7711 307.6158133  +6.5672234      15123.2     37583.78     48404.81     94.05748     188.2647     376.3797      2.666    10.33     1250.471     66.34963     1447.859        67     2.814     1.295 -37.83   3
       233    731.3359    306.6634 307.6165839  +6.5684536     15296.38     33607.66     40047.05     94.35655     188.2647     376.4545      2.366     7.96       1250.2     66.34963     1410.808        52     2.361     1.202 -41.16   3
       234    404.9500    310.1404 307.7524890  +6.5562253     633.3672     1594.537      2782.02     94.35655     188.2647     376.4545      2.773     5.68     1257.141     66.34963     132.2186         8     1.752     0.581 -51.82   0
       235    906.2010    306.5076 307.5437110  +6.5742853     663.2975     1166.421     2560.873     93.60709     187.7402     376.1176      2.792     4.43     1248.808     66.34963     103.7456         5     0.882     0.632  41.05   2
       236    909.5284    304.3070 307.5423984  +6.5753033     746.2488      2104.07      2827.36     94.20714     188.3395     376.4545      2.879     7.44     1248.531     66.34963     94.89856         8     1.351     1.147  68.83   2
       237    390.0544    306.2751 307.7588275  +6.5573274     718.6863     1419.385     3019.436     94.20714     188.2647     376.4545      3.734     5.67     1257.621     66.34963     104.7775         8     1.551     0.583 -10.45   0
       238    965.6543    304.3716 307.5190045  +6.5771255     760.1755     1634.222     1780.805     94.05748     188.3395     376.3048      2.156     4.31     1246.029     66.34963     128.7208         6     1.120     0.663 -68.48   0
       239    730.8785    292.8753 307.6172401  +6.5741302     1879.722     6581.424     9732.741     94.65468     188.5637     376.5293      3.316     9.75     1248.985     66.34963     211.6465        58     2.156     2.025 -45.35   0
       240    167.1558    295.2578 307.8520918  +6.5544820     649.6342     2039.637     3211.928     94.20714     188.2647     376.4919      3.198     8.06     1268.253     66.34963     93.26538         9     1.626     1.116  -5.13   0
       241    747.8927    289.8793 307.6102502  +6.5759285     851.3754     2677.097     3568.079     94.05748      188.489     376.4919      3.030     9.44     1248.802     66.34963     100.0361        19     1.781     1.397  25.28   0
       242    985.1935    281.4228 307.5116341  +6.5872422     2428.959     7193.162     8824.351     93.75745     188.0401     376.2299      2.717     7.46     1243.345     66.34963     244.7882        52     2.072     1.744 -31.49   0
       243    226.3392    277.9642 307.8280149  +6.5635852     1526.302     5977.412     9337.993     94.35655     188.2647     376.3797      3.382    13.21     1263.401     66.34963     196.9502        62     2.502     2.026 -43.83   0
       244    702.3812    257.4408 307.6303138  +6.5878165     1492.423     4415.556     5720.465     93.90759     188.0401     376.0801      2.794     9.25     1245.914     66.34963     154.3241        32     1.946     1.365  81.45   3
       245    706.1793    258.4131 307.6286979  +6.5875405     1171.692     2077.282     3089.759     94.05748     187.8902     376.3048      2.027     4.40     1246.073     66.34963     152.2162         9     0.963     0.709  27.74   3
       246    705.4001    255.3424 307.6291264  +6.5887824     1186.505     2696.907     4278.491     93.45647     187.8152     376.0052      2.469     6.75      1245.82     66.34963     169.5903        13     1.729     0.740  32.51   3
       247    645.5378    258.7578 307.6539603  +6.5853951     663.1215     1464.539     2524.561     94.35655     188.1898     376.5293      2.907     4.45     1245.508     66.34963     106.0289         5     1.135     0.497 -87.51   1
       248    881.3457    258.0456 307.5557041  +6.5934713     669.5781     1379.586     1807.027     94.35655     188.2647     376.4171      1.806     2.95     1246.305     66.34963     115.4802         5     0.860     0.475  88.97   0
       249    641.3734    256.0341 307.6557880  +6.5863818     718.7756     1567.495     2213.426     93.75745     187.9651      376.155      3.078     4.68     1245.234     66.34963     100.1732         6     1.089     0.802   9.66   1
       250    644.8309    254.1927 307.6544092  +6.5872562     600.5718     1598.432     2211.961     93.75745     188.0401      376.155      2.504     4.64     1245.052     66.34963     97.42163         5     1.345     0.454  29.16   0
       251    436.9375    232.4227 307.7417904  +6.5893656     5444.844     22595.41      35346.6     93.90759     188.2647     376.3048      3.483     9.64     1248.786     66.34963      683.608       105     2.698     2.347 -41.09   0
       252    762.6805    231.1727 307.6060691  +6.6006505     4091.115     14422.65     20361.02     94.20714     188.0401     376.4545      3.189     8.41     1245.082     66.34963     415.2844        83     2.510     2.048 -38.05   0
       253    123.3886    228.4246 307.8726015  +6.5806156       732.02     1422.232     2673.731     93.90759     188.0401     376.3422      2.093     3.88     1271.289     66.34963     95.19751         5     1.098     0.392  73.59   0
       254    126.7655    225.9856 307.8712770  +6.5817346      810.801     1893.492     3214.504     93.90759     187.9651     376.2674      2.732     6.23      1271.03     66.34963      128.448         6     1.631     0.668  66.36   0
       255    562.4737    219.2092 307.6899170  +6.5989746     1271.939     3387.894     5486.483     93.90759     187.7402     376.2299      3.193    12.00     1242.298     66.34963     152.6377        37     2.887     1.388 -32.86   2
       256    558.5447    216.3169 307.6916523  +6.6000385     1227.039     2744.769     3651.167     94.35655     188.2647     376.5293      2.704     7.63     1242.203     66.34963     142.9153        15     1.791     0.911 -18.92   3
       257    867.7408    214.2581 307.5628511  +6.6110983     3700.028     12393.89     15837.09     94.35655     188.1898     376.4545      2.944     8.14      1243.36     66.34963     364.6755        69     2.287     1.930 -32.45   0
       258    954.2421    212.1553 307.5268681  +6.6148166     3645.991     11415.06     13705.92     94.20714     188.2647     376.2299      2.750     7.87      1241.55     66.34963     388.8667        61     2.187     1.806 -44.49   0
       259    921.0857    214.9216 307.5405946  +6.6125825     1191.309     3197.835     3312.505     94.35655     188.6384     376.5293      2.501     7.67     1242.416     66.34963     150.8182        22     1.578     1.205  53.54   0
       260    665.1148    215.0056 307.6472796  +6.6041026     952.0046     2120.315     3755.752     93.75745     187.8902     376.0801      3.717    11.79     1242.169     66.34963     125.3286        17     2.649     1.461 -58.24   2
       261    663.9814    212.0186 307.6478529  +6.6052982     716.3238     1506.781      2669.57     94.05748     188.0401     376.3422      2.566     6.65     1242.096     66.34963     91.10254         7     1.998     0.622 -42.87   3
       262    807.8074    203.5459 307.5881929  +6.6135437     735.0349     1860.827     2488.227     93.75745     188.0401     376.0427      2.827     9.90     1243.468     66.34963     87.20825        12     2.001     1.365  27.81   0
       263    717.9355    200.4137 307.6257572  +6.6118706     11330.37     42395.18     59892.76     93.75745     188.0401     376.3422      3.216     8.64     1242.803     66.34963      1153.61       110     2.563     2.252 -40.41   0
       264    487.7491    203.5536 307.7215908  +6.6029647     675.9076     1926.821     2984.715     94.50573      188.115     376.4919      3.394     5.53     1242.976     66.34963     99.82397         6     1.304     0.660 -80.99   0
       265    321.3197    200.0902 307.7910726  +6.5988809     2051.468     7199.002     12387.82     94.05748      188.489     376.5293      3.682    11.05     1257.921     66.34963      238.485        83     2.805     2.273 -64.60   0
       266    952.6122    198.8896 307.5279945  +6.6202390     967.6526     3084.294     4045.409     94.05748     187.9651     376.2299      2.998     8.83     1240.645     66.34963     140.7042        18     1.708     1.274  42.02   2
       267    885.7303    197.4104 307.5559212  +6.6186459     2777.339     8756.673     11127.57     93.75745     188.0401     376.2299      2.935     7.96     1241.357     66.34963     256.2179        62     2.134     1.960 -25.36   0
       268    429.5478    197.1550 307.7460649  +6.6036790     1228.747     4953.268     7460.573     94.35655     188.1898     376.4171      3.383    13.22     1246.504     66.34963     173.7603        58     2.384     2.213 -22.75   0
       269    988.9116    197.9980 307.5128946  +6.6218025     726.7165     1406.289     1571.335     93.60709     187.8152     376.1176      2.063     4.75     1240.127     66.34963     125.3385         6     1.276     0.579   8.13   0
       270    233.7263    187.1169 307.8280195  +6.6013304      1845.15     5868.681     9690.552     94.65468     188.6384     376.4919      3.488    13.64     1265.382     66.34963     211.6211        64     2.632     2.217 -45.87   2
       271    230.5763    185.3006 307.8293940  +6.6019756     1126.029     1935.713      3361.55     94.50573     187.9651     376.1925      1.523     3.56     1265.675     66.34963     213.2032         5     0.904     0.475  38.66   3
       272     87.7956    189.3886 307.8887616  +6.5955460     1482.119     4441.873     6824.085     93.90759     187.8902     376.3048      3.360    10.83     1273.842     66.34963     164.6444        33     2.429     1.345 -47.98   2
       273    257.2748    185.0458 307.8182753  +6.6029668     8290.098     33497.79     51349.71     94.20714     188.3395     376.4545      3.435     9.40     1264.058     66.34963     1046.854       114     2.673     2.399 -40.96   0
       274    381.2109    180.4632 307.7667765  +6.6089679     11961.82        49601     75662.44     93.75745     188.0401     376.2674      3.431     9.63     1250.314     66.34963     1515.011       126     2.697     2.425 -40.41   0
       275    137.6749    182.4205 307.8682104  +6.6000797     1248.699      3806.84     5517.581     93.90759     188.0401     376.3422      3.208    11.60     1271.198     66.34963     154.0742        34     1.998     1.876 -13.93   2
       276    139.6693    178.6093 307.8675087  +6.6017192     801.5323     1335.948     2366.688     93.75745     188.0401     376.2674      1.771     3.45     1271.158     66.34963     132.4264         5     0.754     0.457  16.66   3
       277    285.4711    178.2824 307.8067532  +6.6066940     4704.745     18289.58     29319.65     94.65468     188.6384     376.4545      3.552     9.83     1262.625     66.34963     551.1594       107     2.762     2.390 -32.32   0
       278    720.4146    176.2940 307.6255386  +6.6219089     9489.821     34772.51     48682.89     94.05748     187.9651     376.2299      3.217     8.74      1241.74     66.34963      953.137       103     2.527     2.228 -36.17   0
       279     37.4024    174.0789 307.9102841  +6.6001901     2580.593     9661.108     14841.45     93.60708     187.6651      376.155      3.452     8.66     1276.931     66.34963     342.0535        88     2.517     2.355 -59.73   0
       280    978.1235    155.7281 307.5188153  +6.6388962      842.931     2336.758     3737.302     94.65468     188.5637     376.4171      3.400     5.25     1237.632     66.34963     105.4109         8     1.347     0.578 -73.79   2
       281    256.1322    151.4260 307.8198924  +6.6168065     7463.024     30572.07     48261.47     93.90759      188.115     376.3048      3.510     9.66     1265.633     66.34963     959.2334       120     2.747     2.412 -44.12   0
       282      1.3167    147.6770 307.9262214  +6.6098878     678.7872     1025.669     1160.554     82.05923     149.7563     282.9701      1.683     4.10     1279.122     66.34963     121.2068         5     0.964     0.497  33.91  27
       283      1.2355    153.2197 307.9260667  +6.6075972     985.9595     1440.171      1766.27     80.32417     147.6723     281.0218      1.343     4.57     1279.105     66.34963     163.3107         7     1.376     0.431  82.62  27
       284      3.3769    150.8134 307.9252561  +6.6086617     1599.833     2994.193     3333.116     94.05748     179.6887     320.1107      2.149     5.64     1278.994     66.34963     198.8591        18     1.488     0.848 -68.23  19
       285    687.8618    149.1760 307.6400231  +6.6320280     2192.439     6458.111       9514.9     93.90759     188.1898     376.3048      3.164    12.88     1240.416     66.34963     247.4541        53     2.782     1.729 -42.51   2
       286    686.6006    145.3753 307.6406772  +6.6335553     1947.257     3625.503     4992.353     93.90759     187.8902      376.155      2.120     5.23     1240.224     66.34963     221.2131        17     1.437     0.860   1.06   3
       287     99.7793    146.5286 307.8852239  +6.6136358     1651.733     3871.276     5594.533     93.90759      188.115     376.3797      2.794    11.24     1273.267     66.34963      182.548        37     2.555     1.419 -35.33   3
       288     98.0947    143.2116 307.8860387  +6.6149490     1400.925     2930.637     4275.924     94.05748     187.8902      376.155      2.663     7.47     1273.331     66.34963      164.116        22     1.688     1.008  14.12   3
       289    368.3730    143.4223 307.7733827  +6.6238323     1031.612      3109.86     5571.418     93.75745     188.0401     376.3422      3.686     9.45     1250.981     66.34963      146.986        23     1.846     1.350   1.37   2
       290    336.3643    139.6829 307.7868506  +6.6243148     1040.087     2524.129     4055.948     94.35655     188.1898     376.3422      3.229     7.78     1256.045     66.34963     145.3745        15     1.744     1.144  88.99   2
       291    331.9200    141.0000 307.7886583  +6.6236238     677.5732     2145.399     3146.622     93.45647     187.5149     376.0801      3.097     3.86     1256.718     66.34963     99.76855         5     0.817     0.524 -24.99   3
       292    186.3614    130.0309 307.8496983  +6.6233220     1690.252     5032.254     7135.065     93.90759     187.9651     376.2299      3.060    10.50     1269.416     66.34963     235.9777        47     2.477     1.476 -43.94   2
       293    183.8078    126.8278 307.8508714  +6.6245593     1313.866     2876.651     4151.193     93.90759     188.0401     376.1925      2.603     6.48     1269.499     66.34963     183.9165        14     1.799     0.714 -45.44   3
       294    647.0124    127.6823 307.6577763  +6.6395509     1862.978     6651.584     9756.753     93.90759     187.9651     376.2299      3.266    10.94     1239.392     66.34963      218.286        62     2.337     2.069 -39.13   0
       295    599.9328    126.1429 307.6774519  +6.6386301     2794.248     7940.459     11264.31     94.50573     188.1898     376.3797      3.021    11.93      1239.26     66.34963     308.3173        57     2.728     1.642 -23.50   3
       296    603.6579    117.5714 307.6761891  +6.6422915     15765.88     42756.98      62114.3     93.90759     188.3395     376.3048      3.105     9.72     1239.024     66.34963     1626.082       103     3.300     1.778 -37.01   3
       297    601.4961    114.4839 307.6771947  +6.6434945     13765.09     28762.36     31680.73     94.35655     188.7131     376.5293      2.169     6.01     1238.884     66.34963     1344.593        34     1.830     1.179 -25.90   3
       298     70.1637    128.1721 307.8981910  +6.6202285     780.2806     1720.183     2999.802     93.75745     187.9651     376.1925      2.934     5.31     1274.938     66.34963     105.5957         8     1.496     0.532  24.67   0
       299    327.4740    122.9760 307.7911226  +6.6309164     1135.472      3118.98     5973.342     93.90759     188.0401     376.3422      4.106    11.46     1257.934     66.34963     142.7634        28     2.665     1.372 -42.07   2
       300    283.1397    111.9160 307.8099764  +6.6340114     1248.197     3346.329      5693.46     94.50573     188.3395     376.4919      3.680     9.71     1265.769     66.34963     182.7036        26     2.542     1.035 -12.20   2
       301    667.4034    102.1705 307.6501392  +6.6507557     1101.892     2884.029     4226.375     93.75745     187.9651     376.2299      3.168     9.00     1238.232     66.34963     148.8684        20     1.887     1.200 -45.82   2
       302    409.2074     93.2596 307.7580628  +6.6458917     1326.024     3260.746      5621.35     93.60709      188.115     376.1176      3.506     9.48     1245.233     66.34963     169.9969        18     1.700     1.474 -49.00   2
       303    863.3219     87.8803 307.5689559  +6.6631209     833.8553     2319.847     2857.709     94.65468     188.5637     376.6042      2.815    10.80     1234.227     66.34963     99.38538        22     2.436     1.335 -15.35   0
       304    883.2212     86.8010 307.5606974  +6.6642224     1276.125     2259.242     3101.884     93.90759     187.8902     376.0801      2.046     4.03     1234.098     66.34963     159.0693        12     1.202     0.808 -65.44   3
       305    879.9203     86.0115 307.5621000  +6.6644396     1436.815      3579.88     4743.268     93.90759     187.8902     376.2299      2.774     9.03     1234.036     66.34963      154.563        26     2.032     1.121 -77.56   2
       306    120.8224     80.8444 307.8786856  +6.6414479     1027.335     3340.641     4656.494     93.75745      188.115     376.1925      3.172    11.35     1271.287     66.34963     165.6785        31     2.210     1.624 -52.66   0
       307      3.3151     78.2431 307.9277507  +6.6386145     4141.404     11989.87     15056.71     94.35655     179.2177     319.1411      2.800     8.70     1278.139     66.34963     462.9829        59     2.417     1.665 -77.91  24
       308    749.1025     74.7549 307.6170104  +6.6647707     1037.853     2529.696     2850.783     94.35655     188.1898     376.6416      2.548     7.42     1236.324     66.34963      131.829        14     1.491     1.033 -32.20   2
       309    746.7144     71.6482 307.6181108  +6.6659743     757.6362     1465.933      2369.22     94.35655     188.1898     376.4171      2.206     3.69     1236.194     66.34963     115.0867         5     0.820     0.479 -81.95   3
       310    805.4429     73.0566 307.5935826  +6.6673311     1833.819     4246.271     5828.046     94.20713     188.1898     376.4171      2.509     8.28     1234.751     66.34963     210.6888        28     2.019     1.056 -51.63   3
       311    802.1420     71.3929 307.5950148  +6.6679090     1910.821     4537.128     6156.592     93.60709      188.115     376.0801      2.616     9.55     1234.644     66.34963     210.1951        31     2.152     1.182 -59.54   3
       312     43.2934     72.1916 307.9112938  +6.6424422     1086.819     2134.222     2887.003     93.90759     187.8902     376.1925      2.324     6.34     1275.229     66.34963     144.8954        13     1.689     0.669 -26.68   3
       313     43.7336     68.2816 307.9112433  +6.6440707     1010.609     2677.637     3221.609     94.65468     188.5637     376.4919      2.483     8.02     1274.951     66.34963     156.0259        19     2.021     0.890  23.29   2
       314     70.3977     54.4547 307.9005998  +6.6506648     2623.816     9967.496     14347.51     93.60709     187.9651     376.0427      3.290     8.81     1272.527     66.34963     382.9612        77     2.453     2.155 -39.86   0
       315    400.9109     55.3990 307.7628040  +6.6612451     660.5036     1753.044     4003.084     93.45647     187.7402      376.155      3.456     7.05     1249.755     66.34963     114.4791        10     2.204     0.632 -47.60   0
       316    612.9854     45.9481 307.6747235  +6.6721652     4888.472     19243.21     28204.96     93.60709     188.2647     376.1176      3.302     8.66      1237.46     66.34963     617.8839        95     2.547     2.247 -30.24   0
       317    514.3904     42.9977 307.7159219  +6.6701218     1468.808     3497.414      4891.37     93.60708     187.8902      376.155      2.805     9.56     1240.373     66.34963     179.0248        28     2.424     1.053 -42.10   3
       318    511.9498     40.2043 307.7170338  +6.6711941     1280.176     3313.094     5028.565     93.60708     188.0401     376.0052      3.184    10.36     1240.616     66.34963     154.4591        26     2.345     1.275 -44.27   2
       319    419.2209     38.9280 307.7557299  +6.6686506      6808.24     19462.19     27357.61     93.90759      188.115     376.3797      2.995     8.95     1249.373     66.34963     735.9357        76     2.819     1.671 -35.77   3
       320    416.7476     35.5312 307.7568760  +6.6699708       5000.6     9339.543     10491.79     94.20714      188.115     376.3422      1.994     5.84     1249.871     66.34963     534.6483        27     1.635     1.076 -29.17   3
       321    238.8973     38.4644 307.8309099  +6.6628626     2368.427      9690.94     15176.32     94.35655     188.4143     376.4545      3.972     9.39     1266.912     66.34963     311.1024        82     2.641     2.172 -41.32   0
       322    897.7644     38.2417 307.5562729  +6.6847468     721.1722     2039.746     3052.467     94.05748     188.2647     376.2299      3.315     5.11     1231.048     66.34963      97.0011         7     0.946     0.782  12.32   2
       323    599.3350     36.1190 307.6807461  +6.6757712     1182.972     3855.711     5952.541     94.65468     188.3395     376.4171      3.327    10.25     1237.374     66.34963     172.0433        37     2.387     1.811 -89.93   0
       324      6.4457     36.7573 307.9278573  +6.6558426     917.1147     2190.432     2909.059     94.35655     188.2647     362.0332      2.724     5.34     1275.728     66.34963     100.7896         7     0.906     0.888 -32.39  18
       325    227.2065     36.5274 307.8358487  +6.6632741     950.8962     3089.831      6258.61     93.90759     187.7402     376.3048      4.730    11.42     1267.047     66.34963     136.4336        26     2.938     1.236 -26.42   1
       326      2.1342     34.7951 307.9297212  +6.6565091     510.6733     1004.928     2273.769     91.47591     162.7393     298.3816      2.675     5.46     1275.876     66.34963     88.15051         5     1.152     0.730 -15.04  24
       327    727.5621   1020.7226 307.5940577  +6.2735642     761.7901     1704.138     1730.893     94.20714       187.59     334.4443      2.142     5.63     1299.791     66.34963     91.31323         8     1.304     0.685 -62.21  16
       328    934.9197   1015.4808 307.5078636  +6.2825631     4875.897      9873.75     10586.97     94.50573     188.5637     376.6042      2.121     5.17     1297.585     66.34963     540.5608        40     1.786     1.294 -38.85  16
       329    694.1385   1013.6859 307.6082168  +6.2753659     1633.527     4091.171     6095.608     94.50573     188.4143     376.4171      2.982     7.52     1299.432     66.34963     209.3783        31     1.906     1.295 -38.32  18
       330    703.1948     17.5619 307.6380792  +6.6868636     686.4016     1871.332     2343.628     93.30561     187.9651     376.1176      2.997     4.40     1235.148     66.34963     124.3116         5     1.104     0.499 -58.11   0
       331    219.0116   1015.6522 307.8060465  +6.2588343     694.1735     1437.345     2143.976     93.60708     188.1898     376.0801      2.645     4.52     1300.957     66.34963     91.53711         5     1.029     0.565 -74.83   0
       332    341.9272   1011.3820 307.7549966  +6.2646708     1084.343      2537.49     3102.502     93.75745     188.1898     376.3422      2.485     6.91     1301.012     66.34963      159.824        16     1.542     1.179 -16.12   0
       333    728.2164   1000.7286 307.5944595  +6.2818394     4574.567      11021.5     13174.52     93.75745     188.1898     376.3048      2.492     5.72      1298.93     66.34963     511.1417        52     1.937     1.570 -35.43   0
       334    523.7301   1001.0279 307.6796233  +6.2749615     2168.875     5539.614     7008.325     94.05748     188.2647     376.3422      2.634     7.48     1302.672     66.34963     228.5922        40     1.858     1.657 -17.54   3
       335    520.9394    993.7339 307.6810323  +6.2778802     4136.942     10703.88     13679.76     94.35655     188.1898     376.4171      2.707     6.46     1302.329     66.34963     486.1754        54     2.031     1.665 -36.17   2
       336    274.0465   1000.5253 307.7836371  +6.2669031     7595.038     19777.95     24229.33     94.20713     188.3395     376.4171      2.660     6.10     1301.658     66.34963     732.6938        72     2.147     1.799 -31.88   0
       337    493.9807   1002.6922 307.6919583  +6.2732907     632.6755     1354.372     1928.215     94.20713     187.9651     376.2299      2.504     4.92     1302.679     66.34963     91.60522         5     1.175     0.583  80.53   0
       338    889.4051    994.0654 307.5275432  +6.2899044     6026.332      12543.1     13911.81     93.75745     187.8902      376.155      2.184     5.17     1296.714     66.34963     662.6454        49     1.926     1.388 -38.56   0
       339    862.8787    990.2858 307.5387198  +6.2905907     8245.697     17553.37     20537.96     94.35655     188.6384     376.5293      2.274     5.35     1296.541     66.34963     923.2791        58     1.961     1.477 -35.41   0
       340    984.6550    989.6260 307.4880170  +6.2948734     3557.795     6928.872     7426.183     93.90759     188.3395     376.2299      2.026     5.21     1295.381     66.34963     410.6455        39     1.873     1.235 -34.89   0
