#   1 NUMBER                 Running object number                                     
#   2 X_IMAGE                Object position along x                                    [pixel]
#   3 Y_IMAGE                Object position along y                                    [pixel]
#   4 ALPHA_J2000            Right ascension of barycenter (J2000)                      [deg]
#   5 DELTA_J2000            Declination of barycenter (J2000)                          [deg]
#   6 FLUX_APER              Flux vector within fixed circular aperture(s)              [count]
#   9 FLUXERR_APER           RMS error vector for aperture flux(es)                     [count]
#  12 FLUX_RADIUS            Fraction-of-light radii                                    [pixel]
#  13 FWHM_IMAGE             FWHM assuming a gaussian core                              [pixel]
#  14 BACKGROUND             Background at centroid position                            [count]
#  15 THRESHOLD              Detection threshold above background                       [count]
#  16 FLUX_MAX               Peak flux above background                                 [count]
#  17 ISOAREA_IMAGE          Isophotal area above Analysis threshold                    [pixel**2]
#  18 A_IMAGE                Profile RMS along major axis                               [pixel]
#  19 B_IMAGE                Profile RMS along minor axis                               [pixel]
#  20 THETA_IMAGE            Position angle (CCW/x)                                     [deg]
#  21 FLAGS                  Extraction flags                                          
         1    440.5012     22.3426 307.7615522  +6.6823706     6790.169     9764.266     10039.39     80.72169     161.5719       323.24      1.562     3.67     906.1998     56.94235     947.3818        31     1.393     1.012  58.14   0
         2     41.5205     21.8717 307.9273522  +6.6691449     9160.031     13215.95     13394.85     81.23421     161.8285     323.0153      1.560     3.64     919.8049     56.94235      1178.88        31     1.415     0.956  57.78   0
         3    337.1011     17.2565 307.8046897  +6.6809979     13798.95     20178.81     21288.93     80.72169     161.5719       323.24      1.563     3.64     914.2596     56.94235     1891.828        39     1.448     1.029  56.71   0
         4    110.7391     17.6153 307.8987354  +6.6732344     2724.646     4031.276     4699.502      80.4642     161.5076     322.8225      1.613     3.69     916.7295     56.94235     400.8934        21     1.307     0.929  56.89   0
         5    101.9660     16.4513 307.9024201  +6.6734195     1640.666     2518.492      2908.81     80.85013     161.5076      322.951      1.677     3.71     916.6686     56.94235      229.517        16     1.253     0.840  71.91   0
         6    805.8956     16.1295 307.6099237  +6.6971778     985.2144     1330.605     951.6293     80.85012     161.6361     323.0474      1.438     4.19     896.3621     56.94235     151.9118        10     1.136     0.608  57.92   0
         7    403.4322     15.1688 307.7771975  +6.6840880      2446.56     3397.403     2822.386      80.4642     161.3148     322.7582      1.542     4.11     909.3882     56.94235     359.5693        18     1.274     0.813  63.50   0
         8     64.8899     14.4876 307.9178920  +6.6729811     424.2339     390.9126     253.8414     80.72169     162.0208     323.1758      1.324     3.91     918.1879     56.94235     81.73114         5     1.320     0.333  49.41   0
         9    664.0894     10.7958 307.6690309  +6.6946345     11931.76     16863.72     17383.75      80.4642     161.2505      322.726      1.487     3.67     900.9225     56.94235     1686.188        30     1.368     0.939  60.89   0
        10    998.4776     12.3270 307.5300220  +6.7051812     765.9868     849.8558     47.73007     81.23421     161.8285     323.0795      1.324     4.26     890.3436     56.94235     148.0861         7     0.992     0.522  32.94   0
        11    828.7449     10.3336 307.6006232  +6.7003348     1869.438     2922.442     2882.272     80.97836     161.5076     323.0474      1.683     3.70     895.4437     56.94235     316.6988        16     1.370     0.743  62.02   0
        12     82.0970     11.4135 307.9108462  +6.6748301     829.7958     1410.147     1300.701     80.85012     161.3148     322.8225      1.698     3.64     917.2312     56.94235     144.2894         7     0.906     0.561  82.32   0
        13    541.7228     10.4286 307.7198923  +6.6906856     1481.036     2031.803     1949.383     80.85013     161.6361     323.0474      1.477     3.82     901.0984     56.94235     220.3456        14     1.210     0.799  38.04   0
        14    264.4755      7.5438 307.8351954  +6.6825666     6781.579     10420.82     11030.82     80.97836     161.5076     318.9423      1.754     3.62     916.8317     56.94235     894.1702        40     1.625     1.334  -2.89  16
        15    899.1296      8.0500 307.5714508  +6.7036299     1619.002     2342.771     2771.658     80.97836     161.5076     321.7923      1.529     3.85     894.2319     56.94235     258.9209        13     1.240     0.655  62.12  16
        16    655.7451      6.1562 307.6726545  +6.6962707     9855.009     13635.36     13931.79     80.97836     161.5719     307.9523      1.471     3.57     900.8857     56.94235     1357.088        31     1.352     0.929  58.03  16
        17    425.6322      6.2156 307.7682745  +6.6885299     8689.483     12642.45      12586.5     80.59305     161.3148      308.491      1.568     3.55     907.7136     56.94235     1147.073        31     1.384     0.980  61.73  16
        18    685.5414      5.4169 307.6602975  +6.6975737     9014.668     12147.42     12290.82     80.59305     161.5076     300.3103      1.472     3.46     899.9608     56.94235     1352.206        27     1.315     0.910  56.94  19
        19    688.9240      2.8884 307.6589768  +6.6987310     14663.04     20309.16     20906.73     80.97836     149.5667     267.8398      1.470     3.74     899.7169     56.94235     2064.252        31     1.355     0.910  52.88  27
        20    741.2579      5.0807 307.6371555  +6.6995775     2171.199     2771.677      2940.49     80.97836     161.5719     296.7303      1.413     3.65     896.5057     56.94235     335.0327        15     1.194     0.743  54.69  16
        21    204.1605      2.7038 307.8604213  +6.6825360     1271.496     2263.132     2677.737     80.97836     147.2596     265.1142      2.047     4.43     916.4771     56.94235     204.0941        15     1.203     1.010  58.49  24
        22    665.3057      2.3282 307.6688103  +6.6981714     3324.328     4114.841     4879.917     80.07642     142.8243     259.2172      1.349     4.30     900.8181     56.94235     485.8954        15     1.119     0.761  50.60  24
        23     72.5146      1.1971 307.9151735  +6.6787252     798.6783     863.9267     1040.523     68.17881     125.9958     240.5314      0.864     1.96     917.2288     56.94235     253.2781         6     0.800     0.397   1.93  24
        24      1.6126    994.8849 307.9110168  +6.2660709     2456.505      3397.06     3188.122     73.87598     132.7331      247.798      1.385     4.68     936.6756     56.94235     398.6072        16     1.436     0.666  81.39  24
        25    235.5581    993.4856 307.8139325  +6.2745191     1931.567     2933.348     2986.544     80.97836     161.4434     323.0474      1.591     4.43     937.4302     56.94235     269.1623        21     1.488     0.904  57.94   0
        26    123.8027    992.8203 307.8603551  +6.2710363     693.5988     1075.991     1282.839     80.59305     161.1861     322.7903      1.976     4.32      936.691     56.94235     111.7413         6     1.135     0.467  66.05   0
        27    826.0603    988.8780 307.5689017  +6.2962081     2380.753      3696.82     4010.887     81.10638     161.6361     323.0153      1.625     4.47     929.6626     56.94235     303.9265        23     1.574     0.948  67.86   0
        28    670.4620    991.3411 307.6334277  +6.2899884     518.2076     657.2043     591.3929     80.97836     161.5076     323.0795      1.491     3.66     933.2151     56.94235     102.0713         5     0.927     0.498  87.83   0
        29    634.2577    991.2148 307.6484649  +6.2888288     915.4083     1425.725     1221.026     80.33515     161.5076     322.7582      1.650     4.76     934.0707     56.94235     141.0717        10     1.189     0.667  51.48   0
        30    774.3485    986.6899 307.5904474  +6.2953834     6953.197     10476.32     12010.51     80.97836     161.3791     323.1758      1.669     3.84     930.9542     56.94235     894.9323        31     1.443     1.044  70.99   0
        31    243.9276    985.8373 307.8107155  +6.2779582     1526.159     2466.262     2911.027     80.85012     161.5719     323.1116      1.724     4.32     937.4725     56.94235     238.7303        17     1.399     0.824  54.24   0
        32    560.9493    985.7377 307.6790881  +6.2886355     1043.378     1408.416     1113.574     80.97836     161.5076     323.1116      1.447     4.58     935.3663     56.94235     136.1177        11     1.096     0.777  55.66   0
        33    208.0682    985.2982 307.8256224  +6.2769757     970.3537     1418.201     1383.017     80.97836     161.7002     323.0795      1.691     5.35     937.2916     56.94235      104.403        11     1.030     0.784  80.35   0
        34     68.7759    983.7054 307.8835094  +6.2729480     2807.112     4022.334     4353.016     81.10638     161.3148     322.9189      1.573     3.75     936.6756     56.94235     365.2189        20     1.351     0.859  56.80   0
        35    962.5809    981.7885 307.5124509  +6.3036936     6716.617     10570.76     10459.74     80.59305     161.3148      322.951      1.686     3.74        926.6     56.94235      933.884        32     1.489     1.038  60.65   0
        36    218.8428    977.9117 307.8213980  +6.2803875     773.0834     1164.614     1152.577     80.97836     161.5076     323.0795      1.582     6.43     937.4535     56.94235      113.992        10     1.501     0.773  65.08   0
        37    645.0865    976.7531 307.6444543  +6.2951625     686.9608     1299.089     933.4026     80.97836     161.4434     323.0474      1.455     3.81     933.5219     56.94235     137.5062         5     0.814     0.511  49.06   0
        38    936.3516    973.3634 307.5236246  +6.3062971     2031.393     3102.042     3321.323     80.85013     161.5076     322.9189      1.650     4.13     927.1381     56.94235      270.918        17     1.347     0.773  58.21   0
        39    795.7927    969.8023 307.5821095  +6.3030730     1303.902     1889.945     2164.679     80.33515     161.2505     322.8546      1.448     4.18     929.9384     56.94235     190.4221        13     1.211     0.718  67.08   0
        40    657.0045    969.4080 307.6397523  +6.2985941     4930.186     7262.802     7498.571     80.33515     161.2505     322.8867      1.543     3.96     933.0976     56.94235     661.3375        25     1.368     0.903  58.41   0
        41    269.2186    969.4139 307.8007683  +6.2855889     4738.117     6977.062      7199.69     80.59305     161.1861     322.9189      1.604     4.16     937.5833     56.94235     615.5487        26     1.398     0.949  61.08   0
        42   1006.5528    968.9109 307.4946231  +6.3104777     773.0566     918.1605     1026.191     80.97836     161.4434     323.2079      1.341     4.89     924.9946     56.94235     127.6562         9     1.061     0.637  38.86   0
        43    479.3203    967.7072 307.7135886  +6.2933446     1133.906     1508.083     1099.151     80.72169     161.7644     323.1116      1.390     4.16     936.0366     56.94235     157.9452        12     1.165     0.678  48.63   0
        44     37.9700    966.8983 307.8968676  +6.2788502      2279.84     3073.087     2832.624     80.97836     161.3148     323.0795      1.449     3.46     936.6756     56.94235      303.914        17     1.186     0.824  55.16   0
        45    888.7347    965.7109 307.5436535  +6.3078672     934.9919     1241.166     1100.021     80.97836     161.7644     323.0474      1.370     4.04     927.8676     56.94235     152.6836         9     1.038     0.606  56.52   0
        46    981.4130    964.2016 307.5052200  +6.3115836     621.2396     958.0349     92.41266     80.59305     161.2505     322.8225      1.313     5.05     925.6105     56.94235     92.38647         8     1.037     0.696  47.70   0
        47    305.0880    962.7544 307.7860995  +6.2895433     962.9005     1063.869     1138.736     80.97836     161.4434     323.0795      1.578     5.07     937.5366     56.94235     159.2329        10     1.307     0.555  61.48   0
        48   1012.9203    962.1156 307.4922064  +6.3134959      759.922     1326.419     1604.307     80.85013     161.8926     323.1437      2.063     5.70     924.6792     56.94235     115.8201         9     1.099     0.909  51.31   0
        49    960.2831    962.4800 307.5140517  +6.3115895     816.9126     1237.769     1074.699     80.97836     161.8285     323.1116      1.588     5.30     926.1395     56.94235     110.0039         8     1.285     0.618  89.99   0
        50    581.6774    961.8536 307.6712842  +6.2991913     1710.665     2474.713     2453.231     81.10638     161.5719     323.0795      1.534     4.44     934.4564     56.94235     252.6223        15     1.343     0.689  57.82   0
        51    620.8283    958.2239 307.6551495  +6.3020010     1338.432     1928.864     1376.155      80.4642     161.4434     322.8867      1.530     4.24     933.6268     56.94235     184.9116        15     1.307     0.767  63.55   0
        52     71.0967    958.8560 307.8833853  +6.2832858     782.6844     1221.179     1197.524     80.85012     161.5076     323.2721      1.828     4.76     936.6756     56.94235     111.6877         6     1.031     0.663  19.74   0
        53     65.8335    958.3429 307.8855879  +6.2833205     547.3229      788.131     1040.898     80.85013     161.5719     323.0474      1.589     2.24     936.6756     56.94235      119.765         5     0.718     0.436 -19.16   0
        54    300.6645    955.9811 307.7881645  +6.2921913      1440.91     2275.448     2159.673     80.59305     161.5719     322.8867      1.630     3.88     937.5992     56.94235     206.0024        14     1.245     0.800  52.16   0
        55    568.5234    954.1721 307.6770043  +6.3019224     662.7145     846.7567      947.931     80.85013     161.5719     323.0153      1.411     4.14     934.5108     56.94235     99.57202         7     1.024     0.478  80.85   0
        56    767.8688    952.1024 307.5942984  +6.3094479     935.0918     1238.067     1234.396     80.85012     161.7002     323.0474      1.413     5.04     930.1734     56.94235     133.1464         9     1.118     0.642  50.26   0
        57    905.3337    948.6382 307.5373329  +6.3154708     7106.134     10723.91     11112.32     80.85013     161.5076     323.1437      1.633     3.93     927.1737     56.94235     953.2408        32     1.444     1.020  61.11   0
        58    143.9438    949.7485 307.8534467  +6.2894973     586.2668     1320.601      1064.06     80.97836     161.5719     323.0153      2.048     6.32     936.9706     56.94235      104.084         8     1.665     0.674   1.68   0
        59    441.2790    945.6005 307.7301282  +6.3011966     2307.263     2924.422     2522.902     80.20589     160.9284     322.8225      1.414     3.43     935.9645     56.94235     311.6708        17     1.224     0.840  56.17   0
        60    411.8313    946.0390 307.7423409  +6.3000278     473.2135     623.7933     705.9562     80.59305     161.3791     322.8867      1.758     4.81     936.1277     56.94235       71.552         5     0.979     0.670  57.68   0
        61    342.8166    944.0974 307.7710627  +6.2985133     10516.08     15199.27     15542.35     80.97836     161.3791     322.8546      1.538     3.67     937.3549     56.94235     1318.982        33     1.398     0.993  59.44   0
        62    262.8632    943.0366 307.8042966  +6.2962661     7550.672     10711.95     11003.89     80.97836     161.6361     323.0474      1.511     3.81      937.745     56.94235     958.8961        29     1.380     0.948  61.24   0
        63    775.1432    937.2474 307.5917761  +6.3158247     808.8438     1175.345     1051.924     80.97836     161.5719     323.1437      1.403     4.54     929.5735     56.94235     157.8563         8     1.259     0.465  55.82   0
        64    590.7745    937.3757 307.6683295  +6.3096028     1132.661     1695.754     2141.493      80.4642     161.3791     322.9831      1.634     5.58     933.7123     56.94235     156.1472        12     1.214     0.722  57.23   0
        65    920.9364    933.5509 307.5313594  +6.3222212     1038.069     1631.164     1791.949     80.85012     161.5076     323.1116      1.766     3.63     926.3478     56.94235     158.1564        10     1.041     0.633  63.09   0
        66    225.2813    932.8485 307.8202448  +6.2992098     554.8411     811.5478     596.0421     80.97836     161.5719     323.0795      2.003     4.96     937.7774     56.94235     98.86493         7     1.588     0.439 -86.36   0
        67    153.5847    933.4984 307.8499923  +6.2965309     676.7134     1035.844     948.3351     80.97836     161.3148     322.7903      1.384     5.09     937.1619     56.94235     95.35364         8     1.194     0.613  58.94   0
        68    877.6899    932.3357 307.5493584  +6.3212790     780.0337     1320.845     1013.426     80.85013     161.7644     323.0795      1.449     4.58     927.6036     56.94235     150.0665         8     1.363     0.438  65.73   0
        69    419.1772    931.7710 307.7397710  +6.3061653     709.2234     1092.112     1257.314      80.4642     161.3791     322.8867      1.950     5.70     935.8303     56.94235     96.44702         8     1.146     0.798  15.37   0
        70    850.5521    926.9434 307.5608082  +6.3225991     627.1099     969.2975     922.4813     80.97836     161.5719     323.1437      1.784     5.16      928.048     56.94235     87.11719         9     1.306     0.576  60.95   0
        71    757.3911    926.6102 307.5995046  +6.3196232     1814.168     2573.663     3339.634      80.4642     161.3791      322.951      1.643     3.52     929.8577     56.94235      234.087        16     1.117     0.894  65.43   0
        72    580.8027    927.0983 307.6728157  +6.3135123     787.3978     1132.718     1056.493     80.72169     161.3148      322.726      1.430     5.10     933.6805     56.94235     127.1882         9     1.287     0.572  35.97   0
        73    621.4250    923.6211 307.6560644  +6.3163083     902.0356     1254.983      1473.66     80.59305     161.3791     322.9831      1.482     5.00      932.863     56.94235     132.7247        12     1.212     0.766  57.53   0
        74      8.0260    924.0377 307.9107489  +6.2955379     1045.878     1673.039     1390.718     80.59305     161.3791     321.5665      1.646     5.10     936.4901     56.94235     155.1196        10     1.142     0.653  68.40   0
        75    542.2831    922.6082 307.6889615  +6.3140758     1245.024     1839.386     2019.378     80.59305     161.2505     322.8867      1.487     4.08     934.3499     56.94235     238.3531        16     1.458     0.796  55.64   0
        76    988.6038    922.3669 307.5036346  +6.3290971     1292.817     1840.249      2561.97     80.20589     161.4434     322.8225      1.572     5.36     924.1683     56.94235     185.4359        12     1.108     0.774  51.82   0
        77    633.0173    922.9915 307.6512719  +6.3169564     841.1504     1206.365     1285.036     80.72169     161.3148     322.8867      1.523     2.77     932.6128     56.94235     144.0568         7     0.842     0.541  44.17   0
        78    675.9761    920.1234 307.6335298  +6.3195784     2765.098     3985.168      3794.81     80.59305     161.4434     323.0153      1.504     3.82     931.6818     56.94235     377.7538        19     1.301     0.842  61.44   0
        79    966.0472    918.3221 307.5131368  +6.3300147     624.3918     853.0012     1406.162     80.85012     161.6361     323.0153      1.544     4.35     924.6171     56.94235     101.5455         7     1.225     0.439  55.68   0
        80     72.3983    916.1439 307.8842879  +6.3009645     3030.906     4705.931     5024.739     80.33515     161.2505     322.7582      1.670     3.89     936.3309     56.94235     393.3599        23     1.371     0.971  64.09   0
        81    836.7225    916.6057 307.5668976  +6.3264055     776.8478     1009.144     853.9125     80.59305     161.0573     322.8867      1.391     4.28     927.9672     56.94235     137.2495         7     0.990     0.527  57.28   0
        82    216.0270    915.1312 307.8246851  +6.3062139     2439.808     3471.402     3644.155     80.59305     161.4434      322.951      1.486     4.03     937.7343     56.94235     346.0096        18     1.344     0.813  71.34   0
        83    954.2354    915.6844 307.5181302  +6.3307097     889.8414      1339.52     1139.519     80.97836     161.5076     323.0153      1.689     5.16     924.8935     56.94235     112.8989        10     1.111     0.676  51.92   0
        84     90.0497    915.1995 307.8769907  +6.3019485     1962.095     2983.559     2874.573     80.20589     161.1861     322.5974      1.590     4.28     936.3462     56.94235     278.1701        19     1.377     0.862  58.97   0
        85    249.8727    911.9846 307.8107377  +6.3086505     856.5553     1382.147     1715.757      80.4642     161.4434      322.951      1.667     5.09     937.8572     56.94235     145.8075        10     1.317     0.701  67.03   0
        86    670.5244    909.2575 307.6361586  +6.3238824     7742.339     11151.89     11588.58     81.10638     161.5719     323.0153      1.586     3.65     931.4493     56.94235     1107.902        31     1.434     0.973  62.90   0
        87    355.0234    910.8276 307.7671151  +6.3126597     1052.112     1580.096      2293.73      80.4642     161.4434     322.8867      2.018     5.21     937.2423     56.94235      166.029        11     1.215     0.683  73.89   0
        88    808.0142    910.4514 307.5790253  +6.3279874     773.0438     998.4598       1278.5     80.33515     161.5719     322.7903      1.651     5.30     928.2864     56.94235      97.4942         9     1.062     0.748  44.15   0
        89     30.6441    907.6413 307.9019120  +6.3030693     1508.821     2243.088     2289.812     80.72169     161.5719     322.9189      1.631     5.54     935.9763     56.94235      182.603        16     1.283     0.920  49.72   0
        90    459.5758    906.6285 307.7238425  +6.3179014     704.7061     690.3199     229.2251      80.4642     161.4434     322.8867      1.298     4.55     935.2826     56.94235     94.42523         8     1.286     0.458  81.11   0
        91    908.2666    905.4904 307.5375608  +6.3333844     2968.881     4321.042     4568.036     81.10638     161.7002     323.0795      1.600     3.90     925.9833     56.94235     386.5231        21     1.462     0.845  42.79   0
        92     43.7764    905.6582 307.8965263  +6.3043302     1306.345     1932.161     2044.227     80.59305     161.5719     322.8867      1.586     5.39     935.9592     56.94235      173.115        15     1.343     0.842  80.81   0
        93    353.5364    902.3520 307.7680181  +6.3161093     18031.81     25417.73        26214     80.85013     161.4434     323.0795      1.550     3.61     937.2682     56.94235     2583.746        38     1.431     0.988  62.47   0
        94     88.2347    903.3189 307.8781457  +6.3067927     1534.566     2059.439     2546.207     80.85013     161.5719     323.0474      1.484     5.22     936.0552     56.94235     230.5167        13     1.086     0.856  59.69   0
        95    362.2092    902.7854 307.7644022  +6.3162215     535.0796     974.2149     1766.599     80.72169     161.3148     322.9189      2.272     4.45     937.0259     56.94235     71.11243         5     0.775     0.726  42.20   0
        96    224.5925    902.1506 307.8215664  +6.3118612     1319.207     1675.987     1552.992      80.4642     161.3148     322.6617      1.401     3.82     937.8237     56.94235     219.7108        12     1.255     0.609  53.36   0
        97    404.3596    901.4120 307.7469461  +6.3182031     691.6555     869.3984     853.7734     80.33515     161.3791     322.7903      1.309     4.76     935.7258     56.94235     140.8032         9     1.280     0.502  50.50   0
        98    683.0877    894.0699 307.6314517  +6.3305738     640.8798     786.5307     874.9663     81.10638     161.8285     323.0474      1.364     4.41     930.7072     56.94235     110.4858         6     1.107     0.499  59.54   0
        99    116.6632    893.0047 307.8666900  +6.3120078     1736.668     2468.451     2370.846     80.33515     161.3148     322.8225      1.454     4.04     936.3032     56.94235     249.8748        18     1.366     0.854  60.60   0
       100    431.5288    893.3195 307.7359368  +6.3224558     1012.108     1439.642     1699.299     81.23421     161.8926     323.0795      1.452     4.21     935.1208     56.94235     173.1341        10     1.174     0.681  25.02   0
       101    511.9604    890.3588 307.7026375  +6.3263752      686.603     1147.463      1292.75     80.72169     161.6361     322.9189      1.596     4.66     934.2373     56.94235     107.0385         7     1.032     0.597  55.45   0
       102    685.0765    889.4211 307.6307820  +6.3325598     835.4359     1243.728     1361.863     80.59305     161.3148     322.9831      1.434     4.72     930.5068     56.94235     130.8201         9     1.161     0.545  60.32   0
       103    898.7205    887.3608 307.5421325  +6.3405515     2244.237     3221.227     3685.133     80.85013     161.6361     323.0153      1.542     3.44     925.7394     56.94235     312.7222        18     1.277     0.832  61.18   0
       104    869.3326    886.5985 307.5543619  +6.3398848     2201.406     3180.604     3642.332      80.4642     161.1217     322.8546      1.613     4.06     926.5044     56.94235     334.3395        18     1.417     0.791  62.22   0
       105    832.5657    886.0751 307.5696475  +6.3388727     3232.201     4796.971     5683.192     80.85012     161.5719     323.0153      1.607     4.19     927.3826     56.94235     415.8575        21     1.394     0.862  62.03   0
       106    100.3394    886.3635 307.8736923  +6.3142006     2716.103     3828.009     3890.252     80.97836     161.6361     323.0153      1.515     3.89     935.7859     56.94235     374.0153        17     1.313     0.785  63.82   0
       107    463.1434    884.2850 307.7231131  +6.3272464     801.4426      1096.49     1434.544     80.97836     161.5719     323.1758      1.343     4.84     934.7825     56.94235     113.3997         7     1.193     0.556  55.48   0
       108    348.3389    884.6761 307.7707719  +6.3232330     671.0424     1156.511     1479.373     81.23421     161.5719     323.0474      1.657     5.40     937.3559     56.94235     99.67981         8     1.243     0.661  48.49   0
       109    568.6155    877.5800 307.6795411  +6.3335498     370492.8     519559.4     538613.6     80.72169     161.3148      322.951      1.542     4.32     932.9586     56.94235     52073.71       155     1.595     1.169  62.67   4
       110    656.2719    880.6804 307.6430369  +6.3352048     1224.026     1720.899     1386.772     81.23421     161.8285     323.0795      1.566     4.12     930.9996     56.94235     211.1416        12     1.211     0.672  61.92   0
       111    602.6053    881.4969 307.6652950  +6.3330710     3840.597     3784.612     3463.703     80.72169     161.2505     322.7903      0.791     0.89     932.4263     56.94235     1615.445         5     0.628     0.383 -52.42   0
       112    412.8674    880.1019 307.7441309  +6.3272872     8583.283      12371.4     13123.19     80.97836     161.7002     323.0795      1.528     3.65     935.1205     56.94235      1070.52        28     1.405     0.910  64.97   0
       113    356.0811    878.5520 307.7677633  +6.3260214      14142.5     19751.48     20748.98     80.97836     161.5719     323.0795      1.514     3.70     937.1891     56.94235      1847.91        37     1.394     1.010  59.95   0
       114    907.0696    873.7621 307.5391210  +6.3464452     5506.189     8099.403     9511.266     80.85013     161.5719     323.1758      1.589     3.76     925.1917     56.94235     757.4484        28     1.461     0.955  61.82   0
       115    674.4447    874.8435 307.6356865  +6.3382230     3851.402     5284.301     5361.478     80.97836     161.5719     323.0153      1.491     3.66     930.3103     56.94235     552.0077        22     1.402     0.856  62.98   0
       116    746.3049    871.6463 307.6059529  +6.3419470     868.7404     1279.493     1386.209     80.85013     161.5076     323.1758      1.495     5.12     928.7461     56.94235     136.3423         9     1.208     0.614  55.71   0
       117    649.3369    868.8947 307.6463127  +6.3398390     3711.566     5265.962     6052.751     80.85013     161.7002     323.1116      1.518     3.61     930.8795     56.94235     518.9548        19     1.297     0.808  58.65   0
       118    837.6757    868.0385 307.5681303  +6.3464908     1638.655     2528.781     2843.274     80.85012     161.6361     323.0474      1.589     3.88     926.8514     56.94235     241.0952        17     1.326     0.850  53.16   0
       119    639.5614    867.6620 307.6504135  +6.3400207     1135.451     1393.712     1566.819     80.97836     161.5719     323.0795      1.376     5.25     931.1313     56.94235     184.0195        13     1.383     0.695  54.08   2
       120    642.2887    863.4031 307.6494241  +6.3418705     2154.749     3154.856     3225.838     80.33515     161.2505      322.726      1.641     4.16     930.9214     56.94235     345.6411        19     1.429     0.890  56.01   2
       121    192.2742    869.1724 307.8360987  +6.3243909     612.1764     603.8637     375.5781     80.85013     161.5076     323.0153      1.255     4.30     937.5445     56.94235      96.1543         6     0.790     0.667 -12.20   0
       122    964.8552    867.0526 307.5153488  +6.3511443     882.4428     1214.754     1670.863     81.10638     161.5719     323.0153      1.369     4.38     922.4775     56.94235     132.8462         8     0.883     0.618  44.18   0
       123    925.7983    861.6357 307.5317498  +6.3520774     3287.813     4866.264      5063.57     80.07642     161.3791     322.8546      1.571     3.76     924.4401     56.94235      451.444        20     1.360     0.816  56.26   0
       124    335.9675    862.4338 307.7766585  +6.3320011     1058.396     1632.653     1479.808      80.4642     161.3148     322.7903      1.550     3.71     937.4155     56.94235     152.4955        10     1.025     0.650  59.58   0
       125    383.9135    857.6329 307.7569107  +6.3355929     2964.443     4366.924     4416.077     80.97836     161.3791     323.0474      1.536     3.84     935.8816     56.94235     369.9304        21     1.300     0.874  60.27   0
       126    352.2194    850.7503 307.7703037  +6.3373708     584.5207     609.1418      404.963      80.4642     161.6361     322.8867      1.362     4.04     936.7546     56.94235     107.8614         6     1.099     0.425  60.06   0
       127    520.3022    847.2411 307.7006241  +6.3444577      3322.39     4769.545     5121.813     80.97836     161.4434     323.2721      1.540     3.98     932.8848     56.94235     498.5751        21     1.428     0.808  53.41   0
       128    864.9020    846.4292 307.5575484  +6.3563228     1169.802     1832.885     1933.198     81.10638     161.3148     323.0474      1.639     3.85     925.4719     56.94235     184.0067        13     1.202     0.813  55.08   0
       129    585.2640    844.7695 307.6737307  +6.3476548      776.513     1213.733     771.1092     80.72169     161.6361     322.9831      1.554     4.53     931.5129     56.94235     131.8608         8     0.957     0.608  76.42   0
       130    567.0284    843.3855 307.6813500  +6.3476154      6498.05     9098.018     9117.903     80.59305     161.3791      322.951      1.487     3.77      931.789     56.94235     866.7556        25     1.340     0.877  62.59   0
       131    574.0682    842.8413 307.6784448  +6.3480759     1480.347     2071.672     1812.712     80.85013     161.5076     323.1437      1.523     4.30     931.6456     56.94235     193.6125        12     1.186     0.690  60.77   0
       132    484.9023    842.4225 307.7154865  +6.3452606     1804.406     2496.483     2764.382     80.97836     161.3148     322.8867      1.526     3.99     933.3992     56.94235     255.5942        15     1.287     0.742  72.66   0
       133    278.2986    843.4924 307.8012440  +6.3378850     701.5643     691.1584     237.0887     80.97836     162.0848     322.9831      1.316     4.71     937.6803     56.94235     100.8817         9     0.996     0.698  37.64   0
       134    902.6984    841.6063 307.5420139  +6.3595764     1530.395     2010.471     2152.955     80.72169     161.1861     322.8225      1.533     3.84     924.4235     56.94235     206.2249        15     1.217     0.797  63.64   0
       135    126.4661    841.3953 307.8643624  +6.3336461     1647.826     2461.326     2447.456      80.4642     161.2505     322.8546      1.559     4.34     935.7745     56.94235     229.4889        15     1.377     0.735  52.70   0
       136    702.9219    840.6925 307.6250077  +6.3532767     868.7763     1015.156     1454.025     80.72169     161.7644     323.0795      1.389     5.12     928.9436     56.94235     157.6184         8     1.152     0.643  46.89   0
       137    537.7179    837.2717 307.6937273  +6.3491577     22301.84     31074.41     32107.02     81.23421     161.8926     323.0795      1.510     3.69     932.1461     56.94235     3121.661        40     1.414     0.974  63.84   0
       138    379.0960    839.0754 307.7595363  +6.3430933     674.1589     870.8959      540.568     80.59305     161.7002     323.1116      1.402     4.76     935.5529     56.94235     122.2737         9     1.167     0.575  66.75   0
       139    951.4282    835.5639 307.5219795  +6.3636979     4085.782     5770.334     5779.991     80.59305     161.3148     322.8546      1.531     3.65     922.3646     56.94235     585.4662        27     1.409     0.944  50.47   0
       140    423.7710    832.9494 307.7411909  +6.3471218     612.2994     847.4057     697.7145     80.59305     161.7002      322.951      1.424     3.05     934.3411     56.94235     113.0266         5     0.805     0.475  36.24   0
       141     48.0378    827.7448 307.8973901  +6.3366423     1661.611     2509.045     2353.842     80.97836     161.6361     323.0795      1.582     4.66     934.6989     56.94235     200.7466        17     1.299     0.873  70.09   0
       142    330.3524    825.9546 307.7802196  +6.3468744     3589.077     5279.446     5510.659     80.97836     161.4434     323.0474      1.555     3.41     936.4081     56.94235     501.4434        23     1.374     0.848  63.39   0
       143    795.9070    821.8504 307.5870252  +6.3641660     59567.46     84937.41     87493.32     80.85012     161.3791       323.24      1.517     3.71     926.3831     56.94235     8210.734        58     1.473     1.036  59.45   0
       144     30.2263    823.9753 307.9049135  +6.3375988     2379.091     3587.915      3972.25      80.4642     161.3791      322.951      1.599     4.00     934.5396     56.94235     323.3443        20     1.408     0.870  58.21   0
       145    734.6207    823.5095 307.6124208  +6.3614319     838.8809     1002.398       1043.7     80.85013     161.3791     322.9189      1.547     4.75     928.2069     56.94235     168.0795         9     1.289     0.530  58.72   0
       146    253.1030    819.5942 307.8125125  +6.3469055     5703.221     8730.348     11123.02     80.72169     161.2505     322.8546      1.786     3.63       936.68     56.94235     708.8993        32     1.535     1.062  53.37   0
       147    438.8545    820.3413 307.7353518  +6.3528335     940.2712     1277.081      1135.14     81.10638     161.5076     323.0474      1.481     4.67     933.8231     56.94235     138.0491         8     1.128     0.549  55.95   0
       148    724.1387    816.4565 307.6170106  +6.3639934     23791.09     33814.07     35987.69     81.10638     161.5719     323.0795      1.543     3.78      928.242     56.94235     3334.891        49     1.540     1.026  64.86   3
       149    717.8340    812.9327 307.6197472  +6.3652375     96605.98     136663.6     141965.8     80.85013     161.6361     323.1437      1.508     3.73     928.2677     56.94235     13258.02        75     1.515     1.062  62.42   3
       150    921.2300    817.1022 307.5351391  +6.3703129     9247.134     13588.29     14274.19     81.10638     161.3148     323.0795      1.554     3.77     923.2375     56.94235     1239.006        35     1.481     0.973  54.29   0
       151    362.7091    813.7641 307.7671939  +6.3529940     22985.31     32455.56      33511.3     81.10638     161.5076     323.0795      1.540     3.60     935.1063     56.94235     3193.993        46     1.459     1.002  60.93   0
       152    221.6812    815.7101 307.8256916  +6.3474531        630.2     802.4542     1193.834     80.72169     161.7644     323.1116      1.595     4.35     935.8412     56.94235     84.35675         7     1.182     0.455  31.16   0
       153    411.8489    813.7354 307.7467888  +6.3546551     1524.249     2233.224     2357.094     80.85013     161.4434     323.0474      1.476     4.70     934.4108     56.94235     221.6699        13     1.222     0.742  52.46   0
       154    651.5852    813.5338 307.6472390  +6.3627725     752.3962     991.2023     1399.466      80.4642     161.4434     322.9831      1.530     3.71     929.0196     56.94235     134.5602         7     1.017     0.740  55.91   0
       155    424.6103    811.6431 307.7415598  +6.3559471     24662.52     34648.27      36007.5      80.4642     161.3791     322.7903      1.537     3.53     934.0947     56.94235      3513.95        45     1.413     1.023  61.70   0
       156    961.4409    810.6535 307.5186557  +6.3743177     2169.141     3664.069     4145.521     80.85013     161.6361     323.0795      1.837     4.48     921.1096     56.94235     271.4474        20     1.463     0.926  48.88   0
       157    252.6736    798.0951 307.8134160  +6.3557678     765950.9      1625482      1774042     80.72169     161.7644     323.0474      2.162    12.67     936.0184     56.94235     63769.72       555     2.372     1.991  72.24   4
       158    891.1144    809.3239 307.5479066  +6.3725191     743.3079     1127.418     848.6797     81.10638     161.8926     323.1116      1.610     4.42     923.8891     56.94235     118.5256         7     1.096     0.590  56.25   0
       159    658.6652    807.5444 307.6445000  +6.3654825      7112.85     9651.477      10077.6     81.10638     161.4434     323.0474      1.517     3.73     928.7686     56.94235     984.9905        25     1.375     0.870  64.23   0
       160    447.3788    805.6356 307.7323070  +6.3591913     1743.132     2416.867      2460.56      80.4642     161.3791     322.7903      1.442     3.68     933.3449     56.94235     287.6505        13     1.140     0.731  58.43   0
       161    398.6971    807.1533 307.7524720  +6.3569314     536.5338     632.8876     537.6496     80.97836     161.4434     323.2079      1.292     3.48     934.4781     56.94235     98.50647         5     0.995     0.352  44.58   0
       162    148.2584    807.2659 307.8564657  +6.3484706     577.7274     763.8055     727.4295     81.10638     161.5076     323.0795      1.377     3.62     935.3591     56.94235     109.1644         5     0.929     0.405  45.15   0
       163    172.5886    804.9906 307.8464393  +6.3502284     733.2191     790.8746     580.6964     80.72169     161.3791     322.9831      1.281     4.49     935.3746     56.94235     134.4247         7     1.139     0.503  60.98   0
       164    886.8922    799.6147 307.5499855  +6.3763870     1004.894     1313.639     1550.642     80.72169     161.3791     322.8546      1.387     4.00     923.7768     56.94235     158.6072        10     1.056     0.623  60.68   0
       165    611.6202    799.3684 307.6643118  +6.3672833     1095.471     1392.695     1705.362      80.4642     161.3791     322.9189      1.597     5.25     928.7389     56.94235     158.4401        11     1.270     0.614  59.65   0
       166    162.8406    798.5394 307.8507050  +6.3525641     1074.943      1532.35      1575.42     80.97836     161.5719     323.1116      1.498     4.63     935.2362     56.94235     160.0839        13     1.295     0.854  65.51   0
       167    693.6989    797.5840 307.6302856  +6.3707675     2681.209     3872.901     3954.591     80.97836     161.3148     322.8546      1.576     3.89     928.1923     56.94235     403.7819        17     1.264     0.867  53.39   0
       168    427.5352    794.2954 307.7409294  +6.3632079      59854.2     83643.64     86656.38     80.97836     161.7002     323.0795      1.544     3.54     933.5393     56.94235     8582.529        64     1.468     1.084  61.83   0
       169    137.7874    798.1020 307.8611233  +6.3519019     1246.706     1773.395      1446.97     80.72169     161.3148     322.8225      1.545     4.39     935.1652     56.94235     185.0731        14     1.314     0.727  69.96   0
       170    970.0928    795.5190 307.5155695  +6.3808555     842.4132     981.2965     981.7659     80.72169     161.8926     323.1116      1.401     4.77     920.2425     56.94235     105.3201         9     1.125     0.572  62.36   0
       171    545.2706    793.3129 307.6920694  +6.3675610     7757.992     10959.08     10802.33     81.10638     161.8285     323.0474      1.513     3.62     930.2467     56.94235     1183.595        28     1.369     0.908  60.98   0
       172    462.0468    791.9391 307.7266768  +6.3653383     4900.605     6960.699       8015.7     80.85013     161.5076     323.1116      1.524     3.69      932.415     56.94235     636.8529        26     1.412     0.895  60.79   0
       173    790.4832    789.9429 307.5903483  +6.3771593     12690.74     17986.38     18780.22     80.97836     161.5719     323.1437      1.512     3.51     925.4489     56.94235     1764.912        35     1.411     0.988  58.16   0
       174    918.0956    808.4964 307.5367292  +6.3737616     7466.038     10762.63     11208.28     80.97836     162.2128     322.8867      1.541     3.63     923.0632     56.94235     977.8837        27     1.415     0.908  54.94   0
       175    229.4685    785.1103 307.8234903  +6.3603491     650.9329     2024.223     4697.869     81.10638     161.7644     323.0474      4.144     5.44     934.9334     56.94235     164.3582         8     1.528     0.631 -70.27   2
       176     19.7657    785.7997 307.9105478  +6.3530083     1170.707     1903.177     2063.927     79.94675     161.3791     322.8225      1.796     5.85     934.4594     56.94235     158.7863        13     1.416     0.680  74.88   0
       177    458.5606    785.3435 307.7283466  +6.3679447     2539.872      3227.13     3281.514     80.97836     161.6361     323.0153      1.444     3.59     932.2383     56.94235     372.4355        16     1.191     0.771  62.02   0
       178    812.2335    784.2277 307.5815071  +6.3802461     1256.919     1489.116      1090.83      80.4642     161.3148     322.8225      1.432     5.17     924.7326     56.94235     182.1741        13     1.173     0.802  54.47   0
       179    979.7552    783.4482 307.5119610  +6.3861619     664.2134     922.6156     1001.463     80.97836     161.4434     323.0153      1.496     4.15     919.4755     56.94235      119.838         7     1.131     0.604  75.27   0
       180    156.3112    782.2179 307.8539675  +6.3590833     3391.206      4884.27     5184.566     80.72169     161.3148      322.951      1.540     3.69     935.1707     56.94235     484.7512        22     1.402     0.866  57.99   0
       181    148.2903    781.8876 307.8573094  +6.3589499     12713.05     18201.33     19401.25     80.72169     162.0208     323.1758      1.517     3.66     935.1439     56.94235      1734.37        38     1.399     1.031  56.02   2
       182    140.5597    779.2480 307.8606088  +6.3597796     3120.725      4781.54     5490.351     80.85013     161.5719     322.9189      1.650     3.65     935.1104     56.94235     420.8597        23     1.520     0.912  52.97   3
       183    140.5571    772.6349 307.8608331  +6.3625099     2114.634     3059.239     3262.239     80.72169     161.5719     322.8867      1.545     3.77     935.0902     56.94235     311.5433        17     1.291     0.823  67.17   3
       184    936.0167    778.5184 307.5302910  +6.3867378     6900.827     9937.151     10604.81     80.59305     161.2505     322.9189      1.528     3.58     921.4672     56.94235     913.0102        26     1.383     0.915  58.51   0
       185    985.3160    778.5445 307.5098158  +6.3883722      1591.14     2470.689     3326.109     80.97836     161.5719     323.1758      1.735     4.55     919.1633     56.94235     230.5618        15     1.355     0.736  42.46   0
       186    691.6167    776.2294 307.6318675  +6.3795151     1971.286     2782.894     3269.498     80.59305     161.3148     322.9831      1.549     3.71     927.4323     56.94235     276.8646        16     1.259     0.795  58.99   0
       187    578.4272    775.4092 307.6789020  +6.3760642      2378.19     3347.658     3062.757     80.59305     161.3791     322.9189      1.421     3.74      928.736     56.94235     363.3494        15     1.287     0.695  61.82   0
       188    426.3095    774.7928 307.7420951  +6.3712192     1305.801     1868.485     1756.987     80.59305     161.2505     322.8225      1.526     4.63     932.6726     56.94235     173.4683        15     1.283     0.827  62.68   0
       189    709.8232    773.2090 307.6244078  +6.3813714     489.5061      415.795     219.7691     80.59305     161.3148     322.8867      1.539     3.52     926.9603     56.94235     75.67395         5     1.036     0.344  45.25   0
       190    930.2549    770.5402 307.5329512  +6.3898397       3093.7     4451.519     4651.395     81.10638     161.5719     323.0153      1.584     3.49     921.4865     56.94235     445.8096        21     1.375     0.822  54.58   0
       191    990.3964    769.8759 307.5079961  +6.3921210     2079.671     3117.717     3495.398      80.4642     161.0573     322.9189      1.611     3.91     918.7792     56.94235     301.5224        18     1.388     0.807  55.59   0
       192    959.7036    770.0726 307.5207366  +6.3910156     3176.753     4576.936     4993.186     80.72169     161.7644     323.0153      1.559     3.92     920.1164     56.94235     434.4825        18     1.218     0.824  59.61   0
       193    682.4988    769.7072 307.6358732  +6.3819030     1534.482     2164.195     2406.739     80.97836     162.1488     322.9831      1.616     4.08     927.4346     56.94235     209.2976        15     1.196     0.799  59.77   0
       194    829.9903    768.2092 307.5746700  +6.3874535     934.4208      1028.87     814.0723     80.59305     161.3791      322.951      1.256     4.85     924.0057     56.94235     155.8655        10     1.298     0.577  55.57   0
       195    905.0573    765.8120 307.5435745  +6.3909508     799.9714     1213.968     1341.286     80.33515     161.4434     322.7582      1.379     4.74     922.1327     56.94235     140.8132         9     1.208     0.563  56.24   0
       196    255.2175    764.7796 307.8134834  +6.3696087     2117.789     2946.148     3879.949     80.72169     161.3791      322.951      1.595     3.60     934.7444     56.94235     290.6588        15     1.128     0.851  58.88   0
       197    692.1723    762.5408 307.6320965  +6.3851856     723.1045     1078.623     1440.911     80.59305     161.6361     322.9189      1.740     5.58     926.9711     56.94235     101.9706         9     1.202     0.729  43.48   2
       198    694.0527    757.2393 307.6314937  +6.3874376     981.7141     1353.807     1667.621     80.85012     161.5719     323.0153      1.451     5.68     926.7047     56.94235     137.1553        10     1.142     0.796 -89.69   2
       199    947.7092    760.2870 307.5260458  +6.3946558     1061.646     1381.187     1091.495     80.72169     162.0208     323.1758      1.466     4.73     920.3716     56.94235     170.3589         9     1.014     0.626  40.78   0
       200    275.7604    760.3867 307.8051006  +6.3721127      763.837     1082.142     1118.007      80.4642     161.3791     322.7903      1.570     4.60     934.7669     56.94235      98.7323         8     0.990     0.607  68.64   0
       201    170.8688    759.9520 307.8486740  +6.3687661     875.0422     963.6327     1132.037     80.97836     161.5076     323.0474      1.480     4.71     934.9812     56.94235     127.7725         9     1.252     0.502  57.34   0
       202    974.7181    757.9095 307.5149083  +6.3965388     2826.217     4124.206     4545.941     80.72169     161.8285     323.1437      1.535     3.62     919.2001     56.94235     405.1765        19     1.311     0.819  54.76   0
       203    921.7369    758.9413 307.5368775  +6.3943445     1170.402     1641.877     1904.985     81.10638     161.5076     323.0795      1.473     5.33     921.3594     56.94235     165.5826        12     1.200     0.820  80.35   0
       204    485.5892    752.6185 307.7182235  +6.3823629     752.5449     1070.231     1056.693     80.59305     161.2505     322.9189      1.355     3.72     930.4675     56.94235      130.226         9     1.107     0.548  46.01   0
       205   1016.2776    751.3334 307.4978681  +6.4006405     1783.492     2658.056     2539.286     81.10638     161.6361     323.0153      1.584     3.83     917.4398     56.94235     282.1569        17     1.323     0.783  41.83  16
       206    642.9737    751.1567 307.6529112  +6.3882395     702.8331     951.9255     743.8408     80.59305     161.6361      322.951      1.233     3.93      927.192     56.94235     99.32275         6     0.929     0.477  35.89   0
       207    911.2479    749.3314 307.5415558  +6.3979623     471.7072     554.8241     184.3693     80.97836     161.5076     323.0474      1.510     4.96     921.3901     56.94235     97.73688         5     1.133     0.615 -65.30   0
       208    817.7061    749.5542 307.5803975  +6.3947456     1302.653     1709.979     1595.411     80.85013     161.5076     323.1758      1.370     4.38     923.6748     56.94235     179.4633        11     1.101     0.663  54.87   0
       209    904.0728    746.9138 307.5446168  +6.3987209     1688.008     2672.976      2624.76     81.10638     161.8926     323.0474      1.712     4.41     921.5543     56.94235     204.1449        20     1.387     0.932  53.05   0
       210    878.5248    742.3399 307.5553806  +6.3997563     987.9968     1440.501     1512.494     81.23421     161.5719     323.0153      1.424     4.38     922.2169     56.94235     168.8909        11     1.317     0.585  53.59   0
       211    663.8490    741.0474 307.6445813  +6.3931123     517.7444     557.1546     261.9021     80.97836     161.4434     323.0795      1.259     4.75     926.8461     56.94235     84.94031         5     0.993     0.645  54.76   0
       212    860.9999    738.4415 307.5627897  +6.4007806     1745.141     2317.526     2220.134     80.20589     161.1861      322.726      1.426     3.79     922.6218     56.94235     255.6635        14     1.209     0.742  63.65   0
       213    123.8062    736.1232 307.8690224  +6.3770213     907.8248     1857.763     1904.933     80.59305     161.0573     322.8867      2.118     7.22     934.8766     56.94235      129.574        14     1.851     0.790  80.58   0
       214     59.9584    737.1887 307.8955006  +6.3744322     2763.168     4152.633     3970.296     80.33515     161.3791     322.7903      1.535     3.59     934.6164     56.94235     410.6028        18     1.224     0.833  54.91   0
       215    577.6862    732.3984 307.6806559  +6.3937983     532.2815     930.3939     206.4318     80.20589     161.1217     322.7582      1.528     3.40     927.2239     56.94235     93.41827         5     0.738     0.453 -18.51   0
       216    672.5672    725.8644 307.6414707  +6.3996731     6881.581     9708.603     10014.15     80.85013     161.5719     323.0153      1.522     3.68     926.1315     56.94235     936.0854        28     1.422     0.873  57.90   0
       217    619.3816    725.0957 307.6635851  +6.3982100      1594.41     2283.481     2635.842     80.85013     161.3791     322.8225      1.527     4.06     926.4744     56.94235     231.5118        13     1.323     0.647  52.38   0
       218    541.3729    725.9713 307.6959532  +6.3952353     800.0923     963.9344     754.3532      80.4642     161.3791     322.8867      1.274     4.13     927.6812     56.94235     128.0579         7     0.776     0.626  67.48   0
       219    530.3702    725.3843 307.7005425  +6.3951089     871.4192     1260.241     1263.284     80.59305     161.3148     322.9831      1.496     5.26      927.998     56.94235     145.2722         9     1.343     0.593  64.12   0
       220    135.6519    721.7397 307.8645890  +6.3833585      3912.72     5732.141     5268.948     80.97836     161.5076     323.0474      1.565     3.70     934.6028     56.94235     540.6852        24     1.339     0.984  60.72   0
       221   1009.5210    721.2487 307.5016816  +6.4128373     2778.925     3668.507     3798.238     80.97836     161.6361     323.0153      1.467     3.32     917.1313     56.94235     400.5812        20     1.293     0.862  70.32   0
       222    322.1952    722.1639 307.7871058  +6.3894542     743.8575     1290.091     1221.618     80.07642     161.3148     322.8546      1.670     5.36     932.2164     56.94235      102.735         9     1.231     0.658  57.95   0
       223    646.5108    721.4494 307.6524406  +6.4006239     2471.624      3356.56     3202.508     80.97836     161.3791     323.1437      1.500     3.63     926.1003     56.94235      363.578        16     1.197     0.795  50.84   0
       224    919.5930    717.6939 307.5391503  +6.4113041     4208.733     5974.727     6363.783     80.59305     161.2505     322.8546      1.590     3.79     920.0867     56.94235     601.4042        24     1.445     0.929  68.33   0
       225    258.2583    721.4026 307.8136838  +6.3876205     642.4756     763.9207     887.5206     80.33515     161.3791     322.7903      1.099     3.36     933.1257     56.94235     109.9733         5     0.777     0.420  22.71   0
       226    789.4999    717.9504 307.5931723  +6.4068521     22415.66     30995.04     31814.96     80.97836     161.5719     323.2079      1.495     3.45     923.2313     56.94235     3176.532        40     1.405     0.963  62.15   0
       227    488.6201    718.4336 307.7181154  +6.3965792     1525.804     2142.069     1982.397      80.4642     161.3791     322.8546      1.489     3.76     928.9789     56.94235     241.9775        15     1.343     0.734  55.43   0
       228    471.5667    719.3581 307.7251666  +6.3956256     577.6202     759.1752     632.7098     80.72169     161.5719     322.8546      1.795     4.12     929.4445     56.94235     92.52026         5     0.986     0.491  47.89   0
       229    516.8116    717.8945 307.7064254  +6.3977469     996.7698     1521.059     1539.228     80.72169     161.2505     322.8225      1.538     4.15     928.1393     56.94235     154.6346         9     1.024     0.618  59.37   0
       230    334.5290    717.7172 307.7821335  +6.3917044     696.2065     880.1691     811.5359     81.23421     161.8926     323.0795      1.736     4.05     931.7561     56.94235     123.0828         5     0.950     0.492  84.22   0
       231    290.1841    717.2573 307.8005651  +6.3904048     692.4761      979.595     1074.563     80.33515     161.5076     322.7903      1.583     5.40     932.9454     56.94235     95.34381         7     1.280     0.643  62.03   0
       232     98.5800    714.5892 307.8802257  +6.3850632     542.0238     803.3154     817.7328     80.59305     161.2505     322.9189      1.341     4.70      934.442     56.94235     111.7461         6     1.031     0.607  28.19   0
       233    670.0488    710.8033 307.6430226  +6.4058075     7646.729     10979.41     11290.39     80.33515     161.3148     322.6296      1.505     3.71       925.38     56.94235     1036.369        28     1.353     0.912  61.29   0
       234    263.0230    711.5353 307.8120380  +6.3918547     6572.184     9656.477     10091.39     80.59305     161.5719      322.951      1.565     3.83       932.85     56.94235     854.9552        28     1.415     0.920  59.69   0
       235    652.2844    711.7157 307.6503698  +6.4048362     930.8887     1160.619     752.3593     80.72169     161.7002     323.1437      1.322     4.83     925.6575     56.94235     164.5729         8     1.181     0.560  50.57   0
       236    365.3221    710.9750 307.7695724  +6.3955220      716.928     1117.398     942.9423     80.59305     161.5076     323.0153      1.362     2.84     930.9564     56.94235     127.8752         5     0.784     0.485  36.76   0
       237    930.4030    703.4538 307.5351378  +6.4175447     1480.946     2114.351     1785.942     80.33515     161.3148     322.6617      1.594     4.56     919.2206     56.94235     223.8582        15     1.208     0.893  24.16   0
       238    741.7465    699.1603 307.6136361  +6.4130137     3940.777     5780.213     6184.501     80.85013     161.5719     323.0474      1.614     3.65     923.0422     56.94235     511.0791        25     1.436     0.879  56.83   0
       239    696.8089    699.3708 307.6322927  +6.4114235     1016.603     1720.582     2277.604      80.4642     161.3791     322.8546      2.066     7.31     924.0972     56.94235       159.58        13     1.289     1.160 -27.50   0
       240   1008.1242    695.8065 307.5031137  +6.4232958     9558.581     14108.16     14844.97     80.59305     161.0573     322.8867      1.559     3.58      916.585     56.94235      1298.09        34     1.447     0.971  54.58   0
       241    946.5480    696.2605 307.5286732  +6.4210538     2498.823     3631.215     3592.533     80.97836     161.5076     323.0474      1.583     4.25     918.4612     56.94235     335.4326        19     1.407     0.825  67.66   0
       242      7.2810    698.1688 307.9186954  +6.3887683      725.622     943.9076     1185.802     80.85013     161.4434     317.2788      1.425     3.93     934.0197     56.94235     112.7165         6     0.793     0.558  43.16  16
       243     26.9904    695.6164 307.9105968  +6.3904861     2069.203     3290.938     4043.802     80.72169     161.3148     322.9189      1.748     4.84     934.0338     56.94235     331.4851        20     1.419     1.100  41.39   0
       244    560.4899    693.8096 307.6890955  +6.4091552     636.3849     819.9854     897.6085     80.72169     161.2505     322.8546      1.587     3.51     926.3456     56.94235     121.1607         5     1.252     0.284  37.07   0
       245    444.2705    693.7075 307.7373665  +6.4053010      797.665     1114.879     1122.794     80.97836     161.7002     323.0795      1.544     4.42     929.1715     56.94235     135.1439         9     1.127     0.685  58.76   0
       246     85.4247    690.5625 307.8865008  +6.3945405     28291.08      40216.3     41988.32     80.59305     161.3791     322.7903      1.557     3.53     934.0545     56.94235     3999.832        47     1.459     1.038  64.22   0
       247    546.6625    691.6487 307.6949110  +6.4095841      2234.59     2789.213     2296.073     80.85013     161.5076     323.1116      1.342     3.13     926.4505     56.94235     350.8335        14     1.128     0.717  60.84   0
       248    515.3842    688.9774 307.7079912  +6.4096387     1440.607     1947.002     2003.847     80.72169     161.3791      322.951      1.427     3.88     927.0587     56.94235     241.2884        13     1.221     0.708  72.49   0
       249    936.3570    688.0206 307.5331820  +6.4241158     1136.251     1534.877     999.2563      80.4642     161.4434     322.8867      1.529     4.81     918.5349     56.94235      192.494        11     1.316     0.597  51.85   0
       250    555.8651    685.2980 307.6913026  +6.4125146     1165.007     1630.277     1562.958     80.97836     161.6361     323.0795      1.443     3.57     926.1195     56.94235     198.1873        11     1.144     0.604  63.71   0
       251    753.4463    681.1344 307.6093820  +6.4208478      4521.06     6418.425      6387.96     80.97836     161.5076     323.0474      1.517     3.63     922.3522     56.94235     671.8124        23     1.392     0.850  62.61   0
       252    731.3284    682.8055 307.6185122  +6.4194181     3847.446     5380.686     5043.355     80.59305     161.1217      322.951      1.492     3.65     922.6163     56.94235     542.2664        22     1.372     0.810  59.64   0
       253    584.8937    679.0698 307.6794559  +6.4160587     3463.435     4916.302      4669.51     80.85013     161.6361     323.0474      1.473     3.69      925.592     56.94235     469.2905        20     1.297     0.819  59.39   0
       254    421.0805    679.4202 307.7474787  +6.4104220     1558.504     2212.042     2203.394     80.72169     161.2505     322.9831      1.397     3.64     929.5026     56.94235     242.7944        12     1.170     0.654  56.35   0
       255    245.5124    678.5134 307.8204241  +6.4049004     2008.753     2944.509     3177.605     80.72169     161.8285     323.1437      1.608     4.24     931.8669     56.94235     277.4556        16     1.314     0.756  61.46   0
       256    329.1875    678.0159 307.7856902  +6.4079171     1677.467      2482.24     2167.703     80.72169     161.2505     322.9831      1.521     3.80     930.8574     56.94235     213.2562        15     1.195     0.798  59.56   0
       257    991.7451    676.1565 307.5105746  +6.4308630     8704.852     12561.06     13178.19     80.97836     161.5719     323.0474      1.554     3.73     916.5482     56.94235      1171.66        32     1.442     0.933  56.86   0
       258    545.9135    676.8720 307.6957192  +6.4156602      516.223     663.5446     689.7734     81.10638     161.8285     323.0474      1.365     3.71     925.9892     56.94235     97.84503         5     1.027     0.386  57.06   0
       259    711.7678    674.9465 307.6269002  +6.4220087     1093.982     1694.466     1649.029     80.85013     161.5719     322.9831      1.712     5.33      922.681     56.94235     144.8459        10     1.213     0.662  58.89   0
       260    102.9560    672.6412 307.8798258  +6.4025299     1008.216     1517.648     1852.051     80.72169     161.5719     322.9189      1.742     5.16     933.7419     56.94235     153.7353        12     1.274     0.675  58.08   0
       261    436.9904    670.4838 307.7411721  +6.4146456     3075.313     4655.849     5067.913     80.59305     161.2505     322.8867      1.642     3.92     928.6155     56.94235     405.1957        21     1.357     0.922  61.66   0
       262    150.2135    669.4716 307.8603070  +6.4054289     26572.65     37577.88     38324.98      80.4642     161.3791     322.9189      1.541     3.67     933.2563     56.94235     3779.921        42     1.430     1.011  60.09   0
       263    818.5256    670.0940 307.5827229  +6.4275821     1145.895     1629.853     1958.519     80.72169     161.7002     323.0474      1.446     3.65     921.5901     56.94235     193.3964        10     1.192     0.582  55.64   0
       264    737.3113    670.6497 307.6164354  +6.4246373      474.831     838.2043     1110.547     80.97836     161.3791     323.1758      2.229     4.96     922.0912     56.94235     68.85229         6     1.221     0.570  62.90   0
       265    369.5502    664.2698 307.7693904  +6.4149480      770.212     1207.644     1314.421     80.97836     161.5076     323.0795      1.694     4.10      929.608     56.94235     106.1232         7     0.997     0.481  81.65   0
       266    986.6559    659.0699 307.5132607  +6.4377483     7533.903     11293.93     11903.69     80.97836     161.5076     322.9831      1.598     3.85     915.8232     56.94235     1066.856        33     1.582     0.921  52.13   0
       267     31.3561    658.1602 307.9100502  +6.4060979     1162.745     1733.315     1630.888     80.72169     161.5719     322.9189      1.669     5.51     933.6703     56.94235     167.7131        14     1.331     0.779  78.30   0
       268    944.9673    656.4792 307.5306628  +6.4374268     573.9009     980.4725     1029.703     80.85012     161.5719     323.0474      1.614     3.70     917.2066     56.94235     93.38708         6     1.187     0.332  51.07   0
       269    580.1720    654.3434 307.6822485  +6.4261099     52859.01     74482.12     76626.83     80.59305     161.6361      322.951      1.519     3.67     924.8325     56.94235     7557.014        54     1.430     1.050  59.18   0
       270    805.4602    654.4952 307.5886729  +6.4335861     608.0049     786.9135      507.244     80.85013     161.5719     323.1437      1.395     4.38     921.2262     56.94235     135.7772         7     1.551     0.353  57.43   0
       271    223.6032    655.3201 307.8303058  +6.4137400     751.8232     1100.383     1198.845     80.33515     161.0573     322.7903      1.563     6.18     931.3373     56.94235     103.2678         9     1.242     0.864  29.73   0
       272    539.3704    654.5976 307.6991860  +6.4246378      817.176     866.4825     822.6529      80.4642     161.3791     322.8546      1.364     4.67     925.6608     56.94235     125.7629         7     1.115     0.554  51.89   0
       273    187.7052    651.0184 307.8453597  +6.4143090     2973.698     4402.019     4465.775     80.85012     161.3148     322.8867      1.556     3.89     932.0927     56.94235     398.2329        20     1.410     0.794  56.38   0
       274    991.3384    650.7963 307.5115929  +6.4413207     675.2997     879.9655     1455.988     80.33515     161.3148     322.7582      1.764     4.74     915.2159     56.94235     113.4525         8     1.192     0.584  43.25   0
       275     80.5308    645.3274 307.8900619  +6.4130522      1465.79     2023.217     2291.759     81.10638     161.7002     323.0474      1.621     3.50     933.0405     56.94235     247.0842        13     1.131     0.758  69.14   0
       276    477.4264    638.1545 307.7254666  +6.4293503     67101.05     95728.42     99883.92      80.4642     161.6361      322.951      1.537     3.48     926.3947     56.94235     9585.281        67     1.476     1.095  61.03   0
       277     21.0287    639.5327 307.9149690  +6.4134408     1786.057     2536.082     2599.319     80.72169     161.5719     323.0153      1.467     4.33     933.6501     56.94235     229.2058        15     1.332     0.793  61.59   0
       278    663.4724    635.2705 307.6482919  +6.4367745     842.8426     1160.739     1008.401     81.10638     161.7002     322.9831      1.383     3.89     922.0292     56.94235     136.0556         6     1.112     0.405  58.52   0
       279    152.0270    633.3620 307.8607734  +6.4203988     1688.978     2035.861     1383.626     80.59305     161.3791     322.8867      1.386     3.83      932.301     56.94235     240.2947        11     1.036     0.671  63.19   0
       280    947.0212    631.0987 307.5306602  +6.4479750     816.2784     1151.369     1050.323     80.85013     161.3791     322.8225      1.343     5.12     916.2537     56.94235     119.8676         9     1.298     0.570  60.44   0
       281    431.3748    631.2171 307.7448269  +6.4306700       1004.3     1329.041     1858.347     80.72169     161.3791     322.9831      1.446     4.28     927.0135     56.94235     165.3268        11     1.062     0.769  60.22   0
       282    505.2690    629.6409 307.7141893  +6.4337991     660.4073     918.6511     1255.703     80.85013     161.5719     323.1437      1.582     5.04     925.7564     56.94235     90.78735         8     1.163     0.618  80.08   0
       283    623.3124    629.4631 307.6651672  +6.4378278     1009.694     1601.577     1956.057     80.85013     161.7644     323.0474      1.813     3.65      922.731     56.94235     166.2773         8     1.146     0.502  52.58   0
       284     24.0268    629.0489 307.9140784  +6.4178703     772.0284     1017.673      1376.61     80.59305     161.5719     322.9831      1.665     4.32     933.5538     56.94235     127.9709         9     1.207     0.486  59.05   0
       285    322.7993    627.3472 307.7900516  +6.4286230     2357.209     3450.102     3707.159     80.20589     161.1861     322.5974      1.614     3.97     929.0709     56.94235     318.4047        18     1.352     0.791  65.27   0
       286    475.0251    626.1534 307.7268680  +6.4342249     1009.092     1314.443     1945.764     80.59305     161.6361     322.9189      1.453     5.21     926.1434     56.94235     159.2023         9     1.132     0.689  39.70   0
       287    749.5008    621.7267 307.6130153  +6.4452452     5810.789     7958.693     8134.527     80.59305     161.7002     323.0153      1.499     3.62      921.176     56.94235     872.2676        24     1.347     0.868  60.41   0
       288   1020.6479    617.8015 307.5005240  +6.4559221     1143.538     1575.014     2007.438     80.33515     160.7349     287.5674      1.523     3.82     911.5881     56.94235     185.8571        13     1.159     0.758  43.74  16
       289    803.0255    616.9620 307.5909436  +6.4490022     15386.94     21343.94     21979.27     80.59305     161.3791     322.8867      1.479     3.71     919.9364     56.94235     2113.504        35     1.393     0.935  61.67   0
       290    545.1967    616.7570 307.6980393  +6.4404571     1331.895     2140.581     2023.442     80.33515     161.1861      322.726      1.657     4.26      924.884     56.94235     200.3293        15     1.489     0.676  69.37   0
       291    626.9639    614.9240 307.6641394  +6.4439532     3114.689     4351.242     4144.485     80.85013     161.6361     323.0795      1.439     3.61     921.9984     56.94235     442.0249        21     1.342     0.859  67.11   0
       292     47.9821    615.9590 307.9045723  +6.4240817     671.6686     1055.745     1793.381      80.4642     161.3791     322.8225      1.935     5.22     932.9702     56.94235     102.1389         9     1.371     0.562  63.39   0
       293    944.3075    611.4455 307.5324459  +6.4559992     1261.568     1906.231     2266.395     80.97836     161.5076     323.1758      1.708     4.33     915.7321     56.94235     212.1938        13     1.322     0.695  48.64   0
       294    239.5670    608.4167 307.8252586  +6.4336423     1438.984     2162.085     2997.753     80.59305     161.3148     322.9189      1.786     4.37     930.0171     56.94235     213.0433        18     1.335     1.005  61.65   0
       295    203.1664    609.6342 307.8403355  +6.4319157     716.0604     922.8935      490.956     80.59305     161.3148     322.7903      1.280     4.06     930.8251     56.94235     118.2158         8     1.053     0.537  57.43   0
       296    385.4006    608.5496 307.7646851  +6.4384862     1038.823     1516.785     1756.605     80.20589     161.1861     322.5974      1.571     4.01     926.9048     56.94235     179.9376         7     0.967     0.489  60.47   0
       297    879.0625    600.2028 307.5599232  +6.4584628     3151.757     4409.381     4470.834     80.33515     161.3791     322.7903      1.497     3.63     917.7871     56.94235     462.8576        18     1.288     0.816  52.32   0
       298    173.8815    599.5743 307.8528379  +6.4350843     810.3638     1257.549     1496.366     80.85013     161.3791     323.0474      1.583     5.21     931.2748     56.94235     110.4623        10     1.031     0.743  81.50   0
       299    837.7281    597.6333 307.5771781  +6.4581428     2859.458     3968.882     4187.754     80.85013     161.5719     323.0795      1.491     4.12     918.6095     56.94235     421.3534        18     1.286     0.760  58.22   0
       300    818.4350    588.8602 307.5854861  +6.4611204     174475.9     242517.8     251639.7     80.97836     161.5719     323.0153      1.519     3.61     918.6261     56.94235     24563.07       105     1.534     1.103  61.42   0
       301    808.8306    593.6506 307.5893147  +6.4588214     2851.035     4082.748     5531.337     80.72169     161.7002     322.9831      1.639     3.85     918.9611     56.94235      411.082        20     1.297     0.841  55.84   0
       302    265.8347    592.5620 307.8148839  +6.4410713     8486.154     12058.11     12449.22     80.72169     161.4434     322.8225      1.559     3.68     928.8385     56.94235      1119.51        29     1.385     0.932  61.66   0
       303    869.7571    590.9661 307.5640981  +6.4619658     521.9002     537.2493     832.6829     80.72169     161.5719     322.8546      1.430     4.29     917.7875     56.94235     74.84198         5     1.043     0.504  54.72   0
       304    200.0615    587.0858 307.8423863  +6.4411211     63060.91      91743.7     95532.95     81.10638     161.7002     323.0474      1.538     3.59     930.4157     56.94235     8275.665        70     1.513     1.139  61.83   0
       305    748.6911    589.8109 307.6144233  +6.4583961      624.874     952.8672     1698.944     80.72169     161.2505     322.8546      1.956     4.48     920.1632     56.94235     98.17108         8     1.130     0.505  34.88   0
       306    124.0428    583.3207 307.8740861  +6.4401181     6481.779     9536.746     9023.899     80.97836     161.5719     323.0153      1.550     3.61     931.5306     56.94235     869.1831        30     1.408     0.995  59.88   0
       307    989.2313    580.6028 307.5148193  +6.4702335     1318.326     1650.251      1711.16     80.33515     161.3791     322.8225      1.421     4.46     912.5768     56.94235     202.2712        11     1.155     0.637  54.82   0
       308   1010.2463    579.5103 307.5061269  +6.4713856     686.6308     771.9145     793.0668     80.97836     161.4434     323.1758      1.481     3.90     911.4612     56.94235     128.2028         6     1.180     0.369  60.19   0
       309    238.6237    578.8889 307.8266469  +6.4458021     871.8531     1055.509      1333.87     80.97836     161.3791     322.9189      1.307     4.25     929.1033     56.94235     147.6617         8     0.975     0.711  58.69   0
       310    854.9925    576.1715 307.5707270  +6.4675812     4800.019     6760.713     6977.287     80.59305     161.3791     322.8546      1.483     3.77     917.6344     56.94235     673.4353        23     1.345     0.853  55.77   0
       311    463.8877    574.3951 307.7332365  +6.4552218     811.0151      1147.68     945.2095      80.4642     161.2505     322.7582      1.510     5.35     924.4249     56.94235     117.7107         8     1.025     0.788  31.23   0
       312    175.3553    573.2796 307.8531137  +6.4459904     2046.254     3060.273     3861.865     80.97836     161.5719     323.0474      1.750     3.86     930.8625     56.94235     310.7939        19     1.383     0.855  71.46   0
       313    808.9295    569.4849 307.5900846  +6.4688027     6481.582     8848.292     9400.601     81.10638     161.8285     323.0795      1.494     3.78      918.004     56.94235     862.4427        28     1.364     0.914  60.43   0
       314    250.8925    571.0144 307.8218169  +6.4494657     954.0878     1417.495     1571.753     80.72169     161.3148     322.8546      1.458     5.52     928.4178     56.94235     144.6163        11     1.475     0.724  40.13   0
       315    180.3999    570.6671 307.8511067  +6.4472388     757.8044     1346.681     2116.067     80.20589     161.0573     322.7582      1.850     7.13     930.6848     56.94235     114.1093        12     1.529     0.930  53.04   0
       316    539.7968    569.1609 307.7018836  +6.4599282     6786.128     9762.959     10404.41     80.07642     161.3791     322.7582      1.534     3.63     922.3768     56.94235     916.3893        26     1.363     0.909  60.11   0
       317    112.5897    570.3526 307.8792810  +6.4450869      1050.01     1347.191     1203.406      80.4642     161.4434     322.6939      1.489     4.80     931.5182     56.94235     156.8831         9     1.112     0.586  58.02   0
       318    397.9571    565.6230 307.7609163  +6.4566315      1358.35     1668.769       1945.2      80.4642     161.4434     322.8867      1.369     4.24     924.9236     56.94235     188.9594        12     1.139     0.722  76.70   0
       319    186.7848    562.2919 307.8487377  +6.4509115       7137.4     10511.65     11098.62     80.72169     161.3791     322.9189      1.583     3.67     930.3206     56.94235     895.9716        32     1.468     0.999  63.93   0
       320    373.4334    574.2286 307.7708122  +6.4522552     18369.66     26442.19     27293.19      80.4642     161.3148     322.8225      1.557     3.57      925.877     56.94235     2527.198        41     1.421     1.041  62.37   0
       321    825.4828    561.7303 307.5834690  +6.4725578     1605.541     2034.258     2107.815     81.23421     161.8285     323.0795      1.384     3.32     917.5503     56.94235     246.6774        14     1.184     0.707  60.50   0
       322    584.4725    562.1628 307.6835625  +6.4643148      2527.04      4058.82     4394.058     80.85013     161.5719     323.1116      1.765     3.92     921.1123     56.94235     293.6725        24     1.308     1.129   5.32   0
       323    282.0369    558.7468 307.8092953  +6.4555775     92318.22     134246.8     139284.1     80.85013     161.5719     323.0795      1.559     3.52     926.7118     56.94235     11906.82        80     1.515     1.152  63.13   0
       324     58.4794    561.0028 307.9020706  +6.4471253     5491.107     8229.021     8648.159     80.33515     161.0573     322.8225      1.611     3.59     931.9729     56.94235     722.1048        27     1.416     0.955  62.17   0
       325    571.6939    556.0489 307.6890759  +6.4664110     1026.878      1708.81     1933.105     80.85013     161.4434     323.1758      1.615     5.80     921.0252     56.94235     122.4287        12     1.097     0.863  59.74   0
       326    265.7548    553.7841 307.8162254  +6.4570793     1625.243     2106.906     1628.262      80.4642     161.4434     322.8225      1.450     3.57     927.1448     56.94235     251.8752        14     1.284     0.669  59.93   0
       327    981.7405    552.7942 307.5188624  +6.4814657     1685.879     2364.999     2023.043      80.4642     161.4434     322.8225      1.463     3.73     912.5698     56.94235     271.8729        14     1.202     0.715  58.93   0
       328    805.1990    551.2164 307.5922472  +6.4762211     17587.19     24619.92     25990.92     80.59305     161.1217     322.7582      1.463     3.69     917.3541     56.94235     2718.573        42     1.416     0.999  56.49   0
       329    508.8116    549.5940 307.7154121  +6.4669685     42952.91      67005.9     71134.17     80.59305     161.3791      322.951      1.692     3.80     922.3457     56.94235     5498.236        72     1.621     1.278  45.42   0
       330    659.0160    547.7540 307.6530841  +6.4727605     951.2657     1618.669     1594.604      80.4642     161.4434     322.8225      1.816     4.74     919.6934     56.94235     137.5967        10     1.048     0.710  43.74   0
       331    221.3930    545.8799 307.8349176  +6.4588515     1999.941     3120.907     3539.109     80.59305     161.1217     322.8225      1.809     3.72     928.8278     56.94235     270.3044        17     1.218     0.893  71.14   0
       332    107.9608    546.3166 307.8820158  +6.4548550     581.7902     722.5892     210.5423     80.97836     161.5076     323.0153      1.420     4.66     931.4604     56.94235     92.11743         5     1.056     0.584  70.11   0
       333     57.0413    546.3363 307.9031637  +6.4531323     1270.653     1831.214     1817.242     80.97836     161.5076     323.1437      1.491     3.81     931.7731     56.94235     211.8215        13     1.178     0.765  55.13   0
       334    678.9464    544.7156 307.6449077  +6.4746822     1561.509     2277.139      2722.37     80.97836     161.5719     323.2079      1.547     4.93     919.3886     56.94235     238.7569        11     1.167     0.620  64.98   0
       335    668.6819    544.6716 307.6491728  +6.4743568     3177.591     4602.979     4868.184     81.23421     161.8926     323.0795      1.583     3.85     919.5219     56.94235     424.4824        21     1.247     0.936  59.62   0
       336    269.6176    546.4253 307.8148693  +6.4602475     643.9159     966.8953     1400.327     80.59305     161.3791     322.9831      1.593     4.00     926.6132     56.94235     115.5413         5     0.972     0.480  41.89   0
       337    730.8056    543.4652 307.6234087  +6.4769338     1369.342     1896.674     2058.427      80.4642     161.3148     322.8225      1.560     4.14     918.5524     56.94235     205.0521        11     1.150     0.637  53.52   0
       338    406.4796    540.1886 307.7582335  +6.4674191     1958.303     2932.895     2963.312     80.59305     161.2505     322.8867      1.600     3.88     923.7543     56.94235     278.7841        18     1.355     0.822  64.46   0
       339     88.1868    542.3890 307.8903614  +6.4558109     782.6191     1097.721       1657.8     80.72169     161.3148     322.9831      1.939     4.16     931.5616     56.94235     161.2814         6     1.023     0.549  28.29   2
       340    337.9602    538.5231 307.7867496  +6.4658063     4181.303     5968.444     6163.695     80.85012     161.5719     323.0795      1.533     3.71     925.0946     56.94235     536.1638        24     1.302     0.964  65.50   0
       341    153.1684    537.0817 307.8635513  +6.4601893     27240.91     39710.27     40511.07     80.85012     161.4434     323.0153      1.546     3.65     930.7686     56.94235     3689.852        47     1.454     1.049  61.79   0
       342    517.8834    537.9525 307.7120358  +6.4720793     2250.875     3153.296     3473.796     80.97836     161.5719     323.0474      1.496     3.65     921.4549     56.94235     330.1559        16     1.242     0.759  52.33   0
       343    881.0757    537.3923 307.5611933  +6.4844645     1663.795     2285.605     1935.658     80.59305     161.0573     322.8546      1.337     3.99     915.8069     56.94235      279.507        10     1.058     0.586  56.27   0
       344    118.3525    535.4539 307.8780668  +6.4596897     2805.548     3879.251     3858.474     80.97836     161.5719     323.0795      1.520     3.61     931.1343     56.94235     399.5531        18     1.283     0.809  58.96   0
       345    355.2718    533.4539 307.7797300  +6.4684807     1155.194     1652.453      2134.35     80.85013     161.4434      322.951      1.544     3.73     924.6164     56.94235     177.2659        10     1.064     0.706  55.78   0
       346    978.6330    531.7070 307.5208598  +6.4900690     5513.859     7800.388     8535.708     81.10638     161.4434     323.1116      1.538     3.57     912.0206     56.94235     810.7068        23     1.346     0.857  63.08   0
       347    551.8828    524.4009 307.6983696  +6.4788143     1606.735     2097.171     1812.984     80.20589     161.1217     322.7582      1.437     4.09     920.1216     56.94235     212.8206        14     1.231     0.744  55.90   0
       348     17.4477    521.4313 307.9204505  +6.4620812     27152.62     38876.14     40637.04     80.72169     161.5719      322.951      1.573     3.57     932.0582     56.94235       3843.1        45     1.457     1.042  59.30   0
       349    427.4195    520.9669 307.7501834  +6.4760583     405.5587     628.7906      569.204      80.4642     161.3791     322.8546      1.507     4.78     922.7409     56.94235     76.06354         5     1.382     0.468  83.10   0
       350    450.1569    518.2598 307.7408302  +6.4779389     44902.93     65077.44     67436.84     80.97836     161.5719     323.1437      1.565     3.57     922.1193     56.94235     6143.143        58     1.484     1.097  62.32   0
       351    658.1924    517.9505 307.6544279  +6.4850386     13044.35     18209.29     18584.83      80.4642     161.3148     322.6939      1.483     3.70     918.7707     56.94235     1887.141        32     1.370     0.931  59.01   0
       352    298.0793    518.8574 307.8039776  +6.4725862     1091.016     1611.488     1637.421     80.97836     161.5719     323.0153      1.590     3.87     924.7676     56.94235     144.0681        10     1.029     0.671  74.89   0
       353      1.4164    516.1038 307.9272891  +6.4637405     81910.34     97523.65     101252.2     71.59354     129.7286     244.5951      1.063     2.62     932.2787     56.94235     24295.76        57     1.374     0.799 -88.24  24
       354    215.3417    515.7894 307.8384468  +6.4710718     19769.27     30450.06     31683.72     80.33515     161.4434     322.7582      1.644     3.72     927.5632     56.94235     2551.849        47     1.573     1.073  56.34   0
       355    180.9642    516.8732 307.8526889  +6.4694681     1693.077     2149.955     1772.459     80.85013     161.5719     323.0474      1.423     3.78     929.0874     56.94235     230.6023        14     1.137     0.790  57.25   0
       356    992.2250    516.5601 307.5157212  +6.4967767     1182.781      1809.85     1928.846     80.59305     161.3791     322.8225      1.499     4.43     910.9568     56.94235      182.506        12     1.219     0.652  44.90   0
       357    920.5190    515.7026 307.5455363  +6.4947374     958.2838     1431.485     978.5822     80.85013     161.8926     323.1116      1.574     5.09     913.2373     56.94235          126        11     0.981     0.832   0.94   0
       358    832.0485    515.7099 307.5822859  +6.4917790     1174.341     1537.272      1428.08     80.97836     161.4434     323.2079      1.454     5.08     916.2126     56.94235     178.2661        11     1.079     0.676  65.88   0
       359    580.0598    514.6895 307.6869922  +6.4837683     3028.386     4197.718     3875.991     80.85013     161.6361     323.1437      1.481     4.18      919.749     56.94235     406.8607        18     1.293     0.805  59.32   0
       360    953.8370    511.8997 307.5318236  +6.4974199     5165.618     7360.854     7895.489     80.97836     161.4434     323.2721      1.499     3.58     911.8922     56.94235     716.8533        24     1.352     0.868  57.13   0
       361    626.9462    510.3264 307.6676633  +6.4871403     6993.049     10051.24     10363.27     80.85013     161.5076     323.0474      1.522     3.47     919.1437     56.94235     938.5751        30     1.394     0.963  61.57   0
       362    114.2972    510.8389 307.8805829  +6.4697162     1191.734      1658.47     1324.069     80.97836     161.4434       323.24      1.568     4.57     930.6627     56.94235     153.0538        13     1.141     0.816  49.36   0
       363    976.4242    504.1954 307.5226991  +6.5013548     3590.754     5208.153     5156.791      80.4642     161.3148     322.8867      1.592     3.71     910.8808     56.94235     559.8419        24     1.390     0.911  63.36   0
       364    539.1431    501.6405 307.7044272  +6.4877849     7880.341      11422.1     12185.89     80.97836     161.6361     323.0795      1.555     3.52     919.6569     56.94235     1060.484        33     1.412     1.065  67.29   0
       365    415.1649    502.9861 307.7558794  +6.4830710     754.5863     1213.369     1610.341      80.4642     161.3791     322.8867      1.612     4.70     922.4573     56.94235     120.7531         8     1.186     0.528  74.90   0
       366    792.2705    502.3235 307.5992586  +6.4959766     460.6224      854.715     623.2341     81.23421     161.8285     323.0474      1.797     3.86     916.5933     56.94235     92.33093         5     1.370     0.312  59.59   0
       367    385.2254    501.7777 307.7683561  +6.4825650     2875.251     4088.006     4217.168      80.4642     161.3791     322.9831      1.541     3.56     922.7329     56.94235     370.6929        19     1.246     0.875  62.19   0
       368    754.7091    501.9029 307.6148754  +6.4948942     616.6697     751.4335     536.8619     80.97836     162.0848     323.0474      1.270     4.31     917.2158     56.94235     87.80664         6     1.266     0.419  57.89   0
       369    895.6738    497.4072 307.5564703  +6.5014618     3628.355     5010.082     6011.525     80.59305     161.1217     322.9189      1.477     3.35     913.4845     56.94235     610.1419        19     1.279     0.768  56.60   0
       370    548.6769    498.0718 307.7005871  +6.4895779     828.2991     895.0922      958.853     81.23421     161.8285     323.0474      1.430     4.56     919.4639     56.94235     132.4203         8     1.257     0.470  67.53   0
       371    244.5470    497.2175 307.8269430  +6.4797218     596.3632     861.9852     629.8887      80.4642     161.6361     322.7582      1.300     2.64     925.5357     56.94235     108.9074         5     0.706     0.481 -75.55   0
       372    942.3017    491.3562 307.5373039  +6.5055172     1314.562     1820.139     2328.783     80.97836     161.5076     323.2721      1.365     3.85     911.0512     56.94235     211.0394        11     1.171     0.664  53.71   0
       373    903.0551    491.8246 307.5535913  +6.5040134     2297.329     3120.482     3421.318     80.59305     161.6361     322.8546      1.423     3.40     912.8637     56.94235     306.1687        16     1.172     0.784  54.17   0
       374    121.9843    490.9119 307.8780634  +6.4782024     758.4884     977.3576      932.967     80.72169     161.3148     322.8867      1.516     5.51     930.0225     56.94235     117.8234        10     1.201     0.713  32.69   0
       375    281.0505    489.7622 307.8120323  +6.4840269     487.8183     557.2756     585.8102     80.72169     161.4434     322.9831      1.207     3.91     924.2468     56.94235     90.49963         5     0.838     0.521  50.30   0
       376    726.9659    487.7063 307.6268765  +6.4998279     3217.519     4416.692     5015.371     81.10638     161.4434     323.1437      1.471     3.59     917.2294     56.94235     479.2908        21     1.309     0.829  63.19   0
       377    397.9081    485.8923 307.7636234  +6.4895497     3816.366      5569.82     5959.913     80.97836     162.0848     323.0795      1.580     3.78     922.0347     56.94235     520.0267        24     1.376     0.975  65.33   0
       378     88.8033    486.7762 307.8919851  +6.4787928     2042.523     2919.996     2942.405     80.59305     161.2505     322.8867      1.536     3.57     930.7599     56.94235     306.6598        19     1.244     0.922  62.51   0
       379    438.2638    486.1022 307.7468535  +6.4908173     986.8933     1541.185      2091.36     80.85013     161.6361     323.0795      1.744     4.22     921.0974     56.94235     166.8104        12     1.229     0.759  59.93   0
       380    788.3588    479.1435 307.6016617  +6.5054168     17661.31     24503.61     26026.65     80.85013     161.5719     323.0795      1.491     3.49     916.1984     56.94235     2726.891        39     1.430     0.942  62.39   2
       381    792.4350    474.6579 307.6001190  +6.5074051     1591.631     2543.101     2846.553     80.85013     161.5719     323.0474      1.781     4.13     915.9705     56.94235     240.3652        15     1.249     0.873  60.44   2
       382    307.9814    479.3068 307.8011987  +6.4892487     2685.582     3780.871     3688.231     80.85012     161.3148     322.9189      1.529     3.62     923.1645     56.94235     376.3407        22     1.333     0.965  60.18   0
       383    625.6377    482.5539 307.6691407  +6.4985635     10864.96     15258.96     16055.67     80.72169     161.5076     322.9189      1.557     3.56     918.5366     56.94235      1478.04        29     1.367     0.942  60.04   0
       384    817.2902    476.2095 307.5897420  +6.5075954     1463.888     2020.851     2063.115     80.72169     161.2505     322.8546      1.427     4.20     915.5055     56.94235     199.8975        13     1.161     0.783  52.69   0
       385    391.3029    475.9814 307.7667011  +6.4934200     1908.645     2740.017     2844.028     80.85012     161.4434     322.7903      1.586     3.65     921.6183     56.94235      272.884        14     1.171     0.727  53.09   0
       386    918.0377    476.2085 307.5478911  +6.5109616     591.5604     738.2836     762.7801     80.20589     161.3148     322.7903      1.273     2.35     911.2706     56.94235     125.5088         5     0.777     0.462  54.14   0
       387    973.6224    474.1038 307.5248713  +6.5136861     2226.526     3181.256     3475.665     80.97836     161.3791     322.8546      1.475     3.63     909.6976     56.94235     327.5774        17     1.293     0.780  50.86   0
       388    721.9205    473.2357 307.6294585  +6.5056339     569.8005     553.7471     413.0641     80.85013     161.6361     323.0474      1.451     3.51      916.674     56.94235      119.069         5     1.089     0.327  43.24   0
       389    379.8595    472.2020 307.7715818  +6.4945963     639.3438      1051.84     942.6548     80.33515     161.2505     322.7582      1.581     4.40     921.4666     56.94235     97.43628         7     1.079     0.511  67.40   0
       390    125.7649    470.9528 307.8771676  +6.4865703     4695.619     6665.024     6414.674     80.59305     161.5076     322.9831      1.538     3.78     929.1414     56.94235     631.5157        23     1.332     0.920  64.15   0
       391    763.9688    470.1605 307.6120949  +6.5083102     2564.194     3549.637      3780.14     80.59305     161.3791     322.8867      1.458     4.20     916.1351     56.94235     361.7032        18     1.356     0.749  56.12   0
       392    283.5643    468.0803 307.8117196  +6.4930635     1540.705     2093.786     2659.286     80.85012     161.6361     323.0795      1.487     3.98     923.5061     56.94235     227.4816        15     1.295     0.748  57.45   0
       393    361.7245    465.7303 307.7793329  +6.4966594     3473.384     4853.879     4752.772     81.10638     161.7002     323.0474      1.521     3.72     921.2917     56.94235     451.6342        21     1.298     0.880  58.92   0
       394    717.5236    463.4526 307.6316136  +6.5095262     1732.507     2303.941     2096.426     81.10638     161.5719     323.0474      1.424     4.08     916.1959     56.94235     243.4493        14     1.158     0.729  51.98   0
       395    991.3324    462.1061 307.5179163  +6.5192310     740.7097     973.9254     1159.845     80.85013     161.7644     323.0795      1.608     5.15     908.9886     56.94235     113.4363         8     1.171     0.640  43.67   0
       396    249.4596    461.4348 307.8261101  +6.4946609     1043.593     1402.023     1220.448     80.85013     161.5719     323.0153      1.335     5.05     924.1946     56.94235     146.6204        12     1.382     0.655  74.71   0
       397    559.1009    456.5079 307.6976557  +6.5070886     1087.052     1486.878     1218.249     80.97836     162.0848     323.0153      1.488     3.88      917.714     56.94235     175.8973        11     1.155     0.627  53.40   0
       398    481.1968    454.6106 307.7300804  +6.5052601     1518.341     2288.358     2496.439     80.59305     161.2505      322.951      1.592     4.78     917.6125     56.94235     195.5345        11     1.098     0.692  55.47   0
       399    843.9003    453.5958 307.5794468  +6.5178219     1436.147     1731.907     1248.223     80.72169     161.3148     322.6939      1.381     4.50     913.6514     56.94235     249.2445         9     1.106     0.550  56.54   0
       400    829.5216    452.6566 307.5854514  +6.5177291     2297.543     3085.196     2470.458     80.97836     161.5719     323.0153      1.467     3.95     914.0311     56.94235     331.0742        16     1.230     0.784  59.80   0
       401    726.8041    450.7860 307.6281840  +6.5150667     16001.41     22268.03     23584.02     80.59305     161.2505     322.9189      1.471     3.58     915.5942     56.94235     2260.668        37     1.406     0.945  58.52   0
       402    648.0158    446.7235 307.6610496  +6.5141070      2531.84     3759.022     3958.154      80.4642     161.3148     322.9189      1.517     3.86     916.1533     56.94235      331.072        21     1.360     0.879  53.01   0
       403   1016.4242    447.2649 307.5079900  +6.5261960     443.3843     374.6212     292.3709     80.59305     161.5719     322.9831      1.408     4.22      907.892     56.94235     92.41223         5     1.128     0.450  33.36  16
       404    629.0216    452.8574 307.6687336  +6.5109383     668.1679       872.15     877.5355     80.59305     161.5076     322.8546      1.349     3.90     916.9519     56.94235      102.217         6     0.935     0.465  38.87   0
       405    620.2686    441.9397 307.6727367  +6.5151530     13810.52     26461.71     30442.82     81.10638     161.5076     323.0474      2.180     6.66     916.6082     56.94235     2213.824        58     2.388     1.063  40.65   0
       406    952.0704    440.7265 307.5349429  +6.5267483     4266.683     5665.381     6227.122     81.10638     161.7002     323.0474      1.425     3.41     909.3728     56.94235     573.1009        20     1.305     0.782  58.76   0
       407    391.2487    436.6076 307.7680507  +6.5096750        30246     44459.01     46065.43      80.4642     161.3791     322.6617      1.585     3.54     919.6108     56.94235     4016.429        50     1.486     1.073  63.35   0
       408    429.1981    438.5492 307.7522213  +6.5101471     547.9408     741.1142     731.4111     80.33515     161.1861     322.6296      1.435     2.81     918.8709     56.94235     99.87921         5     0.717     0.469 -17.88   0
       409    907.8332    436.4544 307.5534631  +6.5270353     1762.261     2360.676     2979.339     80.85013     161.5719     322.9831      1.649     3.82     910.5478     56.94235     293.2186        13     1.213     0.691  54.39   2
       410    137.3867    436.1451 307.8735164  +6.5013327     2505.692     3445.654     3280.141     80.33515     161.5076     322.7903      1.485     3.65     927.0615     56.94235     332.7851        19     1.253     0.878  56.53   0
       411    920.9284    431.1138 307.5482022  +6.5296777     5548.089     7565.487     8062.057     81.10638     161.8285     323.0795      1.436     3.79     910.0214     56.94235      784.243        23     1.339     0.806  58.34   0
       412    602.8457    432.2787 307.6802992  +6.5185583     610.2823     977.8591     1002.536     80.97836     161.5719     323.0153      1.807     4.76     916.3518     56.94235     88.46179         6     1.003     0.641  64.93   0
       413     70.4592    431.5833 307.9014704  +6.5009628     1508.341     2247.247     2607.553      80.4642     161.4434     322.7903      1.690     4.96     929.0303     56.94235     187.4689        16     1.391     0.776  51.63   0
       414    248.7696    427.1586 307.8275536  +6.5087898     14567.12     21399.61     21818.21      80.4642     161.4434     322.8867      1.563     3.48      923.319     56.94235     1946.043        36     1.405     1.025  64.93   0
       415    976.8613    429.1750 307.5250314  +6.5323453     665.0422     762.0049     813.4983     80.59305     161.5076      322.951      1.243     4.27     908.3726     56.94235     98.63159         8     0.822     0.695  52.83   0
       416    132.4367    427.7745 307.8758553  +6.5046221     1658.269     1632.736     2102.799     80.59305     161.3791     322.8225      0.866     2.01     926.7598     56.94235     447.4122         7     0.806     0.463  74.34   0
       417     84.2911    421.1649 307.8960773  +6.5057302     923.8257     1444.727     1896.002     81.10638     161.4434     323.0795      1.706     4.82     927.8063     56.94235     136.4293         9     1.043     0.631  59.57   0
       418    743.8668    421.2330 307.6220887  +6.5278398     806.4542     1238.628     1487.811     80.85013     161.6361     323.0153      1.598     3.81     914.0569     56.94235     130.9316         7     0.885     0.564  31.74   0
       419    711.9349    420.3564 307.6353831  +6.5271334     991.6165     1399.307     1459.504     80.97836     161.5076     323.0474      1.473     3.94     914.1198     56.94235     144.3933         9     0.991     0.609  49.48   0
       420    972.1992    419.4863 307.5272928  +6.5361902     1299.662     1996.717     1726.428     80.20589     161.0573     322.7582      1.653     3.97     908.2461     56.94235     209.2866        12     1.240     0.747  66.95   0
       421    130.3311    419.5351 307.8770084  +6.5079531     3616.772     4037.647     4245.241     80.97836     161.6361     323.0795      0.908     2.81     926.3868     56.94235     1001.565         7     0.882     0.437  76.74   0
       422    361.7232    417.0094 307.7809761  +6.5167755     1282.807     1859.386     1933.332     80.59305     161.1217     322.8546      1.568     4.68     919.1404     56.94235     163.4536        13     1.237     0.811  31.22   0
       423    195.0924    417.1207 307.8501893  +6.5111291     840.5343     1319.152     1703.436     80.72169     161.8285     323.1116      1.657     4.52     924.6373     56.94235     150.6545         9     1.012     0.801 -50.43   0
       424    149.1129    415.8131 307.8693326  +6.5101219     5189.761     8076.584      8398.76     80.59305     161.3791      322.951      1.637     3.68     925.8427     56.94235     650.3441        29     1.404     1.020  53.87   0
       425    253.9774    414.7686 307.8258085  +6.5140804     1523.938     2112.281     1550.572      80.4642     161.3791     322.8546      1.497     4.24     922.8474     56.94235     198.1325        14     1.172     0.815  58.72   0
       426    446.4617    414.2824 307.7458676  +6.5207459     883.9185     1356.119     1480.953     81.10638     161.5719     323.0153      1.644     3.74     916.7777     56.94235     167.5476         9     1.132     0.613  57.98   0
       427    171.0959    411.5647 307.8603447  +6.5126157     2596.111     4058.397     4074.645     81.10638     161.4434     323.1758      1.678     4.33     925.2288     56.94235     329.3262        25     1.542     0.963  78.67   0
       428    835.1613    412.6214 307.5844522  +6.5344480     894.7592     1030.151     1037.421     80.59305     161.3791     322.8225      1.434     3.32     911.8242     56.94235     166.3779        10     1.111     0.643  48.01   0
       429    566.7300    410.5092 307.6960343  +6.5263367     1138.109     1379.606     1725.598     80.97836     161.7002     323.0474      1.310     4.42     915.2058     56.94235      152.188        12     1.200     0.834  47.23   0
       430    394.5581    406.4361 307.7676929  +6.5222435     2344.616     3346.316     3512.613     80.72169     161.5719     322.9189      1.594     3.55     917.8816     56.94235     310.4949        19     1.235     0.935  61.68   0
       431    282.4958    406.7731 307.8142321  +6.5183402     780.3055     1163.021      1038.79     81.10638     161.3148      322.951      1.642     3.02     921.7087     56.94235     145.6024         8     0.958     0.583  22.72   0
       432     13.2914    406.8175 307.9260540  +6.5092620     604.8134       802.02     701.0184     80.72169     161.3148      322.951      1.372     3.38     930.9513     56.94235     112.1447         5     0.939     0.351  42.59   0
       433    983.1420    405.6192 307.5232115  +6.5422811     1022.262     1375.949     1597.256     80.59305     161.4434     322.8546      1.339     3.53     907.2567     56.94235     180.7714        10     1.036     0.624  60.21   0
       434    328.1653    404.3861 307.7953416  +6.5208603     775.1948     962.9193     760.2563     80.59305     161.3148     322.9189      1.446     4.47     919.6637     56.94235     121.2942         7     1.235     0.460  67.46   0
       435     44.8387    400.7642 307.9131548  +6.5128242     3350.382     5538.163     5536.495     80.72169     161.4434     322.8546      1.766     4.53     929.0247     56.94235      437.467        28     1.441     1.230  87.00   0
       436    448.3281    400.0168 307.7455729  +6.5266985     7579.923        11209     11395.66      80.4642     161.5076      322.951      1.583     3.52     915.9803     56.94235     1005.627        33     1.405     1.040  67.94   0
       437    789.0444    397.4219 307.6041205  +6.5391822     14038.89     19433.66     20035.33      80.4642     161.4434     322.8546      1.481     3.80     912.6627     56.94235     2034.133        34     1.366     0.957  61.00   0
       438    781.1759    398.9274 307.6073387  +6.5382975     2084.863     2993.544     3002.931     80.59305     161.4434     322.9831      1.547     3.97     912.8197     56.94235     310.0122        17     1.284     0.757  60.04   0
       439    209.0428    399.2881 307.8449966  +6.5189610     690.3508     829.5223      139.145     80.97836     161.5076     323.0795      1.306     4.77     923.7423     56.94235     97.88214         7     1.190     0.541  81.22   0
       440    352.5416    396.1265 307.7854942  +6.5250893     1231.197      1659.01     1676.262     81.10638     161.5719     323.0153      1.455     3.45     918.1105     56.94235     211.4999        13     1.132     0.774  62.87   0
       441    964.1188    389.2676 307.5316624  +6.5483978     601.8112     810.0117     1347.921     81.10638     161.8285     323.1116      1.177     3.85     907.1598     56.94235     113.2446         6     0.918     0.463  38.33   0
       442    197.3962    388.2631 307.8502068  +6.5231212     766.2181     1247.155     1244.635     80.33515     161.3148     322.7903      1.463     4.15     923.8425     56.94235      131.645         7     1.246     0.395  64.23   0
       443      2.5762    386.3980 307.9311958  +6.5173315     990.1507     1914.591     2467.209     80.59305     145.4161     262.8345      2.387     7.38     929.9014     56.94235     135.3901        17     1.731     0.881 -78.61  24
       444    913.9724    387.2868 307.5525615  +6.5475415     571.1066     776.5059     345.3506     81.10638     161.3148     322.9189      1.448     4.29     908.8066     56.94235     110.7195         5     0.825     0.637  36.10   0
       445    468.7484    384.2441 307.7376214  +6.5338960     2449.291     3500.966     3443.169     81.10638     161.5076     323.0795      1.561     4.06     914.4361     56.94235     309.4142        19     1.329     0.937  67.67   0
       446    496.6189    383.6297 307.7260642  +6.5350845     3277.359     4559.098     4660.896     80.59305     161.3791      322.951      1.538     3.47     913.9341     56.94235      488.942        20     1.314     0.884  52.77   0
       447    925.0854    383.4398 307.5480738  +6.5495010     773.8902     1364.017      1228.53     80.97836     161.5076     323.0474      1.775     4.25     908.5267     56.94235      142.022         7     1.174     0.438  52.84   0
       448    854.3782    380.3155 307.5775529  +6.5484292     35526.73     51941.12     54209.25     80.72169     161.2505     322.9831      1.602     3.89     909.6437     56.94235     4783.099        51     1.524     1.047  66.79   0
       449    346.7302    375.8312 307.7885927  +6.5332737     816.7356     1086.817     1264.508     80.85013     161.5719     323.0474      1.477     4.52     917.2717     56.94235     117.0756         8     1.091     0.533  37.38   0
       450     71.8494    376.4855 307.9027560  +6.5237581      645.503      1091.15     913.5201     80.97836     161.5076     323.1116      1.671     3.48     926.8962     56.94235     112.3367         5     0.808     0.693  63.76   0
       451    626.0212    372.5739 307.6726797  +6.5439862     2901.023     4180.999      4613.92     80.59305     161.3791     322.9831      1.540     3.72     912.8231     56.94235     427.9977        22     1.410     0.864  54.73   0
       452     34.4021    373.1758 307.9184231  +6.5238630       1263.7      1948.41     2016.613     80.59305     161.2505     322.8546      1.634     3.90     927.9741     56.94235     172.5257        13     1.144     0.765  58.03   0
       453    710.8062    366.3061 307.6376682  +6.5494126     86872.18     120589.6     125244.8     80.59305     161.2505     322.8546      1.490     3.52     911.9167     56.94235     12205.04        75     1.470     1.067  59.99   0
       454    868.7488    367.8043 307.5720026  +6.5540752     1289.119     1960.959      2111.47     80.33515     161.3148     322.6296      1.601     6.05     908.6569     56.94235       195.23        13     1.276     0.807  48.36   0
       455     89.9442    365.7242 307.8956034  +6.5288105     1298.748     1859.719     2014.645     80.97836     161.5076     322.9831      1.579     4.25     926.0712     56.94235     182.4711        13     1.178     0.738  50.07   0
       456    952.3135    363.0408 307.5374460  +6.5588328     815.3594     1175.514     982.3901     80.97836     161.5076     323.0795      1.679     4.40     906.6127     56.94235     170.3652         8     1.398     0.394  68.01   0
       457    573.1620    363.0419 307.6949595  +6.5461510     2715.988     4132.623     4160.524     80.72169     161.6361     322.9189      1.597     3.89     912.4688     56.94235     378.2739        19     1.245     0.903  52.52   0
       458    110.4249    361.7280 307.8872309  +6.5311501     6605.064     9908.351     10410.11     80.59305     161.4434     322.9831      1.645     3.75     925.5397     56.94235     868.3153        33     1.444     1.044  64.72   0
       459    400.8305    363.6175 307.7665305  +6.5401332      531.769      700.708     463.9754     80.59305     161.3791      322.951      1.157     3.35      915.394     56.94235     108.8101         5     0.769     0.423  21.82   0
       460    556.4832    359.1392 307.7020197  +6.5472034     7791.038     11059.79     11517.72     81.10638     161.5719     323.0795      1.514     3.44     912.2407     56.94235     1045.369        29     1.399     0.922  60.23   0
       461    285.6401    356.7514 307.8146138  +6.5390989     2688.009     3847.501       3297.3     80.85013     161.5719      322.951      1.557     3.76     919.5942     56.94235      329.289        21     1.415     0.851  58.05   0
       462    419.4888    354.3483 307.7590919  +6.5445866     27799.09     40264.09      41694.4     80.97836     161.3791     323.1437      1.602     3.55      914.478     56.94235      3769.68        48     1.461     1.081  61.28   0
       463    598.0888    353.8914 307.6849121  +6.5507643     596.4789     869.9022     802.4417     80.97836     162.0848     323.1437      1.468     3.85     911.9555     56.94235      92.8371         6     0.975     0.437  52.51   0
       464    527.1313    353.2234 307.7144124  +6.5486620     1341.051     2019.457     2473.968     80.59305     161.5076     323.0153      1.688     4.31     912.0933     56.94235     170.1603        15     1.256     0.832  63.92   0
       465    399.4418    352.4381 307.7674842  +6.5447024     1257.009     1996.361     2887.592     80.72169     161.6361     322.9189      2.467     5.57     914.7601     56.94235     206.1214        14     1.556     0.688  51.95   2
       466    498.7273    349.6469 307.7263327  +6.5491862     1224.665     1785.987     2312.687     80.97836     161.6361     323.0474      1.549     4.49      912.239     56.94235     182.1286        11     1.131     0.675  56.42   0
       467    814.1409    346.9775 307.5953880  +6.5608495     999.9304     1633.897     1334.673     80.59305     161.5076     322.9189      1.706     4.54     909.8918     56.94235     164.1884         8     0.937     0.625  44.81   0
       468    650.2840    346.8586 307.6634649  +6.5554163     779.3324     906.4991     969.1144     80.97836     161.5719     323.1116      1.375     4.20      911.225     56.94235     110.5728         7     0.902     0.557  57.95   0
       469    508.5348    344.7846 307.7224221  +6.5515227     9236.168     13241.23     13934.21      80.4642     161.4434      322.951      1.557     3.54     911.8647     56.94235     1263.357        31     1.376     0.972  61.03   0
       470    777.7654    343.5143 307.6106163  +6.5610632      3431.68     4771.515     5066.324     80.97836     161.4434     323.0474      1.526     3.53     910.4973     56.94235     497.7309        20     1.359     0.798  53.74   0
       471    933.3559    343.3124 307.5459833  +6.5663456     1020.256     1287.248      1042.46     80.97836     161.4434     323.0795      1.374     4.71      906.746     56.94235     169.5574         9     1.154     0.545  47.58   0
       472    725.4581    343.8034 307.6323373  +6.5591941     795.1643     1016.679     739.5818     80.33515     161.4434     322.7903      1.387     3.07     910.9203     56.94235     140.4838         6     0.726     0.640  39.24   0
       473    335.0210    341.4957 307.7946149  +6.5470569     1012.413     1462.919     1432.241     80.85013     161.3791     322.8546      1.503     4.38     916.3655     56.94235     168.7394        10     1.156     0.643  55.14   0
       474     94.1451    339.8659 307.8947326  +6.5396282     476.6068     674.7391     970.4117     80.97836     161.5076     323.0474      1.229     3.75     925.6685     56.94235     123.5598         6     0.924     0.500 -60.47   0
       475    447.3149    335.5221 307.7481666  +6.5532935     621.4476     711.4918     552.2074     80.97836     161.8926     323.1437      1.252     3.83     912.6239     56.94235     146.1212         5     0.977     0.430  78.48   0
       476    270.7709    335.5716 307.8215055  +6.5473438     786.6661       1080.1     823.3015      80.4642     161.3148     322.7903      1.691     4.65      919.244     56.94235     114.6421         9     1.229     0.499  47.10   0
       477    170.6455    335.2239 307.8631107  +6.5441199     1002.869      1512.78     1549.284     80.59305     161.5719     322.9189      1.771     5.06     923.3949     56.94235     136.1965        14     1.344     0.771  68.59   0
       478    398.4541    328.9379 307.7686867  +6.5543720     7947.968     11737.13     12550.47     80.97836     161.5076     323.0153      1.607     3.55     913.6747     56.94235     1031.086        30     1.394     0.995  61.52   0
       479    254.3490    329.4569 307.8285338  +6.5493164     2365.974     3395.941     2955.939     80.97836     161.5719     323.0474      1.536     3.48     919.7736     56.94235     330.1477        17     1.220     0.832  67.38   0
       480    686.5584    329.3877 307.6489824  +6.5638444     436.2382     673.1523     1035.606     80.33515     161.3791     322.7903      1.734     5.60     910.0836     56.94235     72.73328         5     1.263     0.701  43.39   0
       481    751.6912    328.8893 307.6219400  +6.5662297     1029.796       1351.6     1501.561     80.97836     162.0848     323.1437      1.474     5.37     910.0364     56.94235     148.5439        10     1.046     0.779  59.62   0
       482    766.3316    324.8681 307.6159927  +6.5683797     58708.59     81669.02     84341.93     80.97836     161.7002     323.0474      1.496     3.54     909.7451     56.94235     8177.862        60     1.451     1.033  59.28   0
       483    438.0574    324.3205 307.7523899  +6.5576078     2493.116     3614.736     3779.227     80.97836     161.5719     323.0153      1.541     3.62     912.1619     56.94235     320.2155        21     1.246     0.939  62.28   0
       484   1001.1512    321.9988 307.5185317  +6.5774088     1836.742     2583.349     2788.816     80.33515     161.1861     322.5974      1.464     3.48     902.7881     56.94235     264.1672        17     1.235     0.822  46.29   0
       485    942.1528    321.0653 307.5430745  +6.5758251     2523.337     3745.283     3908.431     80.85013     161.5076     323.0795      1.551     3.47     905.1577     56.94235     358.9257        17     1.170     0.831  50.23   0
       486    584.2695    321.6129 307.6917391  +6.5636287     1490.296     2210.171     1958.793      80.4642     161.3791     322.9189      1.486     4.31     910.0438     56.94235     193.7094        13     1.154     0.734  52.37   0
       487    475.0609    320.5462 307.7371446  +6.5604077     1152.058     1687.048     1439.272     80.97836     161.5076     323.0153      1.565     3.79     911.0848     56.94235     165.2092        10     1.047     0.681  62.53   0
       488    424.5867    319.8813 307.7581356  +6.5589886     2078.005     2940.201     3239.816     80.59305     161.3148     322.8546      1.488     3.51     912.2421     56.94235     268.1567        16     1.233     0.772  58.31   0
       489    304.6987    319.6638 307.8079479  +6.5550521     563.5426     776.9191     897.3275     80.85013     161.6361     323.0795      1.322     3.69     916.9274     56.94235     95.24158         5     1.306     0.300  60.01   0
       490    845.7438    314.5752 307.5833461  +6.5752845     1175.175     1727.693     1443.245     80.59305     161.5719     322.8546      1.526     4.98     907.9995     56.94235     205.4579        13     1.417     0.677  54.77   0
       491    475.1478    314.6130 307.7373083  +6.5628603     924.8186     1420.435      1481.46     80.33515     161.5076     322.7903      1.600     4.44     910.7692     56.94235     147.1461        11     1.090     0.741  48.51   0
       492    977.9243    312.9818 307.5284838  +6.5803568     659.8153     915.9012     832.7312      80.4642     161.3148     322.9831      1.486     4.63     903.4502     56.94235     94.38208         7     0.889     0.685  38.55   0
       493    200.9604    311.0664 307.8513334  +6.5551139      2336.56     3366.059     3571.041     80.85013     161.5076     323.1437      1.535     3.32     921.6001     56.94235     371.5342        21     1.322     0.916  60.94   0
       494    455.1609    311.4683 307.7457175  +6.5634882      1232.87     1761.771     2274.556     80.85013     161.5719     323.1758      1.516     3.61     911.0135     56.94235     198.4744        11     1.074     0.694  52.16   0
       495    764.7965    309.4777 307.6171474  +6.5746830     6537.049     8896.649     9329.168      80.4642     161.0573     322.8546      1.491     3.65     909.0098     56.94235     899.1084        25     1.331     0.880  58.20   0
       496    236.7077    309.3873 307.8365399  +6.5570095     788.1048     1001.854     845.4528     80.72169     161.3148     322.8225      1.390     5.57     919.9805     56.94235     116.2726         8     1.273     0.687  81.43   0
       497    781.1192    307.2496 307.6104408  +6.5761488      2793.05     3914.256     4034.765     80.97836     161.6361     323.0474      1.536     3.73     908.8622     56.94235     411.1197        19     1.345     0.820  62.53   0
       498     97.3872    308.3537 307.8944512  +6.5527479      1141.34     1726.323     2207.525     80.33515     161.3791     322.8225      1.527     3.69     925.5949     56.94235     194.3943        11     1.116     0.682  61.47   0
       499    483.5252    306.5274 307.7341003  +6.5664798     611.5467     708.3036     514.4651     81.23421     161.8285     323.1116      1.350     3.75     910.1769     56.94235     92.91357         6     0.925     0.436  72.61   0
       500    370.7394    302.0947 307.7811052  +6.5645246     1755.561     3605.823     3654.227     80.85013     161.5719     323.1437      2.056     5.62     913.8819     56.94235     232.8669        26     1.680     1.118  17.16   0
       501     84.4763    302.6204 307.9000084  +6.5546802     1318.058     1926.845     1739.786     80.59305     161.3148     322.9831      1.536     3.52     925.6777     56.94235     202.0494        13     1.222     0.663  57.82   0
       502   1019.4091    298.3457 307.5117387  +6.5877843     6646.657     8924.351     9374.997     80.33515     161.5076     302.0673      1.439     3.35      901.832     56.94235     1026.469        25     1.312     0.849  56.03  16
       503    658.8016    299.1811 307.6615294  +6.5753872     493.3532     707.3516     1004.236     80.59305     161.1217     322.7582      1.767     3.38     908.4235     56.94235     84.50708         5     0.965     0.343  45.91   0
       504    497.3399    298.1491 307.7286433  +6.5704025     2259.652     3311.198      3399.22     80.97836     161.5076     323.0474      1.588     3.86     909.5375     56.94235     320.5554        18     1.285     0.868  45.50   0
       505    260.0287    293.6251 307.8273839  +6.5643015     6070.089     9162.869     9680.657      80.4642     161.3791     322.9189      1.602     3.66     917.9939     56.94235     763.3604        32     1.459     1.011  63.10   0
       506    927.9587    292.6430 307.5499247  +6.5870867     713.8335     778.7158     1301.696     80.72169     161.5719     322.9189      1.433     5.95     904.1144     56.94235     89.56708         9     1.066     0.935  32.63   0
       507    824.8665    292.2443 307.5927694  +6.5838071     547.4498     715.0715       492.51     80.97836     161.5076     323.0795      1.351     3.44     907.8242     56.94235     78.09613         5     1.000     0.343  45.14   0
       508    950.7872    289.0797 307.5405596  +6.5893201     579.4999     791.5186     759.9905     80.59305     161.2505     322.8867      1.179     3.29     903.3247     56.94235     118.0698         5     0.982     0.321  46.54   0
       509    779.3376    287.0366 307.6118598  +6.5844350     807.5052     939.7903     923.5242     80.97836     161.6361     323.0474      1.367     3.98     908.0344     56.94235     145.8903         8     1.041     0.712  42.71   0
       510    394.1535    284.4537 307.7719729  +6.5725944     1849.864     2881.663     2701.783     80.97836     161.5719     323.0795      1.666     3.67     911.8206     56.94235     271.7407        20     1.336     0.971  59.37   0
       511    236.9108    286.3277 307.8372341  +6.5665371     617.7273     1018.862     590.5082     80.97836     161.8285     323.0474      1.542     3.53     919.2623     56.94235     115.2465         5     1.032     0.348  43.43   0
       512    980.9906    283.4648 307.5281992  +6.5926466     1290.839     1960.032     2498.239      80.4642     161.3791     322.9189      1.769     4.86     902.3773     56.94235     169.6654        10     1.094     0.611  60.11   0
       513    316.6550    280.6817 307.8042961  +6.5715488     1322.868     1877.668     1304.578     80.97836     161.5719     323.0795      1.571     5.48     915.1596     56.94235     185.9352        12     1.162     0.729  59.19   0
       514    201.1401    281.5594 307.8522554  +6.5673027     643.7214     1050.447     1171.347     80.97836     161.5719     323.1116      1.549     4.59     920.7579     56.94235      92.3031         6     0.930     0.644 -82.13   0
       515    163.9124    280.3303 307.8677624  +6.5665576     1957.455     2967.181     2637.136     81.10638     161.8285     323.0474      1.664     3.85     921.9453     56.94235     269.3936        19     1.351     0.905  63.76   0
       516    573.5901    276.0344 307.6977096  +6.5820897     2361.164     3239.653     3193.156      80.4642     161.3791     322.8867      1.508     3.69     907.7949     56.94235      329.738        17     1.264     0.791  47.88   0
       517    917.2822    275.1212 307.5549480  +6.5939648     1980.762     3045.744     3421.512     81.10638     161.8285     323.1758      1.694     3.61     903.9431     56.94235     293.3784        13     1.251     0.693  62.74   0
       518    737.2510    273.5348 307.6297989  +6.5886020     5712.652     7916.336     7821.042     80.85013     161.5076     323.0795      1.500     3.53     907.8643     56.94235      835.575        26     1.357     0.911  63.95   0
       519    975.1773    273.3934 307.5309520  +6.5966111     712.2769     963.1158     862.0535      80.4642     161.3791     322.8867      1.492     4.28     902.1125     56.94235     100.5443         7     1.092     0.479  48.50   0
       520    678.0663    273.3706 307.6543935  +6.5866890     2341.114     3427.537     3401.285     80.72169     161.5719     322.9831      1.524     3.46     907.5228     56.94235     349.0197        16     1.248     0.756  44.83   0
       521    393.0823    268.4481 307.7729575  +6.5791669     773.8886     1088.206     1184.104     80.97836     161.5719     323.0795      1.513     5.55     911.2585     56.94235     101.2976         9     1.081     0.803  -3.30   0
       522    933.0975    265.7454 307.5486916  +6.5983641     1126.647     1540.072     1668.825     80.85013     161.5719     323.2721      1.407     4.01     902.9765     56.94235     172.9782        11     1.142     0.621  53.19   0
       523    879.4327    257.8685 307.5712524  +6.5998241      1912.81     2798.463     2588.284     80.85013     161.5719     323.0474      1.563     4.02     904.8832     56.94235     280.1627        17     1.375     0.847  56.93   0
       524    236.6760    258.8340 307.8382600  +6.5778807     2500.045     3699.536     3396.253     80.85013     161.5719     323.0153      1.556     3.63     918.6547     56.94235       340.96        21     1.363     0.907  53.08   0
       525    769.8659    257.3399 307.6167924  +6.5963798     1729.004      2281.55     1595.752     81.10638     161.5076     323.0474      1.489     3.56     907.3849     56.94235     242.6806        16     1.152     0.928  63.89   0
       526    332.0178    250.4821 307.7989326  +6.5845338     741.4687     1092.219     961.1715     80.59305     161.2505     323.0153      1.650     5.77     913.7693     56.94235     110.7129         9     1.305     0.719  67.45   0
       527    470.6589    248.6938 307.7413938  +6.5899268     24334.32     35574.55     36707.24     80.85013     161.5719     323.1758      1.596     3.63     907.7008     56.94235      3261.32        47     1.457     1.080  60.46   0
       528    796.6001    247.7702 307.6060064  +6.6012251     14244.01     20521.69     21968.43     80.20589     161.3148     322.8546      1.534     3.55     906.9449     56.94235     2091.475        47     1.451     1.194  51.90   0
       529    476.3448    243.1531 307.7392182  +6.5924052     1611.363     2508.069     2419.084     80.97836     161.5719     323.1116      1.633     4.45     907.2893     56.94235     210.2838        16     1.305     0.791  57.83   0
       530    158.8939    242.0445 307.8711410  +6.5821959     2465.909     3389.247     3274.727     80.85013     161.5076     323.1758      1.511     3.88     920.8342     56.94235     322.8903        19     1.288     0.865  48.01   0
       531    133.4993    240.9890 307.8817266  +6.5817768     1160.178     1644.317     1809.283     80.72169     161.1861     322.8225      1.726     4.74     922.1938     56.94235     173.6785        11     1.183     0.669  58.62   0
       532    735.2056    243.5073 307.6316576  +6.6009317      689.339     902.3427     999.7328     80.59305     161.2505     322.8546      1.402     3.79     907.4107     56.94235     111.5983         7     1.028     0.469  47.91   0
       533    933.0029    238.4675 307.5496457  +6.6096239     1578.271     2197.015     2545.527     80.33515     161.1861     322.8546      1.412     4.11     902.0452     56.94235     262.0303        12     1.251     0.603  51.73   0
       534    631.2486    236.5982 307.6750814  +6.6003042     556.3406     579.3389     710.3999     80.33515     161.1861     322.6296      1.452     3.84     906.6673     56.94235     87.24323         5     1.011     0.418  83.19   0
       535    594.6874    234.4298 307.6903445  +6.5999747     5197.444     7204.116     7071.785     81.10638     161.3791      322.951      1.498     3.48     906.6037     56.94235     682.7676        26     1.355     0.919  60.76   0
       536    557.3325    234.4174 307.7058647  +6.5987279     2351.863     3292.675     3448.125      80.4642     161.5076      322.951      1.541     3.97     906.6498     56.94235     335.8256        18     1.329     0.802  57.94   0
       537    314.8185    235.2976 307.8065904  +6.5902252     1170.569     1772.369      1404.76     80.85013     161.4434     322.7903      1.648     4.74     914.2836     56.94235     135.4614        15     1.240     0.885  55.79   0
       538    399.2335    233.7523 307.7715717  +6.5936987     1639.153     2444.279      1991.98     80.72169     161.5719     322.9831      1.632     4.20     909.6218     56.94235     249.7404        16     1.343     0.780  67.10   0
       539    901.7231    231.0503 307.5628908  +6.6116418     12322.29     17063.58      17457.9     80.85013     161.6361     323.0474      1.467     3.49     902.8069     56.94235     1788.955        30     1.396     0.858  60.35   0
       540    955.6174    231.5838 307.5404804  +6.6132212     3060.159     4082.269     4365.904     80.72169     161.2505     322.9831      1.471     3.68     901.0706     56.94235     455.7593        16     1.231     0.773  61.90   0
       541    576.8712    230.8569 307.6978668  +6.6008529     975.3792     1290.807     963.1487     81.10638     161.5719     323.0153      1.420     3.88     906.5435     56.94235     159.7131        10     1.178     0.560  69.49   0
       542    329.5865    231.4372 307.8005852  +6.5923153     1034.741     1562.006     1797.119      80.4642     161.3791     322.7582      1.675     5.26     913.2634     56.94235     130.0785        11     1.241     0.631  41.78   0
       543    221.1938    231.0673 307.8456297  +6.5888242     682.2427     983.8458     607.4824      80.4642     161.3148     322.8546      1.484     4.44     918.6439     56.94235     106.2606         8     1.326     0.422  61.12   0
       544    988.3491    228.8252 307.5269732  +6.6154527     10691.01     14820.62     15164.69     80.59305     161.5719      322.951      1.486     3.56      899.862     56.94235     1503.051        31     1.374     0.937  60.52   0
       545    699.6837    228.8120 307.6469100  +6.6058105      3060.56     4515.146     4729.984     80.59305     161.3791     322.8867      1.596     3.54      906.806     56.94235     448.7986        21     1.214     0.975  54.79   0
       546     27.8936    227.5541 307.9260535  +6.5837665      27232.2     40045.72     41121.97     80.85012     161.5076     323.1758      1.579     3.62     925.7837     56.94235     3522.291        48     1.495     1.060  61.18   0
       547    274.3715    228.6708 307.8236179  +6.5916018     1157.671     1718.038     1536.548     80.72169     161.5719     323.0153      1.700     5.17     916.4518     56.94235     152.0637        12     1.082     0.812  40.42   0
       548    328.5567    226.9560 307.8011642  +6.5941309     403.2848     853.1584     1290.434     80.97836     161.5719     322.9189      1.953     4.13     913.2025     56.94235     77.14978         5     1.121     0.435  25.80   0
       549    508.4624    223.8967 307.7265230  +6.6014332     2186.349     3067.997     2641.017     80.72169     161.7002     323.1116      1.532     3.61     906.3126     56.94235     296.0255        17     1.315     0.767  64.06   0
       550    892.5333    219.4902 307.5670969  +6.6161079     2305.982      3323.59     3589.897     81.10639     161.7003     323.0474      1.636     3.61     902.5966     56.94235     381.0839        18     1.257     0.830  52.95   0
       551    840.2695    220.4546 307.5887796  +6.6139634     2131.659     3016.898     2999.187     80.97836     161.4434     322.9831      1.502     3.19     904.4558     56.94235     363.6808        13     1.207     0.690  51.65   0
       552    520.4070    219.7464 307.7217001  +6.6035473     2718.151     3749.469     3650.613      80.4642     161.3791     322.7582      1.491     3.54     906.2028     56.94235     396.4591        17     1.252     0.832  61.67   0
       553    751.8926    216.9687 307.6256161  +6.6124475     43608.36     60760.81     62952.77     81.10638     161.3791     323.0474      1.490     3.53     906.5187     56.94235     6097.507        55     1.457     1.015  57.25   0
       554    354.9639    216.2560 307.7905540  +6.5994359     5920.894     12242.95     12914.35     80.85013     161.5719     323.0795      2.146     6.74     911.4188     56.94235      639.618        45     1.967     1.193 -86.98   0
       555    985.6393    215.7643 307.5285369  +6.6207550     3237.685     4509.032      4699.92     80.72169     161.4434     322.8546      1.508     3.55     899.4462     56.94235      523.193        18     1.277     0.751  61.82   0
       556    919.8140    214.0822 307.5559434  +6.6192520      8255.11     11438.88     11621.87     80.59305     161.3148     322.8546      1.445     3.47     901.6278     56.94235     1190.246        29     1.371     0.888  61.32   0
       557    463.3350    213.1513 307.7456341  +6.6043560     5384.216     7764.557     8503.409     80.85013     161.4434     323.0153      1.567     3.53     906.6735     56.94235     704.3494        27     1.375     0.968  57.49   0
       558   1023.5856    214.1071 307.5128259  +6.6227054     1252.854     1609.439     1675.825     71.44848     129.6486     244.5102      1.263     3.26     898.0496     56.94235     233.4602         8     1.023     0.483  83.91  24
       559    238.2057    210.1763 307.8392675  +6.5980217     742.9216     1043.993     855.3779      80.4642     161.3148     322.8867      1.585     4.44      917.891     56.94235     104.1271         8     1.093     0.513  36.20   0
       560    120.6213    204.4406 307.8883122  +6.5964331     5151.689     7574.354     7827.458     80.59305     161.3791     322.8546      1.619     3.92     921.4379     56.94235     643.1133        28     1.445     0.989  66.00   0
       561    940.1276    203.7935 307.5478482  +6.6241785     967.4298     1206.047     1568.414     80.59305     161.1217      322.951      1.247     3.70     900.6343     56.94235     180.1301        10     1.118     0.593  58.75   0
       562    290.9852    201.0851 307.8176467  +6.6035498     35657.77     53021.51     54979.14     80.59305     161.3148      322.951      1.569     3.58     916.0109     56.94235     4842.056        59     1.540     1.112  60.18   0
       563    266.2852    202.1270 307.8278734  +6.6022893      7129.57     10509.37     11048.84     81.10638     161.8926     323.0795      1.606     3.87     916.9407     56.94235     892.0421        33     1.470     0.991  62.69   0
       564    617.2028    203.1656 307.6820418  +6.6136376     734.0261     1033.073     1284.229     80.07642     161.3791     322.7903      1.439     3.96     906.0793     56.94235     108.6251         6     0.795     0.565  46.48   0
       565    720.3113    200.7716 307.6392821  +6.6180784     813.6804     1280.066     1332.333     81.10638     161.3148      322.951      1.306     3.97     905.9222     56.94235     154.2491         7     1.282     0.351  43.60   0
       566    415.0841    196.6403 307.7662374  +6.6095537      53269.4     78208.65     80755.05     80.97836     161.5076     322.9831      1.583     3.60     907.6138     56.94235     6712.949        61     1.500     1.115  60.68   0
       567    171.0634    197.8771 307.8675777  +6.6008409     4245.347      6203.21     6350.902     81.23421     161.5719     323.0153      1.556     3.37     919.3695     56.94235     567.2987        26     1.328     1.020  50.53   0
       568    432.2606    197.1399 307.7590842  +6.6099239     1638.494     2403.737     2727.865     80.97836     161.5719     323.0795      1.620     3.68     907.1249     56.94235      247.816        18     1.308     0.840  49.71   0
       569    319.0814    194.2942 307.8062028  +6.6072979     19115.55     28501.91      29778.8     80.72169     161.8285     323.1437      1.599     3.54     914.0353     56.94235     2570.011        44     1.463     1.085  61.15   0
       570    754.3472    192.8849 307.6254055  +6.6224736     36177.69     50295.35     52535.13     80.97836     161.5076     323.2079      1.494     3.52     905.2294     56.94235     5093.875        49     1.420     1.006  59.40   0
       571    702.3759    194.7608 307.6469361  +6.6199599     1133.945     1307.167     811.6588     80.59305     161.3148     322.8225      1.463     5.46     905.8211     56.94235     171.4347        10     1.096     0.767  67.04   0
       572    326.6176    193.6758 307.8030926  +6.6078065     2112.434     3995.448     4603.546      80.4642     161.3148     322.9831      2.118     6.09     913.4448     56.94235     331.2324        27     1.922     0.945 -78.79   0
       573    802.6104    193.4885 307.6053321  +6.6238385     1174.443      1739.45     2032.442     80.59305     161.2505     322.8546      1.575     4.55     904.6708     56.94235     197.0204        11     1.313     0.688  66.64   0
       574     42.7451    193.6276 307.9210314  +6.5982742     586.7645     1049.864     1191.168     80.59305     161.6361     322.8867      2.138     5.22     925.0672     56.94235     94.93787         9     1.797     0.429  16.53   0
       575     71.1612    190.0445 307.9093472  +6.6007110     9771.384     14153.55     14528.79     80.72169     161.5719      322.951      1.550     3.61     923.3181     56.94235     1280.163        29     1.390     0.955  60.91   0
       576    105.3354    187.9840 307.8952191  +6.6027127     1618.572     2376.258     2306.419      80.4642     161.4434     322.9189      1.613     4.58     921.3301     56.94235     212.8596        17     1.417     0.834  83.57   0
       577   1012.9034    187.5426 307.5181545  +6.6333174     1471.418     2006.397      2244.47     80.85012     161.5076       323.24      1.407     3.37     897.5364     56.94235     195.1356        13     1.045     0.815  51.11   0
       578    980.7595    186.6818 307.5315393  +6.6326002     607.7685     853.8188     581.6753     80.97836     161.6361     322.9831      1.457     4.65     898.6147     56.94235     92.00134         6     1.080     0.568  54.00   0
       579    739.0462    180.6887 307.6321728  +6.6269974      783.682     964.8983     1163.414     80.97836     161.4434     323.1437      1.518     4.81     904.7311     56.94235     99.15967         8     0.985     0.667  72.07   0
       580    588.5375    177.6793 307.6948094  +6.6232001     931.5407     1327.094     1001.658     81.10638     161.6361     323.0474      1.596     4.74     905.3292     56.94235     138.9967         7     1.022     0.666  45.64   0
       581      4.5856    175.6506 307.9374931  +6.6044101     946.2842     1202.523     1467.871     80.33515     161.5719     290.5824      1.486     4.29      927.712     56.94235     147.8599        10     1.115     0.685  38.76  16
       582   1013.7032    173.3783 307.5182968  +6.6391925     2501.471     3442.272     4641.612     80.85013     161.3791     322.8546      1.635     3.59     896.9839     56.94235     383.0833        17     1.231     0.785  57.38   0
       583    596.6766    171.1457 307.6916475  +6.6261704     1109.032      1697.78     1704.394     81.10638     161.5719     323.0474      1.596     4.35     905.3484     56.94235     169.7932        11     1.183     0.699  68.09   0
       584    605.0455    169.1499 307.6882374  +6.6272749     2062.588     2935.949     2911.083     80.97836     161.4434     323.1116      1.474     3.62     905.4923     56.94235     299.3847        16     1.246     0.762  54.10   0
       585    349.2383    169.3677 307.7945144  +6.6186027     1173.735     1628.388      1697.83     80.59305     161.3791     322.8225      1.522     4.43     911.8418     56.94235     146.8055        14     1.120     0.848  39.91   0
       586    289.9174    167.3795 307.8192280  +6.6174302     32638.15     48420.51      50225.6     80.72169     161.2505     322.9831      1.579     3.54      916.534     56.94235     4161.434        48     1.474     1.080  60.73   0
       587     35.1408    165.8578 307.9251303  +6.6094832     4813.318     7352.731     7834.629     80.97836     161.5076     323.0795      1.648     3.79      925.498     56.94235     592.3392        26     1.421     0.986  67.23   0
       588    721.5790    164.0747 307.6399887  +6.6332726      8889.47     12138.04     12940.29     80.59305     161.4434     322.9831      1.468     3.40     904.2651     56.94235     1345.804        26     1.318     0.886  53.38   0
       589    199.0366    165.3883 307.8570536  +6.6151960     1070.364     1508.044     1190.406      80.4642     161.3791      322.726      1.631     4.75     918.5596     56.94235     148.2434        13     1.139     0.813  47.81   0
       590   1012.8016    164.6133 307.5189652  +6.6427814     537.1094     895.2384     1165.066     80.59305     161.2505     322.8225      1.826     3.49     896.7425     56.94235     74.75043         5     0.789     0.447  17.29   0
       591    275.6264    162.1250 307.8253429  +6.6191192     719.5492     995.2811     1083.224     80.59305     161.5076     323.0153      1.444     4.49     917.0228     56.94235      124.665         7     0.933     0.691 -84.84   0
       592    132.3473    161.0446 307.8849076  +6.6147448      5140.13     7794.748     8564.344     80.97836     161.5719     323.0474      1.622     3.66     919.3834     56.94235     676.7816        29     1.446     0.998  66.70   0
       593    660.0033    158.3099 307.6657673  +6.6335915     717.8605     961.1487     1178.025      80.4642     161.2505     322.7903      1.514     4.15     905.4663     56.94235     110.9464         6     1.102     0.446  72.74   0
       594    594.2777    158.9056 307.6930561  +6.6311438     847.4249     1186.234     1256.098     80.72169     161.7644     323.1116      1.590     4.24     904.9944     56.94235       135.68         7     0.942     0.544  55.94   0
       595    471.4458    158.2510 307.7441140  +6.6272954     1473.327     1877.679     2125.718     81.10638     161.4434     323.0795      1.380     3.27     905.5192     56.94235     222.0403        12     1.033     0.756  46.73   0
       596    402.9734    157.0449 307.7726041  +6.6254952     4113.617     6751.722     7113.477      80.4642     161.6361      322.951      1.730     4.11     907.4729     56.94235     549.0002        31     1.579     1.022  63.90   0
       597    121.9432    155.9988 307.8894007  +6.6164777     1759.459     2707.106     3145.629     80.33515     161.2505     322.7582      1.652     4.27     919.5317     56.94235     252.0151        19     1.424     0.849  59.47   0
       598    367.3643    156.0663 307.7874321  +6.6247034     3427.298     4786.297     4555.631     80.85012     161.5719     323.1116      1.501     3.50     910.4949     56.94235     458.9478        19     1.247     0.885  61.59   0
       599    683.7934    153.9724 307.6560283  +6.6361789     832.6278     1005.523     1326.508      80.4642     161.4434     322.8546      1.335     2.72     904.9459     56.94235     166.5707         6     0.883     0.435  53.54   0
       600   1014.3038    150.1889 307.5188244  +6.6487872     1798.632     2368.299     2187.564     80.72169     161.2505     322.8546      1.406     3.88     896.1236     56.94235     270.3265        15     1.229     0.806  50.61   0
       601    740.0688    150.1191 307.6327751  +6.6396534     641.4999     1055.137     977.9652     81.23421     161.8285     323.0795      1.800     5.00     903.2344     56.94235     113.2322         6     1.183     0.599  64.79   0
       602     60.3814    151.6158 307.9151257  +6.6162137     586.2881     973.5412       714.04     80.72169     161.3148      322.951      1.525     3.46     923.2309     56.94235     82.36035         5     1.077     0.322  20.79   0
       603    858.1769    146.7789 307.5838121  +6.6449819     367.3391     892.1283     1517.092     80.72169     161.3791     323.0153      3.793     5.19     900.7345     56.94235     107.5483         6     1.374     0.554 -72.49   0
       604    219.2733    144.9187 307.8493373  +6.6243281     6064.794     8923.261     8784.209     81.23421     161.8926     323.0795      1.598     3.59      918.332     56.94235     772.3223        28     1.443     0.946  59.98   0
       605    101.9577    144.6344 307.8980883  +6.6204967     2463.516     3791.552     4290.507     80.72169     161.5719     322.8546      1.600     4.07     919.7863     56.94235     331.8236        20     1.397     0.931  49.96   0
       606    681.1337    143.7799 307.6574761  +6.6402982     6784.244     9213.671     9669.566     80.59305     161.5719      322.951      1.478     3.67     904.4648     56.94235     888.6671        24     1.309     0.868  56.45   0
       607    829.2523    143.2831 307.5959481  +6.6454586     1055.059     1560.777     1968.401     80.97836     161.5719     323.1437      1.433     4.63      901.524     56.94235     206.3611         9     1.186     0.539  65.09   0
       608    633.3220    141.0663 307.6774335  +6.6398175     10251.47     14838.87     16423.28     81.10638     161.6361     323.0153      1.563     3.52      904.451     56.94235     1495.453        38     1.447     1.018  59.06   0
       609     32.1630    140.3851 307.9272294  +6.6198996     1061.019     1604.914     1277.975     80.59305     161.3791     322.8225      1.620     5.59     925.5819     56.94235     139.9479        14     1.211     0.968  75.60   0
       610    571.2135    140.8226 307.7032479  +6.6378370     657.7379     702.2792     821.0815     80.72169     161.3791      322.951      1.174     2.98     903.9223     56.94235     142.3936         5     0.768     0.509  40.08   0
       611    268.0110    141.4512 307.8292049  +6.6273988     866.0198     1089.379     1227.784     80.33515     161.4434     322.7903      1.443     3.98     917.2823     56.94235     142.9321         8     1.104     0.477   8.09   0
       612    360.4554    136.6919 307.7909562  +6.6324706     3697.631     6194.588     6275.623     80.85013     161.4434     323.1758      1.874     3.99     911.5624     56.94235     494.2626        34     1.474     1.290  82.90   0
       613   1006.6510    135.8094 307.5224862  +6.6544691     921.2847     1458.052     1577.319      80.4642     161.4434      322.726      1.817     4.54     895.8027     56.94235     130.8715        10     1.186     0.738  68.38   0
       614    542.3671    136.2174 307.7153886  +6.6387714     1959.825     2740.893     2515.556     80.59305     161.3791     322.9189      1.469     3.74     903.5728     56.94235     274.6728        15     1.189     0.790  55.32   0
       615    636.8408    132.5677 307.6762572  +6.6434443     58190.77     82089.62     85170.38     80.59305     161.4434     322.9189      1.524     3.53     904.0113     56.94235     8066.377        59     1.457     1.061  59.13   0
       616    315.9060    126.2106 307.8098196  +6.6353013     3754.177      5548.81     5685.417     80.59305     161.1861     322.8225      1.527     3.39     915.0311     56.94235     541.1022        26     1.342     1.061  59.07   0
       617     13.4133    109.2906 307.9360717  +6.6321054     731468.2      1490438      1605491     80.72169     161.3148     322.8546      2.106     5.62     927.0877     56.94235     61450.34       407     2.122     1.782  67.75  28
       618    715.8809    120.8228 307.6438101  +6.6509401     1030.344     1352.462     1639.809     80.59305     161.2505     322.9831      1.550     4.43     902.5641     56.94235     142.9897         8     1.098     0.508  54.50   0
       619    687.1093    119.6868 307.6558033  +6.6504460      1540.85     2176.132     2380.659     80.72169     162.0208     323.1758      1.576     4.00     903.0012     56.94235     225.8347        14     1.214     0.752  52.22   0
       620    701.3260    116.5403 307.6500018  +6.6522211      3636.15     4962.375     4708.652     81.10638     161.5719     323.0474      1.516     3.53     902.6205     56.94235      511.885        20     1.231     0.898  62.93   0
       621    579.2026    116.8508 307.7007353  +6.6480024     410.5038      782.896     1152.288     80.33515     161.1861     322.6296      2.294     4.18     903.2363     56.94235     85.29449         6     1.210     0.411  60.52   0
       622    442.9870    107.5824 307.7576460  +6.6472605     4614.349     6613.288     6761.863     80.72169     161.2505      322.951      1.521     3.40      905.276     56.94235     634.6603        23     1.316     0.911  62.44   0
       623    897.5259    103.8979 307.5689009  +6.6640018     2320.684     3170.772     2776.434     80.59305     161.6361     323.0474      1.417     3.77     897.9807     56.94235     385.2439        15     1.267     0.676  51.81   0
       624    915.5159    103.0110 307.5614552  +6.6649689     4345.456     5808.748     5962.408     80.59305     161.3148     322.8867      1.438     3.41     897.5607     56.94235      663.869        18     1.227     0.765  53.61   0
       625    595.9829    103.9329 307.6941977  +6.6538983     754.8062      982.843     901.6967      80.4642     161.5076      322.951      1.410     3.74     902.6342     56.94235     116.6832         5     1.022     0.394  58.59   0
       626    607.5552    101.3850 307.6894749  +6.6553381     1980.141     2802.541     2491.845     80.33515     161.3791     322.8225      1.477     3.29     902.3579     56.94235     304.2255        16     1.170     0.828  63.54   0
       627    406.4308     99.4920 307.7731080  +6.6493736     2251.602     3046.858     2818.594     81.10638     161.3791     323.0153      1.475     3.32     907.5064     56.94235      341.045        16     1.223     0.781  55.87   0
       628    253.4872    100.7206 307.8366146  +6.6437271     947.5176     1368.455      1942.33     80.72169     161.8285     323.1758      1.668     3.79     917.6335     56.94235     157.1855        10     1.117     0.637  40.82   0
       629    154.3215     96.1689 307.8779709  +6.6422698     3404.366     5113.866     4902.158     80.85013     161.5719     323.0153      1.617     3.88     918.2159     56.94235     467.9891        24     1.473     0.928  64.68   0
       630     36.1650     94.0683 307.9271341  +6.6391571     13061.43     19476.39     20782.05     80.85013     161.6361     323.1437      1.589     3.93     924.6702     56.94235      1738.33        40     1.464     1.056  58.06   0
       631    302.7250     94.7705 307.8163573  +6.6478391     1479.981     1966.532     2404.225     80.85013     161.6361     323.0474      1.476     3.91     916.2027     56.94235     206.3443        13     1.076     0.794  72.93   0
       632    575.9642     94.2176 307.7028428  +6.6572387     701.5949     959.0586     1040.114      80.4642     161.3791     322.8225      1.429     4.72     902.5648     56.94235     122.8604         8     1.087     0.582  59.16   0
       633    563.0721     94.1006 307.7082036  +6.6568548     901.0762     1409.689     1719.365     80.72169     161.7644     323.0474      1.564     3.38     902.7479     56.94235     156.5519         9     0.977     0.689 -89.34   0
       634    770.9866     93.0396 307.6218462  +6.6642552     671.3561     1145.899     1918.249      80.4642     161.3791     322.7903      2.400     4.86     900.6582     56.94235     114.9901         8     1.261     0.531  67.84   0
       635    957.1481     92.8292 307.5444971  +6.6705631      693.335      888.878     1127.674     80.72169     161.7002      322.951      1.510     4.49     895.8818     56.94235     118.0829         6     0.958     0.598  61.88   0
       636    994.2175     92.2338 307.5291134  +6.6720463     548.9271     1001.619     1048.823     80.59305     161.3791     322.8867      2.101     4.00     894.4563     56.94235     104.6575         6     0.827     0.552  45.72   0
       637    904.9203     90.0817 307.5662918  +6.6699534     714.3719     805.1207     896.4368     81.10638     161.8285     323.1758      1.378     4.32     897.2902     56.94235     120.7375         7     1.188     0.448  58.35   0
       638    837.8174     88.7195 307.5942210  +6.6682736     7029.007     9522.994     9945.027     80.59305     161.2505      322.951      1.451     3.90     898.8759     56.94235     1089.869        29     1.350     0.934  58.29   0
       639    782.9938     89.0289 307.6169916  +6.6663128     3535.138     4805.146     5043.707      80.4642     161.3791     322.8546      1.461     3.69     900.2931     56.94235     535.0927        20     1.379     0.738  54.29   0
       640    428.2884     89.5691 307.7643606  +6.6542044     1129.306     1672.745     1719.412     81.10638     161.3791     322.9831      1.631     4.97     905.9429     56.94235     172.0834        12     1.215     0.746  37.43   0
       641    928.3062     88.5779 307.5566246  +6.6713554     564.2753     825.0968     907.5127     80.97836     161.3791     322.8546      1.289     3.90     896.8105     56.94235     110.9581         6     0.886     0.495  42.82   0
       642    545.2683     86.8869 307.7158442  +6.6592364     1300.509     1910.762     2427.882     81.10638     161.8285     323.0795      1.592     4.69     902.8351     56.94235     190.7726        13     1.266     0.874  75.38   0
       643     76.5332     85.8293 307.9106406  +6.6439190     3551.938     5374.742     5212.146     80.72169     161.5719     323.0153      1.638     3.96     920.5598     56.94235      462.575        23     1.333     0.938  57.07   0
       644     60.8514     86.9841 307.9171170  +6.6429138      1050.76     1587.441     1463.527      80.4642     161.6361     322.7582      1.512     4.78     922.0166     56.94235     137.2396         9     1.018     0.636  50.87   0
       645    665.0782     86.3996 307.6660771  +6.6634521     702.4041     746.2712      812.495     80.20589     160.9284     322.7582      1.224     4.40     901.7687     56.94235     114.8512         6     0.889     0.620  35.63   0
       646    437.9390     85.7315 307.7604801  +6.6561128     1092.755     1493.307     1356.875     81.10638     161.5076     323.0474      1.527     4.44     905.5168     56.94235     163.0534         8     1.093     0.513  53.33   0
       647    600.2313     82.6121 307.6931499  +6.6628436     1531.435     2264.943     1519.001      80.4642     161.3148      322.951      1.607     5.72     902.0723     56.94235     200.4009        13     1.247     0.741  44.85   0
       648     18.7957     81.4716 307.9347770  +6.6437723     2823.678     4158.472     4376.835     80.59305     161.1861     322.8867      1.573     3.95     925.2996     56.94235     353.0457        22     1.405     0.856  59.76   0
       649    777.6957     76.5989 307.6196107  +6.6712677     2121.746     3001.073     3033.218      80.4642     161.1861     322.6617      1.531     3.34     899.7631     56.94235     334.1354        17     1.191     0.904  55.93   0
       650    418.3279     76.6613 307.7689345  +6.6591993     1029.411     1601.686      1295.61     81.10638     161.5719     323.1116      1.702     4.62     906.7334     56.94235     159.0835        13     1.380     0.687  59.20   0
       651    669.4453     76.7419 307.6645873  +6.6675859     593.7559     773.4496     882.0054     80.97836     161.5719     323.1437      1.485     3.54     901.6511     56.94235     95.74701         5     0.999     0.726 -21.49   0
       652     91.2982     76.8810 307.9048086  +6.6481108     864.9073     1289.716     1712.365     80.85013     161.9567     323.1437      1.770     4.23     919.0251     56.94235     135.4932         8     1.133     0.568  44.40   0
       653    115.4086     75.4684 307.8948387  +6.6495061     964.9244     1467.597     1578.723      80.4642     161.3148      322.951      1.636     4.90     918.2609     56.94235     150.3735        10     1.299     0.524  44.14   0
       654    104.2042     70.1697 307.8996732  +6.6513164     10055.13     14983.19     15791.05      80.4642     161.4434     322.8225      1.588     3.86     918.2404     56.94235     1311.005        34     1.481     0.975  65.29   0
       655    433.3618     70.0428 307.7629108  +6.6624367     2831.856     4178.761     4307.561     80.72169     161.5719     322.9189      1.565     3.56     906.0352     56.94235     384.3196        18     1.259     0.857  52.60   0
       656    254.6776     69.4005 307.8371777  +6.6566983     656.2719     1201.969      1570.78     80.20589     160.9284     322.7903      2.424     5.54     917.3378     56.94235     115.9562         8     1.594     0.543  50.61   0
       657    270.6376     64.2495 307.8307201  +6.6593617     1684.291     2731.101     3634.084     80.72169     161.4434     322.9189      1.818     4.62     917.1555     56.94235     219.3133        18     1.376     0.967  77.82   0
       658    647.0115     62.2931 307.6743952  +6.6728003     20269.86     28190.27     29605.74     80.72169     161.2505     322.8546      1.491     3.62     901.5626     56.94235     2734.663        40     1.412     0.969  58.14   0
       659    676.9424     63.8158 307.6619067  +6.6731739     661.8582     858.3444     1096.133     80.33515     161.5076     322.7582      1.369     4.30     901.3732     56.94235     121.4531         6     1.210     0.435  56.62   0
       660    546.7355     58.3717 307.7161948  +6.6710589     5569.726     7999.833      7859.66     80.59305     161.5719     322.9831      1.535     3.83     902.1313     56.94235     728.8431        27     1.372     0.925  53.80   0
       661    264.9309     58.6457 307.8332805  +6.6614834     2063.978     3254.958     4957.613     80.97836     161.5076     323.0474      2.003     3.82     917.1736     56.94235     302.6865        17     1.273     0.887  59.58   0
       662    633.3868     52.9686 307.6803704  +6.6761938     3218.939     5559.207     6770.321      80.4642     161.3148     322.9831      2.023     6.35     901.5058     56.94235     510.8811        33     2.289     0.854  69.96   0
       663    272.9541     54.2858 307.8300940  +6.6635533     9898.502     14553.66     15772.27     80.97836     161.4434     323.0474      1.577     3.60     917.0947     56.94235     1284.566        32     1.421     0.992  60.92   0
       664     14.3329     56.7109 307.9374694  +6.6538446     1183.896     1714.129     1250.462     81.10638     161.7644     322.9831      1.560     4.12     923.9296     56.94235     208.1295        11     1.211     0.679  39.62   0
       665    452.3417     53.9271 307.7555675  +6.6697276      24637.6     35834.23     37347.07     81.10638     161.5719     323.0153      1.564     3.55     905.0687     56.94235     3233.512        49     1.451     1.097  56.84   0
       666    332.8282     54.7932 307.8051984  +6.6653564     1041.911     1533.687     1712.417      80.4642     161.4434     322.8546      1.648     5.07     914.4882     56.94235     145.2065        11     1.148     0.808  84.39   0
       667     38.2076     53.9632 307.9276426  +6.6557839     2525.526     3622.483     3303.494     80.20589     161.3791     322.7582      1.506     3.46     922.0048     56.94235     345.4417        20     1.302     0.884  57.59   0
       668    930.2141     53.9299 307.5569941  +6.6857249     2222.332     2994.688     3275.336      80.4642     161.4434      322.951      1.476     4.09     895.5864     56.94235     344.6893        14     1.250     0.668  57.28   0
       669    565.4960     54.1176 307.7085425  +6.6734443     812.2175     922.5884     879.3021     80.85012     161.9567     323.1437      1.303     3.47      901.911     56.94235       117.37         8     0.886     0.643  40.07   0
       670    537.6030     53.8161 307.7201430  +6.6726336     662.3897     965.1442      975.099     80.59305     161.1861     322.8867      1.564     4.01     902.1759     56.94235     119.0122         6     1.204     0.382  58.90   0
       671    260.8043     50.9152 307.8352562  +6.6645364     3294.354     5103.572     6330.685      80.4642     161.1861     322.6939      1.704     3.53     917.1407     56.94235     454.8569        24     1.419     0.911  53.31   0
       672    314.1697     49.1498 307.8131418  +6.6670594     954.4528     1487.873     1536.745     80.59305     161.7002      322.951      1.569     3.93      915.574     56.94235      156.906        10     1.062     0.668 -83.92   0
       673    950.9785     44.4026 307.5486850  +6.6903520     1039.605     1499.045     1650.359     80.59305     161.2505     322.7903      1.409     3.24     894.2264     56.94235     188.4634         9     1.025     0.653  44.76   0
       674    107.2768     44.3284 307.8992705  +6.6620889     641.4921     772.7432     822.3332     81.23421     161.8285     323.0474      1.436     4.47     917.4691     56.94235     97.55792         6     1.021     0.556  49.67   0
       675    702.0430     43.4229 307.6521622  +6.6824341     2008.993     2923.644     2933.004      80.4642     161.4434     322.8546      1.531     4.46     900.0178     56.94235     291.7488        17     1.384     0.772  54.89   0
       676    268.0093     38.6732 307.8326758  +6.6698330     885.7563     1360.964     1727.037      80.4642     161.1217     322.8867      1.984     5.08     917.0372     56.94235     130.4409         9     1.334     0.546  66.50   0
       677    212.9995     38.9415 307.8555241  +6.6678720     703.5201     1216.023     784.9111     80.20589     161.2505      322.726      1.790     4.89     917.1078     56.94235     124.9187         9     1.263     0.755  52.14   0
       678    190.4218     36.3292 307.8649936  +6.6681908     11644.91     17057.98     17485.83     80.59305     161.4434     323.0474      1.606     3.70     917.0553     56.94235     1595.603        36     1.443     1.024  57.55   0
       679      3.7640     36.5336 307.9425437  +6.6618187     1070.762     1452.905     972.7538     80.85013     157.6717     280.1842      1.472     4.09     923.0504     56.94235     165.9303        10     1.172     0.592  55.99  16
       680    534.7264     34.6845 307.7219827  +6.6804362     3204.434     4490.718     4827.307     81.10638     161.8926     323.0795      1.535     3.82     901.8325     56.94235     447.4091        19     1.308     0.791  54.30   0
       681    936.0329     34.0947 307.5552415  +6.6941090     4551.536     6018.689     5820.924     81.10638     161.4434     323.1437      1.421     3.71      894.612     56.94235     645.9374        20     1.313     0.771  57.41   0
       682    736.9752     32.8361 307.6380023  +6.6879744     2221.549     3106.519     3053.547     80.59305     161.3791     322.7903      1.503     4.01     898.0018     56.94235     304.6376        19     1.547     0.744  49.43   0
       683    472.9027     32.9405 307.7477312  +6.6790824     2033.646     2794.676     2876.264     80.72169     161.5719     323.1758      1.485     3.37     903.6693     56.94235     305.2368        17     1.216     0.836  58.68   0
       684   1000.6920     30.2697 307.5285002  +6.6978467     2112.019     3120.381      2699.26     80.97836     161.7002     323.0474      1.564     4.10     891.0786     56.94235      330.853        16     1.323     0.828  73.11   0
       685    720.1575     26.8430 307.6451923  +6.6898860     8230.022     11238.39      11367.7     80.72169     161.5719     322.8546      1.474     3.69     898.5891     56.94235     1166.337        28     1.361     0.875  59.43   0
       686    640.3137     26.2066 307.6783924  +6.6874754     4162.918     5848.825     5150.451      80.4642     161.2505     322.7903      1.490     3.44     901.1621     56.94235     604.3457        24     1.315     0.903  53.80   0
       687    342.4558     25.7496 307.8021781  +6.6776712     1056.849     1459.529     2048.607     80.97836     161.5719     323.0795      1.923     4.79     913.9739     56.94235     129.0764        12     1.089     0.820  60.99   0
       688    396.4611     24.4359 307.7797817  +6.6800277     718.6645     777.7639     706.3279     80.97836     161.5719     323.0153      1.442     3.76     909.7966     56.94235     108.9505         6     1.037     0.391  71.19   0
       689    527.4561   1019.7810 307.6918503  +6.2734571     1117.165     1771.188      1685.42      80.4642     161.5076     298.1605      1.752     6.28     936.3897     56.94235     132.1731        15     1.240     1.051  61.47  16
       690    761.5930   1017.7472 307.5947018  +6.2821335     8147.792     12433.49     13379.17      80.4642     161.3791     316.9516      1.665     3.81      932.024     56.94235     1086.538        33     1.514     0.994  55.49  16
       691    687.4949     21.1220 307.6589575  +6.6911548     954.4264     1328.999     1175.567     80.72169     161.7644     323.0795      1.606     4.54     900.2156     56.94235     132.1086        13     1.384     0.654  51.58   0
       692    556.9117   1018.4000 307.6796665  +6.2750142     4494.182     6467.425     6667.127     80.20589     161.0573     311.8695      1.533     3.62     936.1388     56.94235     591.0376        23     1.370     0.879  63.48  19
       693    515.8242     18.9700 307.7303665  +6.6862905     1019.246     1515.729     1425.185      80.4642     161.4434     322.8867      1.575     4.78     902.0258     56.94235     144.9092         9     1.005     0.645  55.26   0
       694    554.1937   1010.5794 307.6810580  +6.2781522      9238.38     13419.32     14297.84     80.59305     161.3148     322.8546      1.576     3.65     936.0333     56.94235     1209.422        34     1.453     1.005  60.53   2
       695    432.1945     18.0489 307.7651487  +6.6838646     705.4166     1168.231     1496.011     80.33515     161.3791      322.726      1.633     3.90     906.9854     56.94235     96.01886         6     0.927     0.470  56.73   0
       696    822.8359   1017.2805 307.5692882  +6.2843730     1207.768     2063.438     2363.834     80.85013     161.6361     320.1113      1.741     5.30     930.3972     56.94235      229.975        14     1.423     0.808  51.09  16
       697    307.2490   1016.9767 307.7833748  +6.2672283     15975.34     24055.63     26295.35     80.59305     161.6361     321.6311      1.640     3.72     937.2487     56.94235     2112.711        53     1.497     1.428 -50.10  16
       698      3.8891   1018.3223 307.9092794  +6.2564709     812.1805     1013.347     1209.172     80.72169     158.8518      271.036      1.369     4.80     936.6756     56.94235     105.6451         9     0.930     0.702  68.78  16
       699    471.9968     15.1870 307.7487059  +6.6863820     576.5352     757.6408     68.18434     80.59305     161.2505     322.9189      1.227     3.76     903.7215     56.94235     105.2386         5     0.822     0.494  49.18   0
       700    431.4685   1017.3841 307.7317854  +6.2712289     1031.393     1281.554     1344.858      80.4642     161.5076     319.5598      1.393     4.66     936.8943     56.94235     162.2123         8     1.043     0.592  45.19  16
       701    133.3734   1017.6873 307.8555419  +6.2610912     521.0954      669.629     482.3509     81.10638     161.3791     317.4096      1.276     4.32     936.5768     56.94235     91.38538         5     1.056     0.504  44.28  16
       702    278.6559   1014.7803 307.7953205  +6.2671748     1072.079     1464.054      1263.63      80.4642     161.5719     322.8546      1.688     5.03      937.287     56.94235     170.5844        10     1.112     0.737  61.30   0
       703    922.9027   1011.2949 307.5279385  +6.2901862     8677.331     13972.43      14645.4     80.97836     162.1488     322.8867      1.726     3.87     928.5594     56.94235     1136.234        38     1.594     1.072  60.88   0
       704    896.4713   1007.4525 307.5390423  +6.2908904     12521.69      20090.5     21836.62     80.85013     161.5076     323.0474      1.779     3.87     928.5602     56.94235     1549.361        48     1.573     1.232  58.28   0
       705      6.3372   1009.4086 307.9085643  +6.2602336     636.4065     800.5551      774.345     80.33515     161.3148     309.4648      1.264     4.76     936.6756     56.94235     96.70154         6     0.922     0.697  78.42  16
       706   1018.2054   1006.9264 307.4885121  +6.2951696     4389.387     7461.008     7532.163     80.59305     161.1217     313.6278      1.765     3.91     925.4413     56.94235     594.6267        31     1.588     1.076  58.77  16
       707    609.3769   1007.9802 307.6582325  +6.2810735     1623.974       2214.6     2242.844     80.72169     161.4434     322.9831      1.397     3.23     935.0722     56.94235     236.8546        16     1.230     0.762  59.63   0
       708    650.3567   1006.0086 307.6412833  +6.2832594     1570.927      2277.36     2493.062      80.4642     161.3791     322.7903      1.553     4.68     933.9913     56.94235     205.3513        16     1.332     0.879  66.16   0
       709    540.8234   1006.4060 307.6867498  +6.2794275     4375.574     6880.304     7527.915      80.4642     161.3148     322.9189      1.719     3.93     936.0868     56.94235     634.1527        37     1.640     1.177  28.29   0
       710     75.2362   1004.6019 307.8801213  +6.2645378     942.5637     1364.101     1974.003     80.07642     161.3791     322.8546      1.674     6.17     936.6756     56.94235     127.6049        13     1.353     0.792 -88.66   0
       711    805.9867   1004.7347 307.5767051  +6.2889902     656.4549     1156.041     1432.658      80.4642     161.3791      322.951      1.850     3.52     930.7032     56.94235     109.9554         5     0.810     0.494  62.53   0
       712    493.7584   1002.8818 307.7064102  +6.2793053     2499.908     3783.515     4314.672     80.97836     161.5719     322.9831      1.681     3.77     936.2405     56.94235     327.3475        19     1.299     0.868  55.34   0
       713    928.2639    995.0016 307.5262581  +6.2970927     43104.82     69540.04     73755.48     80.33515     161.3148     322.8225      1.722     3.86     928.0446     56.94235     5342.454        76     1.685     1.258  59.20   0
       714    333.0506    996.7178 307.7733447  +6.2764592     516.9572     678.8871     1010.775     80.97836     161.6361     323.0795      1.498     4.32      937.275     56.94235     107.2201         6     1.210     0.508  55.76   0
