#   1 NUMBER                 Running object number                                     
#   2 X_IMAGE                Object position along x                                    [pixel]
#   3 Y_IMAGE                Object position along y                                    [pixel]
#   4 ALPHA_J2000            Right ascension of barycenter (J2000)                      [deg]
#   5 DELTA_J2000            Declination of barycenter (J2000)                          [deg]
#   6 FLUX_APER              Flux vector within fixed circular aperture(s)              [count]
#   9 FLUXERR_APER           RMS error vector for aperture flux(es)                     [count]
#  12 FLUX_RADIUS            Fraction-of-light radii                                    [pixel]
#  13 FWHM_IMAGE             FWHM assuming a gaussian core                              [pixel]
#  14 BACKGROUND             Background at centroid position                            [count]
#  15 THRESHOLD              Detection threshold above background                       [count]
#  16 FLUX_MAX               Peak flux above background                                 [count]
#  17 ISOAREA_IMAGE          Isophotal area above Analysis threshold                    [pixel**2]
#  18 A_IMAGE                Profile RMS along major axis                               [pixel]
#  19 B_IMAGE                Profile RMS along minor axis                               [pixel]
#  20 THETA_IMAGE            Position angle (CCW/x)                                     [deg]
#  21 FLAGS                  Extraction flags                                          
         1      3.6632     93.1018 307.9360287  +6.6320754     738916.8      1621904      1737437     78.20776     151.9447     269.8064      2.184     8.46     843.6165     55.08135     62215.96       301     2.153     1.674 -63.95  28
         2    180.4186     19.9761 307.8650551  +6.6681679      10074.6     16304.97     17041.96     78.08353     156.1671     312.3963      1.736     3.93      837.692     55.08135     1443.313        42     1.667     1.090 -48.97   0
         3    524.6776     18.0332 307.7221041  +6.6804347     2821.063     4433.197     4666.882     78.20776     156.2913     312.4584      1.660     3.85     825.1906     55.08135     402.0016        26     1.419     1.032 -52.02   0
         4    926.1044     17.3578 307.5553525  +6.6940300     3803.988     6090.206     6171.626      78.3318     156.2292     312.6137      1.735     3.90     822.7964     55.08135     482.0075        27     1.511     0.934 -53.73   0
         5    462.8175     16.5471 307.7478529  +6.6789912     1722.284     2754.592     2680.356     77.83446     156.3534     312.2097      1.684     4.18     827.6163     55.08135     225.9727        19     1.380     0.887 -40.04   0
         6    726.8998     16.1023 307.6381556  +6.6879472     1948.371     3113.701     3324.911     78.33181     156.6636     312.3341      1.699     4.41      822.696     55.08135     288.0342        20     1.359     0.954 -48.70   0
         7    990.9316     13.4722 307.5285482  +6.6977796     1576.853     2765.648     3384.906     78.45565     156.4155     312.4895      2.162     5.73     819.5839     55.08135     235.7828        23     1.860     0.861 -53.36   0
         8    710.1437     10.2067 307.6453133  +6.6898255     6826.738     11038.51     11726.58     77.83446     156.1671     312.2097      1.732     4.07     822.7018     55.08135      914.272        36     1.537     1.094 -52.10  16
         9    630.4246      9.5552 307.6784546  +6.6874484     3592.565     5550.421     5648.376     77.83446     156.2913     312.3652      1.674     4.18     823.8114     55.08135     452.2992        28     1.479     1.007 -51.62  16
        10    332.5097      9.1106 307.8022360  +6.6777239     956.6574     1461.154     1306.436      78.3318     156.7875     312.5827      1.612     4.34     836.2912     55.08135     121.9069        11     1.037     0.817 -52.21   0
        11    430.5926      5.9013 307.7615960  +6.6823144     6243.836     9872.265     10611.76     78.08353     155.9182     295.3018      1.709     3.94     829.8788     55.08135     940.0551        36     1.551     1.093 -43.16  16
        12     31.5284      5.6787 307.9273855  +6.6690995     8151.465     13131.24     13843.82      78.5793     156.5396     293.3557      1.776     3.79     838.8164     55.08135     1115.417        41     1.541     1.184 -43.56  16
        13    677.8344      4.2097 307.6589362  +6.6912293     924.1021     1502.677     1492.542     77.83446     155.3568      276.594      1.668     4.13     822.9338     55.08135      136.629        12     1.068     0.880 -52.82  16
        14    506.0113      2.8112 307.7303670  +6.6860988     985.7965     1342.276     1229.908     78.20776     143.6008     257.9219      1.431     4.78     825.7589     55.08135     139.2999        12     1.138     0.757 -54.38  24
        15    326.7908      1.8506 307.8048546  +6.6805308     9037.292      12048.8     12756.54     73.86654     131.6801     243.0779      1.383     3.50     836.6062     55.08135     1524.359        27     1.429     0.849 -12.92  24
        16    100.6078      1.8867 307.8988160  +6.6729724     1913.392     2693.054     2691.039     73.99786     132.0483     243.7162      1.428     3.82     837.2141     55.08135     321.1037        16     1.276     0.772 -20.92  24
        17    422.0684      1.7676 307.7652754  +6.6837374     706.3561     894.4625     1522.267     73.07368     130.4951     242.1175      1.348     4.38     830.5903     55.08135     115.2664         7     0.919     0.808 -19.14  24
        18     91.6087      1.1681 307.9025785  +6.6729686     714.0717     1059.862     1363.679     65.21037     121.3991     232.2945      1.833     3.65     837.2672     55.08135     183.8803         8     1.352     0.369   2.58  24
        19   1008.9758    990.1147 307.4886421  +6.2951304     3225.816     6885.945     7659.582     78.33181     156.0427     312.3341      2.229     5.06     846.2818     55.08135     346.0842        39     1.677     1.404 -48.48   0
        20    751.6511   1021.7493 307.5944153  +6.2735516     942.1525     1884.654     1648.259     78.33181     148.2579     264.1701      1.990     6.53      853.636     55.08135      128.197        17     1.444     1.218 -59.08  24
        21    720.1606   1023.7216 307.6074220  +6.2716935     974.1465     1204.492      1683.17     67.40662     123.4609     234.3335      1.128     2.69     854.2238     55.08135     292.7262         9     1.128     0.433  -6.33  24
        22    576.1636   1023.7693 307.6671958  +6.2668968     1177.227     1607.284     1784.217     66.68257     122.5136     233.3786      1.224     4.16     858.1699     55.08135     285.0997         8     1.222     0.404  -6.02  24
        23    600.0323    991.0386 307.6583773  +6.2812031     1102.529     1909.036     2131.893     77.95909     156.1049      312.303      1.825     5.54     857.0577     55.08135     146.1076        13     1.409     0.859 -51.25   0
        24    531.4071    989.8370 307.6869051  +6.2794206     3458.002     6460.878     7283.245     77.58459     156.1049     312.2408      2.037     4.20     857.3756     55.08135      394.082        35     1.555     1.285 -35.88   0
        25    641.1186    989.3296 307.6413782  +6.2832721     1104.326     1926.606     2002.129      78.5793     156.6016     312.5205      1.773     6.41     855.9525     55.08135     146.0509        17     1.396     1.171 -55.06   0
        26     66.2277    988.6437 307.8800437  +6.2644278     865.4459     1508.705     1636.253     77.95909     156.3534     312.3963      2.001     6.37     853.8257     55.08135     100.2568        13     1.208     0.944 -62.01   0
        27    484.7556    986.3547 307.7063871  +6.2793086     1936.957     3314.359     3324.638     78.33181     156.2913     312.4584      1.836     4.65     856.9854     55.08135     223.1284        23     1.519     0.942 -55.01   0
        28    918.9786    978.3547 307.5263938  +6.2970096     31918.21     65249.96     72847.79     77.95909     156.2292     312.3341      2.169     4.62     850.9227     55.08135     3449.734        90     1.959     1.579 -51.99   0
        29    226.1492    977.0444 307.8140486  +6.2745485     1490.991     2462.854     2817.885     78.45565     156.2292     312.5205      1.809     4.45     855.7824     55.08135     171.7498        17     1.316     0.932 -64.40   0
        30    114.0974    977.0673 307.8605607  +6.2708042     545.5681     722.4507     826.6824     78.33181     156.3534     312.5205      1.549     5.80     853.9573     55.08135     87.11359         6     1.331     0.711 -80.09   0
        31    816.9125    972.0080 307.5689763  +6.2962514     1853.364     3642.218     4230.416     77.95909     155.9804     312.2408      2.132     5.05     852.6345     55.08135     208.3674        28     1.638     1.110 -65.10   0
        32    765.1497    970.2371 307.5905239  +6.2952677     5213.283     10209.95     11394.25     78.08353     156.2292     312.3652      2.086     4.79     853.3888     55.08135     638.4083        48     1.914     1.340 -65.24   0
        33    625.1924    975.0099 307.6484662  +6.2886561     597.3188     931.6253     760.6796     77.83446     156.1049     312.3963      1.749     3.97     856.1543     55.08135     84.63934         6     0.927     0.487 -53.58   0
        34    552.1783    969.3668 307.6789645  +6.2885623     739.8076     1424.003     1576.374     77.83446     156.1049      312.303      2.089     6.14     856.8041     55.08135     105.7807        12     1.369     0.813 -57.32   0
        35    234.2751    969.2819 307.8109348  +6.2780241     1254.237     2080.928     1987.239      78.5793     156.5396     312.5516      1.973     4.91     855.4988     55.08135     158.6844        16     1.330     0.898 -37.44   0
        36    199.3379    968.6561 307.8254584  +6.2771185     740.0975     1182.089     1021.334     78.45565     156.2913     312.5205      1.661     4.33      854.957     55.08135     96.00818         7     1.138     0.469 -29.51   0
        37     59.4199    967.2979 307.8835841  +6.2730137     2372.091     4016.692     4266.613     78.20776     156.1049     312.2408      1.853     4.47     853.1461     55.08135     253.9436        26     1.516     1.047 -43.76   0
        38    953.4448    965.0172 307.5125279  +6.3036567     4946.913     10129.49     11180.96     77.95909     156.1671     312.2719      2.143     4.76     849.4077     55.08135      553.723        50     1.831     1.454 -47.72   0
        39    927.0685    956.7010 307.5237539  +6.3062179       1490.7     3057.801     2976.206      78.3318     156.4155     312.4895      2.037     7.16      850.725     55.08135     176.0435        27     1.580     1.389 -26.43   0
        40    259.9258    953.2356 307.8008231  +6.2855036     3787.442     6537.881     6984.567     78.20776     156.3534     312.4895      1.829     4.26     855.1489     55.08135     474.5177        34     1.542     1.259 -49.11   0
        41    786.3383    953.1440 307.5822958  +6.3030273     1123.926     1837.155     1828.644     78.45565     156.2913     312.5205      1.691     5.07     853.0846     55.08135     142.3469        14     1.313     0.808 -54.04   0
        42    647.7640    952.8630 307.6398331  +6.2985491     3814.804     6756.126     6805.742     78.20776     156.2913     312.4895      1.879     4.34     855.2399     55.08135     423.8185        33     1.625     1.175 -42.87   0
        43    469.9260    951.2502 307.7137135  +6.2933098     1112.234     1768.527     1826.579     78.33181     156.3534     312.5205      1.720     6.34     856.5762     55.08135     144.8785        14     1.245     0.907 -63.90   0
        44     28.8698    950.6065 307.8968242  +6.2788854     1840.126      3009.76     3182.406     77.83446     155.8559     312.3652      1.731     3.94     852.2697     55.08135     253.0306        21     1.376     0.945 -72.84   0
        45    879.6038    948.6860 307.5437250  +6.3079565     720.1149     1186.131     1367.599     77.83446     155.9182     312.2097      1.696     6.16     851.3751     55.08135     94.91553         8     1.545     0.691  85.40   0
        46    572.3009    945.4650 307.6714070  +6.2990991      1569.94     2747.773     2924.333     78.33181     156.3535     312.4895      1.954     5.56     855.9994     55.08135     192.8168        18     1.449     0.833 -45.60   0
        47    295.4084    946.2986 307.7863254  +6.2895491     813.9669      1333.93     1966.982     78.08353     155.9182     312.2719      1.875     5.67     855.3953     55.08135     111.6151        10     1.045     0.867 -66.17   0
        48   1004.2025    944.3956 307.4921397  +6.3138497     612.3127     1551.514     2027.809     77.70963     155.8559     312.2719      2.720     8.92     846.7233     55.08135     105.0999        15     1.752     1.269  86.56   0
        49    951.0357    945.6131 307.5141718  +6.3115889     596.6274     975.9066     1030.348     77.83446     156.1049     312.2097      1.873     5.52      849.515     55.08135     77.21838         8     1.017     0.845   2.56   0
        50    611.9293    941.6980 307.6550812  +6.3019699     897.2312     1672.717     1639.924     78.20776     156.4776     312.5205      1.876     6.19     855.6929     55.08135      117.046        12     1.437     0.903 -76.76   0
        51     61.7871    942.4146 307.8834344  +6.2833662     699.6312     1136.946     1707.328     78.20776     155.9804     312.4273      1.882     3.46     852.4627     55.08135     84.30457         5     0.783     0.443 -19.52   0
        52     55.4554    941.5650 307.8860912  +6.2835056     489.5101     937.0021     1277.091     78.20776     156.2913     312.5205      1.788     4.92     852.3534     55.08135     82.45892         7     1.448     0.473 -53.87   0
        53    291.5753    939.6031 307.7881401  +6.2921860     1399.771     2376.023     2801.014     77.95909     155.9804      312.303      1.899     4.71     855.1973     55.08135     159.8986        15     1.209     0.943 -29.93   0
        54    558.8499    937.6940 307.6772499  +6.3018610     528.7106     661.3653      556.067     78.20776     156.1671     312.6137      1.477     3.85       855.86     55.08135     93.05066         6     1.032     0.412 -12.61   0
        55    758.6604    935.3476 307.5943778  +6.3094581     716.2144     1058.918     918.3142     78.33181     156.2292     312.4895      1.701     5.76     853.4377     55.08135     107.0063         7     1.056     0.885 -56.27   0
        56    896.0074    932.0579 307.5374670  +6.3153651     5426.381     10443.37     10956.13     77.70963     156.1671     312.2408      2.036     4.41     851.0154     55.08135      618.462        43     1.666     1.344 -46.66   0
        57    431.7156    929.4217 307.7303037  +6.3010522      1868.97      2993.25     3354.251     78.08353     155.9804     312.3963      1.763     4.12     856.3581     55.08135     272.9728        20     1.408     0.945 -51.52   0
        58    333.4818    927.7496 307.7711395  +6.2984749     8461.249        14264     15452.01     78.33181     156.3535     312.5205      1.871     4.04     855.7262     55.08135     1028.521        41     1.662     1.142 -43.04   0
        59    253.4990    926.7648 307.8043754  +6.2962186     6232.717     10441.59     11110.98     78.33181     156.1671     312.6448      1.830     4.18     854.1856     55.08135      735.104        42     1.695     1.157 -49.12   0
        60    766.3592    919.9482 307.5916935  +6.3160715     566.5635     886.1682     1040.609      78.3318     156.3534     312.4584      1.973     5.12      853.245     55.08135     84.83264         8     1.828     0.405 -81.72   0
        61    581.8727    920.8969 307.6682516  +6.3095607     942.9952     1646.624     1347.661     77.95909     156.4776     312.4584      1.842     6.27     855.4142     55.08135      124.123        13     1.165     0.949 -67.89   0
        62    911.8197    916.8138 307.5314085  +6.3221825     702.3473     1431.141     1662.343     78.08353     156.0427     312.3963      2.329     7.18     850.7513     55.08135     89.94489        11     1.355     1.066 -45.32   0
        63    410.5480    915.4307 307.7395579  +6.3061249      525.631     567.9854     318.4922     78.20776     156.4155     312.4273      1.511     4.73     855.9054     55.08135     70.92078         7     1.188     0.534 -46.08   0
        64    748.2691    910.1262 307.5995303  +6.3195274     1507.911     2567.271     3454.655     78.45565     156.4155     312.4895      2.127     5.41     853.3553     55.08135     184.5027        18     1.460     0.917 -51.39   0
        65    979.2077    906.0918 307.5037871  +6.3288386     902.4551      2089.03     2501.954     77.95909     155.9804      312.303      2.485     9.02     848.0285     55.08135     121.1478        18     1.731     1.312  75.05   0
        66    611.7081    906.7057 307.6563380  +6.3164103     566.4126      919.793      722.595     78.33181     156.7875     312.4895      1.559     4.24     855.0891     55.08135     99.95966         5     0.951     0.540 -54.94   0
        67    666.6897    903.6706 307.6336133  +6.3194878     2130.058     3632.887     3810.986     78.20776     156.5396     312.4895      1.831     4.30     854.3256     55.08135     257.6382        24     1.457     1.074 -58.46   0
        68    624.3480    906.1382 307.6511095  +6.3170641     551.0875     1148.505     1353.825      78.3318     156.2292     312.4584      1.820     4.45     854.9182     55.08135      90.6886         5     1.216     0.464  33.42   0
        69    533.4592    905.5768 307.6888607  +6.3142784     996.3788     1481.674     1659.811     77.95909     156.2913     312.3652      1.567     4.21     855.4639     55.08135     129.3088        10     0.998     0.799  55.55   0
        70    206.8394    898.9041 307.8246762  +6.3061671     2097.503     3249.355     3263.196      78.3318     156.1671     312.6137      1.633     4.53     853.0818     55.08135     247.7393        21     1.366     0.997 -65.38   0
        71     63.2893    899.9211 307.8842334  +6.3009604     2595.985     4388.042     4295.545     78.08353     156.5396     312.5827      1.783     4.33     851.4071     55.08135     300.8058        27     1.591     0.988 -56.68   0
        72    827.9458    899.3885 307.5668085  +6.3266006     627.5558     1030.804     1087.249     77.70962     156.2292     312.1786      1.820     4.90     852.0497     55.08135     83.26086         7     0.939     0.725 -66.02   0
        73     80.7727    899.1865 307.8770003  +6.3018471     1682.594     2843.955     3433.118     77.95909     156.1049     312.3963      1.924     4.44     851.7335     55.08135     237.3451        16     1.412     0.720 -48.30   0
        74    944.4097    898.1707 307.5184969  +6.3309583     559.8642     916.0873     735.2338     77.83446     156.1049     312.3341      1.628     3.47     849.6906     55.08135      72.6286         5     0.775     0.449  71.46   0
        75    661.2466    892.6441 307.6362399  +6.3238599     6239.318     10762.63     11335.63     78.33181     156.2292     312.4584      1.853     4.15     854.2575     55.08135     711.4504        39     1.587     1.202 -51.09   0
        76    346.1433    894.3552 307.7669982  +6.3126841     826.8439     1351.185     1577.213      78.3318     156.2913     312.4895      1.744     3.85     854.7594     55.08135     128.6163        10     1.064     0.696  81.23   0
        77    241.3370    895.2415 307.8104775  +6.3088287     663.0823     961.0024     1019.952     78.33181     156.2292     312.5516      1.568     3.47     853.5714     55.08135     94.54468         5     0.782     0.444  75.30   0
        78    798.8026    892.9700 307.5791210  +6.3282855     636.6034     1300.272     1482.606     77.83446     156.1049      312.303      2.212     6.84      852.604     55.08135      95.9502         9     1.738     0.755 -33.18   0
        79     21.4051    891.1541 307.9019139  +6.3031821     1003.999     1888.064     1852.618     77.70963     155.9804     312.1786      2.010     5.87     850.3597     55.08135     133.9933        13     1.418     0.684 -35.62   0
        80    898.9871    888.8780 307.5376635  +6.3332923     2202.637     4005.869     4319.669     77.95909     155.9182      312.303      1.936     4.62     850.7575     55.08135     240.8167        25     1.422     1.140 -62.98   0
        81    344.1744    886.0157 307.7680940  +6.3160617     14460.49     24542.23     26857.93     78.08353     156.1671     312.4273      1.820     4.01     854.4569     55.08135     1837.089        54     1.725     1.213 -51.63   0
        82     34.3668    889.4532 307.8965902  +6.3043170     1003.945     1727.388     1788.542     78.20776     156.2292     312.4273      1.882     5.63     850.5659     55.08135     131.0491        11     1.377     0.648 -35.68   0
        83     78.6466    887.1669 307.8782852  +6.3067387     1061.171      1774.78     1803.637     78.08353     156.2913     312.4273      1.812     5.88     851.4101     55.08135     164.4405        16     1.464     0.831 -43.01   0
        84    215.4367    884.9342 307.8215742  +6.3122214     1154.296     1923.325     1827.735     78.20776     156.2292     312.5516      1.741     4.80     853.0569     55.08135     136.0709        13     1.080     0.995 -14.95   0
        85    422.4891    876.5289 307.7358984  +6.3225838      1018.89     1547.583     1186.131     78.33181     156.5396     312.4895      1.659     5.66     854.8126     55.08135     116.5714        12     1.090     0.830 -67.30   0
        86    107.5806    876.2928 307.8666378  +6.3121935     1507.153     2482.016     2498.288     78.20776     156.0427     312.3341      1.799     4.76     851.5873     55.08135     211.7439        18     1.373     0.949 -49.82   0
        87    675.3364    872.6643 307.6310552  +6.3325767     731.0184     1462.078     2418.105     78.33181     156.2913     312.5205      2.740     7.34     853.8041     55.08135     113.9799        12     1.579     0.956 -34.89   0
        88    501.9638    873.4488 307.7030069  +6.3264972     665.5125     1159.265     850.8251     78.08353     156.2292     312.3963      1.818     6.41     855.0479     55.08135     95.61761         8     1.171     0.986  21.56   0
        89    889.2711    870.6680 307.5423019  +6.3404894     1492.775     2661.302     2771.509     78.33181     156.4155     312.4584      1.893     5.39      850.822     55.08135     182.5845        23     1.469     1.128 -33.89   0
        90    859.9468    869.9699 307.5544999  +6.3398069      1582.39     2951.982     2547.067     78.08353     156.3534     312.4273      1.907     5.24     851.2881     55.08135     179.0095        20     1.418     1.047 -69.27   0
        91     91.2561    870.2720 307.8736161  +6.3141347     2185.909     3694.736     4123.765     78.20776     156.2292     312.4584      1.866     4.03     851.2526     55.08135     273.0588        24     1.407     1.081 -48.16   0
        92    823.4545    869.3754 307.5696703  +6.3388440     2655.724     4541.193     5233.911     77.95909     156.3535      312.303      1.907     4.59     851.9751     55.08135     303.8567        27     1.491     1.132 -59.86   0
        93    559.2685    861.1186 307.6796271  +6.3334916     298012.1     500271.3     537210.2      78.5793     156.5396     312.5205      1.827     4.08     854.6853     55.08135     35807.52       168     1.876     1.398 -47.91   0
        94    403.5170    863.7763 307.7442002  +6.3272181     6885.937     11339.94     11988.99     78.20776     156.0427     312.4273      1.799     3.93     854.2301     55.08135     889.3159        41     1.672     1.151 -48.29   0
        95    647.0634    863.9246 307.6430842  +6.3352473     1124.356     1969.446     2393.283      78.5793     156.2913     312.4584      1.894     5.23     854.0511     55.08135     159.3947        13     1.185     0.818 -49.36   0
        96    346.6870    862.2061 307.7678457  +6.3259758     11070.29     18677.49     19876.93     77.83446     155.9804     312.2097      1.813     4.06     853.6588     55.08135     1403.373        49     1.698     1.199 -45.72   0
        97    665.2612    858.1550 307.6357210  +6.3382332     3194.429      5435.42     5940.745     78.20776     156.2292     312.5827      1.867     3.96     853.7178     55.08135     375.7116        28     1.449     1.120 -51.97   0
        98    897.4807    856.8969 307.5393508  +6.3464471     4254.654     7950.375     8701.002     78.08353     156.6016     312.5205      2.023     4.52     850.5195     55.08135     467.2652        44     1.921     1.410 -25.86   0
        99    437.7771    856.7852 307.7302101  +6.3312439     1357.689     1142.037     646.1298     78.08353     156.1049     312.3963      0.693     1.43     854.2017     55.08135     636.8704         5     0.666     0.359  67.98   0
       100    737.9557    855.8356 307.6056174  +6.3416015     568.6447     1170.505      1392.93     78.08353     156.2292     312.3652      2.005     4.58     852.8398     55.08135      77.2843         5     0.931     0.641  28.48   0
       101    640.0137    852.4463 307.6463931  +6.3397526     3008.013     4932.405     5351.804     77.70962     156.1049     312.2719      1.756     3.85     853.8782     55.08135      408.356        27     1.567     0.959 -46.47   0
       102    632.3019    848.0367 307.6497416  +6.3413173     1597.013     3798.207     5035.827      78.3318     156.1671     312.6758      2.639     9.65     853.8636     55.08135     220.4542        35     2.585     1.005 -63.03   0
       103    828.4325    851.1368 307.5682096  +6.3465394     1555.142     2634.082     2222.273     78.08353     156.3534     312.4584      1.811     4.40     851.6616     55.08135      165.686        18     1.245     1.028 -73.91   0
       104    955.6761    849.9779 307.5154186  +6.3512294     646.5376     1390.244     1085.137     77.95909     156.1049     312.4273      2.100     5.90     848.6767     55.08135     77.18024         8     1.204     0.813 -81.36   0
       105    916.6346    844.7627 307.5318012  +6.3520911     2591.092      4517.35     4793.049     78.08353     156.1049     312.2719      1.875     4.38     849.8831     55.08135     315.0686        26     1.432     1.128 -45.46   0
       106    326.6390    845.4736 307.7767274  +6.3322170     939.1002     1468.788     1270.959     78.20776     156.2913     312.5516      1.695     6.09     853.2715     55.08135     135.9752        12     1.284     0.811 -44.70   0
       107    374.7068    841.1181 307.7569171  +6.3356149     2450.421     3967.925     4321.474     78.08353     156.5396     312.5827      1.745     3.59     853.2654     55.08135     354.9965        25     1.375     1.051 -48.46   0
       108    510.8632    830.8856 307.7007309  +6.3443664     2603.951     4289.698      4970.89     78.45565     156.4155     312.5205      1.834     4.40     853.6817     55.08135     347.3177        28     1.631     1.012 -50.82   0
       109    855.9880    829.7563 307.5574792  +6.3562797     734.2548     1617.565     1666.912     77.83446     156.1671     312.2097      2.262     5.70     850.9304     55.08135     109.0594        10     1.316     0.697 -78.35   0
       110    576.1880    828.2914 307.6736962  +6.3476072     653.0477     951.1055     1194.289     78.08353     156.0427      312.303      1.565     5.34     853.5098     55.08135     86.96722        10     1.077     0.747 -40.26   0
       111    557.7192    826.7686 307.6814147  +6.3476227     5437.315     8977.625     9902.194     78.20776     156.2913     312.4584      1.801     3.94     853.4912     55.08135      655.041        33     1.522     1.104 -51.31   0
       112    565.1011    826.0672 307.6783733  +6.3481575     1237.143     2067.788     2500.085     78.33181     156.4155     312.4895      2.012     5.12     853.4509     55.08135     159.7641        18     1.368     0.929 -32.61   0
       113    475.3285    825.7324 307.7156557  +6.3453133      1670.63     2562.982     3044.386     78.33181     156.4155     312.4584      1.759     4.08     853.4282     55.08135     218.3192        17     1.319     0.833 -40.21   0
       114    269.3152    827.5133 307.8011257  +6.3377238     624.2838     930.9135     887.7991     78.08353     156.4776     312.5516      1.500     3.41     852.4371     55.08135     108.8876         5     0.741     0.453 -21.01   0
       115    893.6862    824.5819 307.5419992  +6.3596641     1150.394     1848.446     1603.225     77.95909     156.0427     312.3963      1.690     5.18     850.0021     55.08135      190.344        18     1.585     0.877 -50.63   0
       116    117.0978    825.0370 307.8644021  +6.3336729     1240.023     1972.429     2343.999     78.33181     156.1671     312.6448      1.645     5.79     849.9906     55.08135     153.9022        15     1.387     0.759 -60.80   0
       117    528.3489    820.8156 307.6938069  +6.3491051     17358.71     29449.41     31365.81     77.70963     156.3534     312.2097      1.816     4.30     853.3036     55.08135     2235.477        54     1.701     1.218 -46.41   0
       118    693.6407    823.1704 307.6251026  +6.3536192     617.1558     816.4263     499.1054     77.95909     156.1049     312.3652      1.460     3.47     852.9453     55.08135     88.29132         5     0.787     0.443 -73.48   0
       119    369.3845    822.5802 307.7597455  +6.3430917     677.4343     1180.738     626.7384     78.08353     156.0427     312.3963      1.706     4.15     852.8243     55.08135     123.0784         7     1.133     0.433 -59.11   0
       120    942.1503    818.9296 307.5220648  +6.3636016     3293.413     6119.105     6175.077     78.33181     156.2292     312.5205      1.990     4.31     848.5363     55.08135     393.8059        33     1.607     1.224 -53.50   0
       121     38.6581    811.6160 307.8974154  +6.3365966     1490.135     2291.149     2258.842     77.70963     156.2292     312.2097      1.692     3.96     848.6101     55.08135     212.6187        16     1.168     0.916 -55.41   0
       122    320.9635    809.7820 307.7802756  +6.3467643     3086.228     5151.708     5765.198     77.83446     156.1049     312.2719      1.784     4.08     852.4291     55.08135     432.6509        29     1.584     1.016 -52.94   0
       123     20.7154    807.9550 307.9049868  +6.3375092     1830.387     3512.558     3321.432      78.3318     156.2292     312.4895      1.971     5.21     848.4241     55.08135      270.694        26     1.637     1.093 -53.78   0
       124    786.5298    805.2198 307.5871331  +6.3641099     47877.93     81645.57     87484.42     77.95909     156.1671     312.4273      1.849     3.98     851.5985     55.08135     5779.179        79     1.763     1.321 -48.64   0
       125    725.0858    807.2692 307.6125760  +6.3612273      503.657     660.3975     736.1769     78.45565     156.5396     312.5205      1.337     4.36      852.502     55.08135     96.39832         6     1.027     0.626 -49.12   0
       126    243.8643    803.3300 307.8125001  +6.3468608     4694.757     8006.463     10189.43     78.33181     156.3534     312.4895      2.024     3.91     851.5842     55.08135     585.7148        38     1.636     1.181 -49.09   0
       127    430.5024    803.5809 307.7350051  +6.3529690     781.1417     1194.833     1519.644     78.20776     156.1671     312.2408      1.715     5.46     851.5614     55.08135     103.5673        10     1.088     0.772 -79.07   0
       128    911.7711    800.3864 307.5352938  +6.3702528     7075.323     12796.84     14701.41     77.95909     156.1049     312.3963      1.974     4.27     848.9915     55.08135     791.8626        48     1.712     1.365 -48.15   0
       129    714.8408    799.7978 307.6170782  +6.3639725     18872.02     32238.13     35214.32     77.58459     156.0427     312.2408      1.853     3.84     852.4665     55.08135     2436.345        59     1.739     1.302 -50.07   3
       130    708.4827    796.3311 307.6198334  +6.3651930      80188.8     131622.7     141163.3      78.5793     156.5396     312.5205      1.833     3.91     852.3109     55.08135      9764.02        92     1.802     1.310 -48.15   3
       131    353.2944    797.4041 307.7672661  +6.3529509     18706.59      31045.2     33317.85     78.08353     155.9804     312.2719      1.816     4.04     852.4721     55.08135     2249.266        59     1.733     1.221 -49.70   0
       132    402.6796    797.4981 307.7467594  +6.3545552     1331.885     2137.614      2362.06     78.20776     156.6636     312.5205      1.882     4.92     851.2986     55.08135     161.9567        15     1.287     0.855 -51.90   0
       133    415.2010    795.1913 307.7416378  +6.3559241     19889.15     33555.69     35886.55     77.70962     155.9804     312.2719      1.800     4.10     850.9678     55.08135     2517.462        60     1.705     1.232 -49.95   0
       134    641.9955    796.9166 307.6474188  +6.3627458     718.1252     1047.199     1725.422     77.83446     155.9182     312.2097      1.423     3.72     852.5316     55.08135     101.9624         5     0.658     0.603  -0.31   0
       135    243.1209    781.9418 307.8135236  +6.3556666     769289.7      1895680      2148538     78.45565     156.2913     312.4584      2.395     7.04     850.8015     55.08135      62819.7       586     2.520     2.074 -55.79   4
       136    952.8649    793.8448 307.5184487  +6.3743134     1610.469     2920.193     3065.222      78.3318     156.2292     312.4895      2.006     4.39     847.6202     55.08135     185.7512        22     1.246     1.175 -87.84   0
       137    908.6567    791.8085 307.5368716  +6.3736914     5484.228     9728.467     10912.09     77.70963     156.2292     312.2408      1.911     4.11     848.8499     55.08135     671.1046        40     1.672     1.209 -40.68   0
       138    649.2790    791.0325 307.6445907  +6.3654169       5693.3     9570.214     10377.98     78.20776     156.2913     312.4584      1.816     4.26     852.2106     55.08135     675.1147        38     1.646     1.109 -47.26   0
       139    438.1971    788.9561 307.7322983  +6.3592632     1660.251     2695.055      2935.56     77.70962     155.8559     312.1476      1.702     4.30     851.1902     55.08135     245.8685        17     1.270     0.968 -47.02   0
       140    164.1761    788.6410 307.8460749  +6.3502697     689.1393     907.7752     651.2747     77.95909     156.1049     312.2719      1.405     4.67     850.2342     55.08135     112.8901         7     0.868     0.714  72.87   0
       141    737.2219    786.1132 307.6082409  +6.3703647     508.8116     877.6386     795.0511      78.3318     156.1049     312.3652      1.606     4.29     851.6429     55.08135     89.44501         5     1.408     0.373 -82.23   0
       142    602.1238    782.8220 307.6644425  +6.3672419     837.4967     1448.866     2054.628     77.95909     156.1049     312.4273      1.964     6.24     851.6799     55.08135     125.7607        11     1.354     0.809 -42.11   0
       143    684.5581    780.8364 307.6302823  +6.3707971     2262.304     3672.844     3742.938     78.08353     156.2913     312.3652      1.714     3.94     851.6365     55.08135     319.1834        22     1.437     0.943 -63.98   0
       144    418.1046    777.8842 307.7410098  +6.3631664     48557.16     80793.31     86456.34     78.33181     156.6636     312.5827      1.812     4.14     850.5322     55.08135     5948.254        80     1.795     1.252 -48.03   0
       145    153.7204    781.9301 307.8506402  +6.3526918     734.0605      1173.82     869.0507      78.5793     156.5396     312.4584      1.532     4.30     849.7496     55.08135     127.3721         7     1.157     0.455 -34.58   0
       146    128.6091    781.7399 307.8610719  +6.3519329     992.3598      1667.35     1403.087     77.70963     156.1671     312.2097      1.826     4.76     849.1149     55.08135     135.2607        12     1.204     0.682 -48.96   0
       147    961.9117    779.2202 307.5151777  +6.3806510     605.5074     1145.765     1227.275     78.20776     156.0427     312.3963      2.086     6.86     846.9563     55.08135     103.6104         8     1.454     0.982 -40.83   0
       148    535.8492    776.9200 307.6921559  +6.3674780     6247.692     10471.93     10616.28     78.33181     156.3534     312.4895      1.803     4.04     851.2979     55.08135     830.8064        40     1.651     1.161 -54.32   0
       149    452.5487    775.4841 307.7267892  +6.3653026     4116.233     6856.171     7751.958     78.33181     156.2292     312.5827      1.861     4.24       850.92     55.08135      496.021        35     1.500     1.225 -46.44   2
       150    449.4035    768.7603 307.7283193  +6.3679742     1977.928      3588.67     3717.243     77.45935     156.0427     312.2097      1.992     4.28     850.6368     55.08135     280.8607        24     1.367     1.191 -62.55   2
       151    781.1570    773.3381 307.5904238  +6.3770955     10168.67     17217.15     18841.97     78.33181     156.2292     312.5827      1.817     3.93     850.3771     55.08135     1215.535        42     1.591     1.194 -51.53   0
       152     10.1766    769.8120 307.9106398  +6.3529052      1006.69     1550.058     1716.633     77.95909     156.1049     312.3963      1.758     5.57     847.8742     55.08135     146.7782        12     1.259     0.694 -41.87   0
       153    803.1086    767.3780 307.5815075  +6.3802837     1058.317     1829.809      1967.66      78.3318     156.1049     312.3652      1.942     5.11      849.805     55.08135     162.3796        12     1.261     0.748 -62.54   0
       154    138.8009    765.6722 307.8573782  +6.3589067     10223.97     17043.53     18628.47     77.70963     155.8559      312.303      1.818     3.96     848.9227     55.08135     1346.579        48     1.741     1.155 -46.12   2
       155    146.9819    765.9009 307.8539741  +6.3590851     2794.042     4490.021     4952.488     78.33181     156.1671     312.2408      1.723     4.09     849.0626     55.08135     353.8218        26     1.452     1.055 -38.17   2
       156    131.0928    763.0325 307.8606668  +6.3597395     2620.111     4548.059     5875.848     78.45565     156.1671     312.5205      2.181     4.20     848.7111     55.08135     314.3674        30     1.582     1.149 -68.94   3
       157    131.1828    756.5734 307.8608455  +6.3624092     1750.892     2954.118     3451.126     77.95909     156.0427     312.3963      1.841     4.44     848.5676     55.08135     214.5479        21     1.436     0.994 -48.89   3
       158    975.6908    761.8741 307.5100320  +6.3882688     1222.095     2421.201     3088.461      78.3318     156.4776     312.5205      2.214     7.45     846.1133     55.08135     139.1431        18     1.585     1.021 -59.79   0
       159    926.4481    761.8970 307.5304776  +6.3866304     5190.219     9382.925     10561.93      78.3318     156.1671     312.6448      1.959     4.34     847.4738     55.08135      616.015        42     1.789     1.226 -40.82   0
       160    682.1137    759.5154 307.6320068  +6.3795192     1630.656     2757.811     3027.361     78.08353     156.4776     312.5516      1.848     4.29     850.4792     55.08135     198.7313        22     1.331     1.117 -45.79   0
       161    569.0559    758.9464 307.6789675  +6.3760019     2113.487     3574.311     3846.011     78.45565     156.2913     312.4584      1.841     4.58     850.3491     55.08135     257.6353        20     1.394     0.957 -50.03   0
       162    416.6935    758.2501 307.7422508  +6.3712260     1162.974     1974.412     1669.312     78.20776     156.1671     312.6758      1.805     5.84     850.0414     55.08135     131.1959        15     1.253     1.027 -67.15   0
       163    921.0457    753.7401 307.5329915  +6.3898196      2498.29       4459.1     5101.178     78.20776     156.2292     312.5827      1.955     4.31     847.3903     55.08135      265.764        27     1.502     1.113 -79.10   0
       164    981.1639    753.1756 307.5080481  +6.3920414     1560.559     2813.043     2868.402     77.95909     156.1049     312.2719      1.833     4.80     845.7387     55.08135     190.2871        24     1.470     1.133 -42.66   0
       165    950.3672    753.2073 307.5208344  +6.3910097     2507.363     4381.614     4840.956     77.83446     156.1671      312.303      1.920     4.02     846.5674     55.08135     311.4132        26     1.449     1.083 -38.70   0
       166    673.0712    752.8869 307.6359819  +6.3819561     1235.004     1921.355     2430.204     78.45565     156.5396     312.4895      1.476     5.31     850.0901     55.08135     153.9197        14     1.437     0.715 -51.52   0
       167    820.8521    751.0378 307.5746833  +6.3876182     871.1454     1334.443     863.7814     78.08353     156.3534     312.4895      1.606     3.86      849.056     55.08135     143.1477         8     0.920     0.677   1.30   0
       168    895.6618    749.0066 307.5436886  +6.3909339     739.2864     1057.461      489.126     77.70962     156.1049     312.2408      1.471     4.45     847.9698     55.08135     121.8577         9     1.161     0.707 -58.73   0
       169    245.9318    748.4473 307.8134761  +6.3695893     1872.652     3165.232     4311.778      78.3318     156.2292     312.4895      2.108     4.41     849.5327     55.08135     220.0579        22     1.346     1.120 -48.63   0
       170    683.2777    745.2401 307.6319985  +6.3854519     505.4092     956.6884      1503.41     78.20776     156.2913     312.5205      1.779     3.85     849.6442     55.08135     74.44153         5     1.231     0.346  78.07   3
       171    684.6931    740.3377 307.6315740  +6.3875230     1060.342     2022.076     2591.527     78.33181     156.2913     312.5516      1.945     4.76       849.37     55.08135     138.3718        14     1.262     1.031 -52.32   2
       172    938.6522    743.1216 307.5260335  +6.3947864     834.7056     1444.635     1624.573      78.3318     156.2913     312.4895      1.888     4.98     846.5799     55.08135     112.5234         9     1.125     0.816 -74.96   0
       173    912.3506    742.2383 307.5369838  +6.3942808     1119.346     1787.625     1904.915     78.08353     156.2913     312.3652      1.642     5.09     847.3029     55.08135     189.7217        14     1.383     0.802 -51.72   0
       174    266.3892    743.5326 307.8051468  +6.3722999     720.7207     893.2455     1138.382     77.83446     156.1049     312.3341      1.446     4.22      849.569     55.08135     98.92596         9     1.027     0.627 -82.23   0
       175    965.3650    741.0688 307.5150099  +6.3965177      2059.81     3623.381     4658.346     78.20776     156.3534     312.5827      2.051     4.86     845.8402     55.08135     244.1331        27     1.579     1.110 -52.09   0
       176    161.3976    742.5044 307.8487718  +6.3692255     758.4806     1041.445     1067.537     77.95909     155.9804     312.1786      1.466     3.95     848.4159     55.08135     113.4175         7     0.876     0.658 -13.79   0
       177   1006.8522    734.6585 307.4979961  +6.4005364     1504.441     2594.187     2500.031     78.33181     156.2913     312.4895      1.751     5.56     844.5637     55.08135     197.3605        20     1.520     0.968 -42.93   0
       178    476.4366    735.7014 307.7181979  +6.3825222     578.1827      841.829      1028.74     78.33181     156.1671     312.6758      1.630     5.62     849.2702     55.08135     96.74835         7     1.073     0.830  63.08   0
       179    405.8950    735.1917 307.7475037  +6.3803872     598.0437     944.3091     853.8245     78.08353     155.9182     312.2408      1.653     4.81     849.4738     55.08135      88.8692         7     1.120     0.587 -82.51   0
       180    808.6024    733.0847 307.5803662  +6.3946251     1081.527     1889.366     1794.918     77.70962     155.9182     312.2097      1.773     5.36     848.3658     55.08135     135.3314        14     1.286     0.918 -76.74   0
       181    633.8190    733.6807 307.6529191  +6.3885837     683.5661     1146.715     1567.401     77.95909     155.9804     312.4273      1.754     4.34     849.1225     55.08135     112.5652         7     1.111     0.483 -70.03   0
       182    894.7394    730.1428 307.5446980  +6.3986921     1202.258     2098.176     2384.478     78.45565     156.2292     312.5205      1.858     5.01     847.4578     55.08135     177.7755        16     1.332     0.952 -61.01   0
       183    868.9448    725.4749 307.5555636  +6.3997656      761.739     1139.225     1528.978     78.20776     156.2292     312.4584      1.613     4.97     847.9759     55.08135     113.0394         9     1.180     0.625 -80.33   0
       184    851.4688    721.7914 307.5629425  +6.4007078      1389.02      2324.05     2257.299     77.83446     156.0427     312.3963      1.783     6.22     847.9779     55.08135     161.4883        19     1.498     0.945 -54.53   0
       185     50.4463    720.9623 307.8955574  +6.3744180      2321.47     3915.114     4199.115     78.08353     156.2292     312.3652      1.780     4.37     847.5132     55.08135       340.27        24     1.597     0.912 -42.02   0
       186    114.3231    717.9835 307.8691367  +6.3777795     728.7267     1659.873     2156.924     77.83446     156.0427     312.3652      2.745     4.56     847.6256     55.08135     113.1912         8     1.027     0.668 -64.54   2
       187    568.9466    715.7110 307.6804534  +6.3938495     621.7728     1099.557     1086.271      78.3318     156.1049     312.6137      1.922     4.91     848.6141     55.08135     82.68201         7     1.043     0.656 -12.12   0
       188    663.2043    709.1397 307.6415349  +6.3996913     5632.311     9424.396     10674.19     77.70962     156.1671     312.2719      1.795     4.00     848.6908     55.08135     699.1189        37     1.608     1.139 -56.90   0
       189    610.0872    708.4745 307.6636123  +6.3982032      1338.59     2257.368     2845.292      78.3318     156.6016     312.5516      1.901     4.04     848.6439     55.08135     164.6846        15     1.320     0.821 -61.09   0
       190    531.7961    708.9581 307.6961039  +6.3954036     622.3237     932.6967      1319.13     77.70962     155.9804     312.2408      1.541     4.89     848.3557     55.08135     115.7694         7     1.354     0.500 -61.11   0
       191    520.3856    709.4250 307.7008261  +6.3948318     709.5914     1363.937     1558.967     78.08353     156.1049     312.4273      1.824     5.53     848.4183     55.08135     119.8749         9     1.286     0.671 -42.02   0
       192    126.1479    705.4300 307.8646474  +6.3833569     3540.881     5783.093     5625.182     78.08353     156.4155     312.4273      1.742     3.95     847.3638     55.08135     404.4441        30     1.427     1.219 -50.90   0
       193    637.1650    705.1370 307.6524802  +6.4004800     1816.995     2857.064      3617.76     78.20776     156.3534     312.4584      1.728     4.46     848.6054     55.08135     216.4291        19     1.401     0.896 -66.45   0
       194    313.4296    705.5959 307.7868835  +6.3895295     629.5021     1092.677     1051.243     77.83446     156.1049     312.3341      1.677     5.25     848.3678     55.08135     89.45282         9     1.275     0.611  75.36   0
       195    780.0286    701.3795 307.5932848  +6.4067691     17794.21      29773.3     31996.18     77.83446     156.1049     312.4273      1.817     4.06     847.7448     55.08135         2109        63     1.743     1.284 -47.18   0
       196   1000.3433    704.0026 307.5017158  +6.4129788     2064.426     3695.069     3959.368     77.70962     156.0427     312.2097      1.949     4.17     843.7147     55.08135      279.324        24     1.434     1.056 -64.73   0
       197    248.5016    704.2635 307.8138861  +6.3879172     615.5215     1011.096     1861.718     78.20776     156.3535     312.5205      1.756     4.36     847.9229     55.08135     88.39777         5     1.199     0.451 -31.43   0
       198    507.9195    701.4089 307.7062694  +6.3977273     938.7903     1654.514     1983.943     77.95909     155.9182     312.3341      1.622     5.63     848.2671     55.08135     113.9147        13     1.451     0.716 -50.95   0
       199    479.2280    701.5464 307.7181779  +6.3967170     1332.336     2266.664     2526.991     78.08353     156.4155     312.3963      1.881     4.42     848.4559     55.08135     182.4719        16     1.314     0.918 -63.13   0
       200    910.1187    700.9201 307.5392825  +6.4112669     3112.937     5407.962     6114.562     78.45565     156.5396     312.6448      1.853     4.57     846.4236     55.08135     338.2218        28     1.518     1.101 -40.60   0
       201    325.1134    700.8003 307.7821925  +6.3918985     796.8942     1224.177     1148.335     77.58459     155.7936     312.1164      1.583     4.10     848.2226     55.08135     113.0178        11     1.039     0.902  62.44   0
       202    281.3837    701.0598 307.8003405  +6.3903353     598.3491     601.5851     309.0315     77.83446     156.2292     312.2408      1.387     3.86     848.0346     55.08135     81.72186         5     0.880     0.485  87.29   0
       203    253.4724    695.2844 307.8121223  +6.3917901     5805.669     9315.573     9900.531     78.45565     156.6016     312.5205      1.744     4.07     847.6154     55.08135       780.81        34     1.567     1.062 -50.28   0
       204    642.7202    695.2808 307.6505017  +6.4047338     809.5825     1618.441     2338.499      78.5793     156.5396     312.6448      2.550     6.38     848.4319     55.08135      116.871        11     1.476     0.784 -52.82   0
       205    660.6326    694.1606 307.6431014  +6.4057907     6535.681      10635.1     11844.56     77.95909     156.1049      312.303      1.786     3.96     848.4291     55.08135     821.3943        36     1.580     1.094 -48.29   0
       206    920.6884    686.4406 307.5353744  +6.4175952     1140.203     1591.226     1564.985     78.33181     156.2292     312.5205      1.549     4.57     845.9453     55.08135     137.9038        15     1.186     0.918 -83.59   0
       207    732.3533    682.5112 307.6137085  +6.4129793     3375.958     5414.325     6289.229     78.33181     156.1671     312.6137      1.790     4.06      848.272     55.08135     433.8909        28     1.505     1.031 -55.22   0
       208    687.5703    682.4900 307.6323046  +6.4115029     888.6882      1274.87     1142.599     78.45565     156.0427     312.4273      1.673     4.73     848.2382     55.08135     118.1393        11     1.216     0.730 -68.30   0
       209    998.6922    679.0515 307.5032292  +6.4232264     7255.472      12933.1     13903.76     78.20776     156.1671     312.6758      1.929     4.14     842.9199     55.08135      855.249        46     1.656     1.290 -53.68   0
       210    937.1558    679.3318 307.5287725  +6.4210752     2167.333     3815.613     3970.793     78.33181     156.2292     312.5205      1.867     4.53     845.4022     55.08135     233.0212        23     1.406     1.050 -37.61   0
       211     17.5770    679.3556 307.9105979  +6.3904987     1782.307      3248.21     3919.768     77.83446     156.2292     312.3341      2.055     5.43      847.139     55.08135     234.3815        20     1.432     1.095 -23.37   0
       212    551.4909    677.0361 307.6889902  +6.4092379     647.6552     1017.924     1212.578     78.45565     156.2292     312.5205      1.417     5.32     847.3545     55.08135     84.18207        10     1.430     0.559 -51.09   0
       213     75.8838    674.3550 307.8865569  +6.3945097     23461.48     38830.21     41599.44      78.3318     156.2913     312.5205      1.783     3.93     846.7894     55.08135      3032.07        56     1.709     1.209 -46.33   0
       214    537.1782    674.8742 307.6950052  +6.4096551     1845.428     3011.059     3202.864     77.95909     156.1671     312.4273      1.708     3.77     847.2938     55.08135     238.4025        22     1.300     1.029 -39.20   0
       215    505.6984    672.2051 307.7081654  +6.4097112     1374.462     2095.704     2334.522     78.08353     155.9804     312.1476      1.680     5.62      847.501     55.08135     170.7614        17     1.399     0.865 -40.63   0
       216    927.1820    670.7462 307.5331991  +6.4242902     939.5362     1342.224      1232.25     77.83446     156.2913     312.2719      1.441     3.39     845.5621     55.08135     146.7072        10     1.049     0.642 -70.35   0
       217    546.5530    668.7943 307.6913152  +6.4124769      919.038     1444.606     1603.777     77.70963     156.1049     312.1476      1.599     4.93      847.074     55.08135     119.5197         9     1.041     0.661 -67.65   0
       218    743.9603    664.6050 307.6094845  +6.4207574       3754.5     6101.213     6349.389     77.58459     156.0427     312.2097      1.773     4.17     847.5433     55.08135     485.1727        30     1.575     1.081 -57.90   0
       219    721.9382    666.2172 307.6185753  +6.4193616     3100.079     5282.712      5709.51     77.83446     156.2292      312.303      1.778     4.11     847.7603     55.08135     411.8697        27     1.493     0.990 -55.79   0
       220   1016.8585    660.5276 307.4963002  +6.4314754     4236.191     7583.938     8019.412     78.45565     156.2913     311.5249      1.916     4.14     841.7739     55.08135     500.0423        40     1.709     1.220 -61.34  16
       221    575.5731    662.3713 307.6794792  +6.4160926     3061.922     4918.924      4566.69     77.83446     156.1049     312.3341      1.684     3.86     847.1626     55.08135     390.9232        26     1.496     0.986 -59.83   0
       222    411.7219    662.7566 307.7475018  +6.4104879     1348.363     2220.804     2122.215     78.20776     156.2913     312.5205      1.717     3.73     846.8431     55.08135      199.259        13     1.119     0.752 -51.00   0
       223    235.8851    662.0346 307.8205362  +6.4049321     1576.706     2640.461     2425.841     78.33181     156.1671     312.4584      1.683     5.06     846.3458     55.08135     190.2468        17     1.348     0.854 -51.66   0
       224    982.2185    659.3625 307.5107232  +6.4308110     6995.514     12261.39     13371.44     77.95909     156.1671     312.2408      1.882     4.01     843.0542     55.08135      780.679        46     1.681     1.260 -52.29   0
       225    319.5158    661.4891 307.7858298  +6.4079428     1348.596     1966.824     1892.509     78.08353     156.5396     312.5827      1.546     4.07      846.572     55.08135     199.1449        15     1.345     0.785 -43.44   0
       226    702.5732    658.0672 307.6268876  +6.4220844     889.5788     1268.532      1289.96     77.95909     156.1671     312.3963      1.506     4.18     847.4399     55.08135     122.4384         8     0.869     0.683 -44.78   0
       227    427.6179    653.9171 307.7411964  +6.4146663     2677.265     4220.362     4820.645     77.95909     155.9804     312.4273      1.771     4.20     846.4716     55.08135     406.8663        26     1.918     0.832 -59.22   0
       228    140.6248    653.2321 307.8603835  +6.4053907     22178.64     36284.32     38451.29     77.83446     156.1049      312.303      1.770     4.03     846.1132     55.08135     2810.043        55     1.692     1.181 -48.44   0
       229    808.8855    653.3579 307.5828989  +6.4275528     1133.875     1903.311     2009.585      78.3318     156.1671     312.4895      1.758     6.23     846.1175     55.08135     167.6227        18     1.798     0.916 -55.77   0
       230     93.6973    655.8123 307.8797816  +6.4027599     657.2933     1050.309     1422.251     78.08353     156.0427     312.2719      1.597     4.64     846.4247     55.08135     101.4588         7     1.091     0.561 -65.91   0
       231    645.2470    653.4771 307.6508445  +6.4220778     516.5545     710.8383     401.7947     78.20776     156.3535     312.4584      1.531     4.75     847.1998     55.08135     102.6772         6     0.988     0.646 -80.45   0
       232    360.5135    647.7526 307.7692655  +6.4149790     649.5092     1031.104     1002.518     78.33181     156.1671     312.4895      1.781     5.40     845.8546     55.08135     100.7578        10     1.560     0.528 -61.55   0
       233    977.1188    642.4096 307.5134035  +6.4376421      5701.68     10957.09     12224.61     77.95909     155.9182     312.3341      2.095     4.19     842.7665     55.08135     648.8401        48     1.660     1.475 -51.75   0
       234     22.0153    641.9473 307.9100085  +6.4060915     1146.464     1890.833     1712.901     77.70963     156.3534     312.2097      1.711     5.25     847.0267     55.08135     162.2657        16     1.426     0.876 -44.86   0
       235    570.6478    637.8521 307.6823414  +6.4260526      45400.7     72245.03      76440.8     78.45565     156.1671     312.4895      1.735     3.98     846.2803     55.08135      6380.35        66     1.689     1.175 -48.95   0
       236    214.0802    639.3940 307.8303469  +6.4135531      749.524     1146.179     831.7099     77.95909     155.8559     312.2408      1.605     5.40     845.5519     55.08135      113.108        10     1.338     0.615 -61.36   0
       237    530.1583    637.6411 307.6991612  +6.4247948     580.7581     824.3911     948.1226     78.08353     156.2913     312.3652      1.544     4.24     846.2427     55.08135     82.95123         6     0.750     0.684  63.82   0
       238    178.2615    634.6826 307.8453770  +6.4143043      2588.87     4311.154     4630.579     78.45565     156.2913     312.4584      1.773     4.00     845.4196     55.08135     334.2498        25     1.457     1.024 -60.15   0
       239    501.1458    634.8361 307.7113018  +6.4249889     616.2287     699.5388     909.7276     78.20776     156.2913     312.5205      1.368     4.42     846.1211     55.08135     97.16669         5     0.898     0.618 -45.79   0
       240     70.6019    628.9516 307.8902704  +6.4130790     1250.504     2103.451     1861.814     77.70962     155.9182     312.0853      1.743     5.69     846.3441     55.08135     165.0602        17     1.424     0.862 -51.78   0
       241    133.7805    627.5705 307.8640841  +6.4157573     403.1572     724.5344      448.563     77.95909     156.1049     312.3652      1.824     4.32      845.523     55.08135     74.84888         5     1.169     0.455  58.13   0
       242    467.9029    621.6696 307.7255446  +6.4293201     59300.43     94274.59     99976.98     78.20776     156.4776     312.4895      1.725     3.94     845.3522     55.08135     7582.895        82     1.733     1.221 -48.76   0
       243     11.6972    623.3546 307.9149156  +6.4134232     1570.853     2521.315     2345.107     78.33181     156.1671     312.6448      1.704     4.29     847.1422     55.08135     228.5254        18     1.309     0.956 -65.72   0
       244    654.3065    618.3535 307.6482521  +6.4368805     654.7162     1097.138      986.929     78.20776     156.2292     312.6137      1.843     6.87     845.8077     55.08135     117.7852         8     1.526     0.866 -20.59   0
       245    142.4953    616.8055 307.8608259  +6.4204925     1518.429     2371.757     2302.443     78.08353     155.9804     312.2719      1.671     4.91     845.1241     55.08135     194.4833        17     1.354     0.827 -65.21   0
       246    421.5721    614.4079 307.7450253  +6.4307777     883.6632     1271.832     1416.673     77.95909     156.1049      312.303      1.716     5.73     844.3275     55.08135     137.4122        11     1.264     0.732 -51.33   0
       247    613.7549    613.0871 307.6652665  +6.4377090     883.5705       1416.2     1247.417      78.3318     156.1671     312.4895      1.811     4.70     845.1899     55.08135     122.7087        11     1.139     0.791 -53.76   0
       248    313.2425    611.0393 307.7901201  +6.4285634     1849.494     3176.884     3107.693     78.08353     156.2913     312.3652      1.822     4.89     844.2272     55.08135     238.9181        20     1.494     0.942 -50.68   0
       249     14.4146    612.9814 307.9141349  +6.4177967     661.8889     918.1548     1067.953     78.08353     155.9804     312.3963      1.629     3.87     847.1114     55.08135     110.6446         9     1.010     0.636 -35.89   0
       250    465.7690    609.3731 307.7268409  +6.4343262     879.1436     1348.965      1508.01     77.83446     156.0427     312.3341      1.577     5.11     844.7233     55.08135     118.2988        10     1.114     0.663 -43.81   0
       251    739.9780    605.0762 307.6131185  +6.4452040     4861.288     7835.348     8191.411     77.95909     156.1049     312.4273      1.696     3.97     844.9631     55.08135     608.5042        30     1.460     1.046 -55.63   0
       252    793.5536    600.3210 307.5910288  +6.4489432      12915.4     20506.59     21619.21     78.33181     156.2913     312.4584      1.753     3.98     845.3016     55.08135     1637.918        47     1.672     1.143 -49.48   0
       253   1011.0173    600.7940 307.5007075  +6.4559459     895.8634     1513.107     1807.244     77.95909     156.0427     312.3341      1.914     5.08     841.0704     55.08135     119.1248        11     1.086     0.849 -50.52   0
       254    535.9925    600.2833 307.6979840  +6.4404130      1224.83     1873.557     2410.885     77.95909     155.9804     312.3341      1.956     4.33     845.1065     55.08135     174.0766        13     1.311     0.682 -64.91   0
       255    617.4354    598.3938 307.6642276  +6.4438978     2801.125     4466.231     4774.491     77.58459     156.0427     312.2719      1.735     3.88     844.7169     55.08135      349.158        25     1.474     0.990 -55.15   0
       256     38.9086    599.9091 307.9044027  +6.4240117      655.757     1072.568     1043.754     78.33181     156.7875     312.5827      1.732     4.18     846.6639     55.08135     114.9223         6     1.127     0.442 -72.17   0
       257    934.4637    594.4620 307.5327082  +6.4560282     1057.958     1833.643     2624.266     78.33181     156.2913     312.5205      2.137     6.49     842.5248     55.08135     135.0269        17     1.334     1.031 -57.18   0
       258    375.7693    592.0529 307.7647907  +6.4384838     927.1874     1488.579     1015.267     78.20776     156.3534     312.4273      1.664     6.23     843.2647     55.08135     131.7946        12     1.286     0.847 -40.94   0
       259    229.7970    592.3340 307.8253946  +6.4335067     1283.233     2139.013     2415.055     77.58459     155.9804     312.2719      1.795     5.44     844.0071     55.08135     158.9636        18     1.352     1.009 -35.30   0
       260    193.3177    592.8985 307.8405231  +6.4320577      529.533     917.4666     1006.119     78.33181     156.6636     312.5827      1.910     4.61     844.2068     55.08135     91.83099         5     1.349     0.446 -56.01   0
       261    869.6595    583.3909 307.5599873  +6.4584544     2441.212     4168.394     4749.114     77.70963     156.1671     312.2097      1.870     4.31      843.972     55.08135     310.8363        25     1.452     1.047 -67.66   0
       262    164.7066    583.7283 307.8527101  +6.4348899     717.9138     1366.354     1650.317     78.20776     156.3534     312.5205      1.882     4.44     844.2281     55.08135     106.2405         7     1.074     0.523 -63.66   0
       263    828.4274    580.9935 307.5771894  +6.4580787     2151.625      3458.28     3550.861     77.83446     156.1671      312.303      1.693     4.32     844.4777     55.08135     271.3433        22     1.403     0.977 -49.65   0
       264    799.3351    577.0320 307.5894023  +6.4587505     2211.816     3626.103     4911.817     78.08353     156.2913     312.4584      1.979     3.85     844.6705     55.08135     306.1601        22     1.463     0.964 -55.43   3
       265    808.8621    572.1672 307.5856078  +6.4610748       143996     233859.1     249850.9     78.08353     156.3534     312.4273      1.752     3.89     844.4315     55.08135     18238.01       115     1.789     1.313 -50.51   2
       266    741.8782    577.3527 307.6132517  +6.4567137     647.9255     980.3053     1380.514      78.3318     156.3534     312.4584      1.650     6.32     844.3998     55.08135     88.27423         9     1.516     0.740 -50.99   0
       267    256.2432    576.1343 307.8149548  +6.4410763     7186.789      11907.9     12373.78     78.33181     156.2292     312.5205      1.753     4.13      843.474     55.08135     964.0454        38     1.607     1.099 -47.70   0
       268    190.4229    570.7761 307.8424651  +6.4410949     53800.92     87962.87     95113.04     77.83446     156.1671     312.4584      1.770     4.00     843.7397     55.08135      7300.92        90     1.801     1.291 -47.25   0
       269    114.5440    567.0589 307.8740971  +6.4400989     5619.192     9255.944     9892.094     78.45565     156.2913     312.5205      1.777     3.93     844.5284     55.08135     720.9709        40     1.715     1.110 -38.85   0
       270    979.9435    563.9701 307.5148338  +6.4701226     1084.586     1669.179     1326.658     78.20776     156.3534     312.3963      1.631     5.73     841.4597     55.08135     144.6088        13     1.195     0.902 -49.49   0
       271    229.3108    562.1304 307.8266065  +6.4459607     685.1876     1113.364     1456.856      78.3318     156.5396     312.4895      1.542     3.45     843.0076     55.08135     112.9289         5     0.786     0.438  76.78   0
       272    845.4634    559.3780 307.5708333  +6.4675678     4203.466     6940.721     7298.822     77.95909     156.2913     312.3652      1.770     3.73      843.545     55.08135     511.5912        30     1.527     1.056 -56.11   0
       273    363.8508    557.7782 307.7708844  +6.4522384     16083.31      25640.2     27368.78     77.83446     156.3534     312.3652      1.720     3.89     842.5079     55.08135     2089.269        52     1.681     1.120 -46.63   0
       274    454.0871    557.8745 307.7334100  +6.4552005     742.9268     1194.629     1357.886     78.33181     156.6016     312.5516      1.518     5.51     843.2142     55.08135     115.1192         9     1.288     0.666 -52.22   0
       275    165.6076    556.7359 307.8532391  +6.4460643      1723.04     2888.318     3351.057     77.83446     155.9804     312.3341      1.860     4.95     843.8383     55.08135     218.6824        17     1.440     0.757 -59.64   0
       276    799.3957    552.7244 307.5901854  +6.4687889     5389.226     8571.291      9234.62     77.95909     155.7936     312.3963      1.731     3.74     843.9694     55.08135     722.7855        36     1.589     1.074 -46.58   0
       277    240.9514    554.2861 307.8220350  +6.4495874     933.2792     1545.536     1705.979      78.3318     156.2292     312.5205      1.865     5.27     842.7411     55.08135     121.8992         9     1.120     0.701 -45.89   0
       278    530.3252    552.5593 307.7019285  +6.4599291      6190.89      9760.07     10261.55     78.20776     156.2913     312.5205      1.737     3.96     843.4788     55.08135     783.2849        33     1.513     1.037 -53.26   0
       279    103.5521    553.3420 307.8791206  +6.4453955     800.7839     1160.091     1186.382     78.33181     156.2913     312.6137      1.803     5.82     844.3344     55.08135     108.1663        11     1.033     0.922 -43.29   0
       280    388.8319    549.1401 307.7607993  +6.4566362     1404.483     2215.149     2432.944     78.08353     156.3534     312.4584      1.709     4.60     842.4369     55.08135     189.8222        19     1.365     0.981 -30.40   0
       281    177.2281    545.9306 307.8487753  +6.4509130     6221.698     10200.81     11220.88     78.08353     156.2913     312.4273      1.731     3.98     843.4575     55.08135     812.6299        38     1.592     1.094 -49.98   0
       282    575.1226    545.7838 307.6835514  +6.4642147     2077.584     3645.677      3999.94     77.95909     155.9804     312.3652      1.840     5.24      843.232     55.08135     243.9526        26     1.651     0.967 -38.32   0
       283     48.8251    544.7953 307.9021314  +6.4470974     4467.756     7466.245     8094.255     77.83446     156.0427     312.3341      1.793     4.27     846.1408     55.08135     536.6848        32     1.548     1.081 -47.99   0
       284    272.4305    542.3730 307.8093617  +6.4555548     81253.97     130526.7     139440.2     77.83446     156.0427     312.3341      1.762     4.04     842.3147     55.08135     10311.91        97     1.772     1.275 -46.30   0
       285    815.8069    544.7292 307.5836360  +6.4726338     1246.685     2022.882     1774.175     77.83446     155.9182     312.3963      1.646     4.39     843.5121     55.08135     190.0534        14     1.225     0.888 -55.54   0
       286    562.3831    539.7340 307.6890434  +6.4662894     762.3639     1044.556     958.5211     77.83446     156.2292     312.3652      1.505     5.06      842.905     55.08135     124.1245         9     1.066     0.721 -71.01   0
       287    256.3153    537.3212 307.8162224  +6.4571037     1377.603     2128.611     1023.341     78.33181     156.6016     312.5827      1.702     4.77     842.1364     55.08135     179.7441        16     1.400     0.763 -50.01   0
       288    972.3254    535.5969 307.5189392  +6.4815857     1534.266     2407.849     2369.851     77.83446     155.7936     312.3963      1.745     3.71     841.0314     55.08135     216.7714        16     1.220     0.847 -69.06   0
       289    795.5850    534.5334 307.5923728  +6.4761734     14852.74     23535.47     24836.28     77.83446     156.1671     312.4273      1.746     3.86     843.3501     55.08135     2002.606        45     1.642     1.109 -51.48   0
       290    499.1988    533.0860 307.7155036  +6.4669349     36345.25     65058.05     71059.92     77.58459     155.8559     312.2097      1.925     4.17     842.5035     55.08135      4948.65        84     1.812     1.405 -38.46   0
       291    649.6620    531.3931 307.6530765  +6.4726310     1031.538      1514.37     1864.546     77.70963     156.1049     312.2719      1.591     3.79     842.3566     55.08135     160.7744        12     1.112     0.761 -48.84   0
       292     47.3329    530.2340 307.9032389  +6.4530594     1104.695      1920.52     1935.688     78.20776     156.3534     312.5827      1.901     4.73     845.9422     55.08135     144.4545        13     1.150     0.830 -55.00   0
       293    659.2158    527.9609 307.6492233  +6.4743651     2874.798     4658.216      5226.86     77.95909     156.1049     312.2719      1.728     4.00     842.1788     55.08135     374.2928        26     1.514     0.977 -48.18   0
       294    211.7525    529.2607 307.8349968  +6.4589465     1836.296       2960.2     3247.076     78.33181     156.2292     312.5516      1.784     4.92     842.2903     55.08135     240.0805        19     1.545     0.836 -49.49   0
       295    669.4279    528.0543 307.6449793  +6.4746654     1267.877      2041.28     1869.323     78.08353     156.3534     312.3963      1.590     4.83     842.1833     55.08135     183.4583        14     1.297     0.779 -52.33   0
       296    721.4872    526.9612 307.6233964  +6.4768436     1069.108     1800.891     1635.419      78.3318     156.2292     312.4895      1.758     6.76     842.6234     55.08135     133.2978        15     1.391     0.922 -47.44   0
       297     78.1379    525.7823 307.8905965  +6.4559257     642.8661     1192.534     967.0998     77.95909     156.2292     312.3341      1.717     5.21     844.6926     55.08135     87.93518        10     1.381     0.556 -37.57   0
       298    143.4783    520.8413 307.8636295  +6.4601460     23594.05     38427.14     40585.79     78.20776     156.2913     312.5205      1.768     4.06     843.6198     55.08135     3211.637        62     1.737     1.188 -49.97   0
       299    397.0204    523.6495 307.7582500  +6.4674331     1549.603     2306.424     2280.928     77.83446     156.3534     312.3652      1.642     3.82      841.233     55.08135     208.4219        14     1.129     0.845 -47.11   0
       300    328.3817    522.0054 307.7868082  +6.4658274     3593.577     5767.896     5941.158     77.95909     155.9182     312.3341      1.678     4.01     841.4044     55.08135     421.3864        24     1.456     0.920 -47.77   0
       301    508.3885    521.2634 307.7120817  +6.4721216     1936.676     3022.967     3517.339     77.83446     156.1049      312.303      1.710     4.16     841.8054     55.08135     256.3909        20     1.424     0.866 -56.66   0
       302    871.5087    520.6324 307.5613046  +6.4844279     1561.167     2399.197     1637.358     78.45565     156.1049     312.5205      1.662     4.66     841.8145     55.08135     224.8527        17     1.444     0.794 -37.77   0
       303    108.7326    519.1268 307.8781150  +6.4596947     2430.502     4002.944     4259.288     78.45565     156.4155     312.4584      1.742     4.32      843.811     55.08135     347.7917        23     1.453     0.940 -49.44   0
       304    345.5228    517.2847 307.7798477  +6.4683472     1107.748     1711.896     1988.075     78.45565     156.6016     312.5827      1.833     4.74     841.2418     55.08135     161.9902        13     1.299     0.778 -53.65   0
       305    969.2432    514.9277 307.5209054  +6.4900179     4332.287     7288.495     7463.878     78.20776     156.3534     312.5205      1.804     3.99     840.3381     55.08135     520.8481        29     1.532     1.029 -53.66   0
       306    542.3945    507.6100 307.6984150  +6.4788888     1333.155     2086.851     2073.083     77.83446     156.0427     312.3652      1.634     5.15     840.9762     55.08135     179.9828        16     1.365     0.928 -55.69   0
       307      7.7381    505.2333 307.9205181  +6.4620590     22966.97     37599.32     39981.64     78.08353     156.3534     309.6493      1.765     3.96      846.851     55.08135     2958.266        58     1.718     1.177 -48.01  16
       308    440.5057    501.8101 307.7409208  +6.4778967     39691.45      63050.5     66877.59     77.95909     155.9182      312.303      1.737     4.12     840.1082     55.08135      5627.18        71     1.726     1.178 -48.76   0
       309    288.5931    501.7168 307.8040089  +6.4728790     923.7867     1533.466       1747.7     77.95909     155.9804     312.3652      1.848     3.53     840.4417     55.08135     168.4734        10     1.150     0.820 -53.54   0
       310    982.4661    499.8790 307.5159135  +6.4966687      953.288     1715.729     1630.962     78.45565     156.4155     312.4584      1.882     6.17       839.53     55.08135     153.7587        12     1.394     0.767 -78.08   0
       311    205.6586    499.4935 307.8385231  +6.4710334     17782.02     30085.45     32251.31     78.20776     156.2913     312.6137      1.850     3.85     841.7075     55.08135      2191.77        62     1.701     1.374 -44.33   0
       312    171.5716    500.5228 307.8526436  +6.4694719     1499.645     2242.595     1678.109     78.20776     156.2913     312.4895      1.632     4.09     842.9103     55.08135     217.5348        16     1.188     0.891 -39.82   0
       313    822.8680    499.0204 307.5822232  +6.4917403     925.6512     1416.272     1718.908     77.95909     156.2292     312.3963      1.575     4.05     841.7015     55.08135      160.184         9     0.960     0.680 -76.56   0
       314    911.3070    498.5276 307.5455109  +6.4948723     715.8566     1080.174     1002.266     78.20776     156.4155     312.5516      1.740     4.32     840.8345     55.08135     111.7853        10     1.133     0.652 -52.14   0
       315    570.5267    498.1483 307.6870476  +6.4837299     2636.061     4122.488     4237.747     78.33181     156.3534     312.5205      1.672     4.18     840.3575     55.08135     346.2804        21     1.414     0.931 -48.27   0
       316    944.2447    495.1273 307.5319447  +6.4973662     4146.449     6955.335     7261.031     78.20776     156.3534     312.5205      1.753     4.13     840.2885     55.08135     528.6761        31     1.533     1.095 -47.19   0
       317    617.3589    493.7417 307.6677456  +6.4871044     6207.189     9680.991      10223.7     78.33181     156.2913     312.5516      1.693     3.95     840.1117     55.08135     867.9697        33     1.506     1.029 -46.95   0
       318    104.9063    494.8516 307.8805167  +6.4695894     1007.045     1596.653      1365.71     78.20776     156.1049     312.7069      1.682     4.68     843.5453     55.08135     147.4628        10     1.359     0.535 -71.26   0
       319    529.5043    485.0528 307.7045202  +6.4877740     6964.932     10997.89     12079.48     78.20776     156.2913     312.7379      1.721     4.00     839.6317     55.08135     1010.207        36     1.622     1.049 -48.53   0
       320    375.6650    485.3368 307.7683976  +6.4825410     2421.371     3912.876     3902.788     78.33181     156.2913     312.5205      1.734     4.51     839.6062     55.08135     338.4705        20     1.400     0.891 -58.70   0
       321    745.9850    484.8727 307.6146232  +6.4950337     537.5821     695.9955     745.2586     77.83446     156.1049     312.3963      1.285     4.65     840.7109     55.08135     83.32129         5     1.220     0.503 -66.10   0
       322    648.5499    501.4047 307.6545371  +6.4849758     11485.19     17945.01     19187.26     77.70963     156.1049     312.1164      1.739     4.11     840.5396     55.08135     1544.917        46     1.598     1.153 -48.32   0
       323    966.9008    487.3774 307.5227928  +6.5013157     2954.834      5015.57     5241.767      78.3318     156.0427     312.2719      1.789     4.21     839.4442     55.08135      345.203        28     1.547     1.041 -48.75   0
       324    886.0379    480.7148 307.5565971  +6.5013906     2735.577     4661.956     5201.842      78.3318     156.2913     312.4895      1.813     3.97      840.442     55.08135     345.8811        28     1.461     1.105 -47.15   0
       325    405.2708    485.9618 307.7560821  +6.4832680     720.5009     1120.167     1715.698     78.20776     156.2913     312.5516      1.720     5.01     838.9663     55.08135     92.85718         9     1.174     0.605  85.79   0
       326    233.8617    480.1475 307.8274583  +6.4799609     635.5485     955.0309     856.1426      78.3318     156.2292     312.4584      1.490     3.98     840.3439     55.08135     93.08105         6     0.811     0.558 -41.35   0
       327    893.3601    475.1347 307.5537415  +6.5039369     1920.017     3184.938     3469.828      78.3318     156.2292     312.6137      1.767     4.22     840.1503     55.08135     248.1289        21     1.437     0.931 -53.48   0
       328    112.7534    474.6761 307.8779337  +6.4781811     683.6169     1151.639     1293.171     78.20776     156.3534     312.4895      1.810     5.16     843.2434     55.08135     84.49207         8     1.181     0.637 -77.80   0
       329    932.9368    474.3228 307.5373319  +6.5055821     1060.358     1604.437     1874.797      78.5793     156.3534     312.4584      1.712     5.20     839.9754     55.08135     158.3973        11     1.082     0.706 -72.20   0
       330    271.0703    473.7003 307.8122222  +6.4838626     614.8278     1003.683     1247.835     78.20776     156.4155     312.5205      2.106     5.97     839.6146     55.08135     96.56128         9     1.204     0.834 -65.48   0
       331    717.5612    471.0221 307.6268885  +6.4998099     2731.577     4257.929     4586.375     77.95909     156.0427     312.2719      1.650     3.82      839.655     55.08135     390.7026        24     1.461     1.007 -61.68   0
       332    615.8607    466.1799 307.6692861  +6.4984345     9066.826     14603.21     15384.98     77.95909     156.2292     312.4273      1.761     4.49     838.8421     55.08135     1181.086        47     2.053     1.075 -53.72   0
       333    388.3426    469.4826 307.7636623  +6.4895087     3703.842     5673.886     5880.112     78.33181     156.2913     312.5516      1.690     3.98     838.7501     55.08135     453.0343        29     1.527     1.011 -55.99   0
       334     79.2532    470.4607 307.8919863  +6.4788034     1897.918     2895.175     3256.005     78.33181     156.2292     312.4584      1.645     4.54     843.9163     55.08135     245.2019        17     1.327     0.854 -42.83   0
       335    429.0149    469.5699 307.7467688  +6.4908258     968.1725     1531.559     2671.401     77.95909     156.0427     312.4273      2.340     4.79     838.3105     55.08135     157.6876        13     1.353     0.795 -59.43   0
       336    779.0098    462.1032 307.6016654  +6.5055297     14862.99     24246.53     27493.15     78.08353     155.9182      312.303      1.830     4.23     839.9542     55.08135     1903.839        66     2.308     1.147 -50.03   0
       337    298.4190    462.9035 307.8012258  +6.4892313     2565.738     4139.901     3829.197     78.20776     156.1671     312.2719      1.698     4.15     839.0904     55.08135     352.2587        24     1.590     0.931 -51.56   0
       338    908.6155    459.5016 307.5479251  +6.5108967     476.3068     769.5571     451.1773     78.33181     156.0427     312.2097      1.855     3.49     839.4213     55.08135     88.25665         5     1.160     0.303 -70.14   0
       339    807.8276    459.6251 307.5897795  +6.5075078     1175.847     1792.627     1552.301     77.83446     156.1049     312.3652      1.546     4.36     839.9966     55.08135     197.9268        11     1.204     0.682 -59.33   0
       340    381.4760    459.4032 307.7668505  +6.4934417     1417.039     2225.944     3015.946     77.83446     155.7936     312.3652      1.771     3.50     838.5702     55.08135      205.118        15     1.167     0.809 -41.43   0
       341    963.9452    457.1903 307.5250226  +6.5136819     1496.238     2443.676     2675.744     77.70962     156.2292     312.2097      1.936     4.62     838.1615     55.08135     232.2308        18     1.495     0.822 -55.88   0
       342    116.0709    454.6865 307.8772254  +6.4865448     4064.198     6521.574     7412.467     78.45565     156.5396     312.5205      1.739     4.00      842.894     55.08135     489.9345        27     1.468     1.026 -49.53   0
       343   1017.9422    452.0558 307.5027670  +6.5175877     3312.884     6472.463       7058.7     78.45565     156.3534     305.5144      2.069     4.72     836.1934     55.08135      333.041        37     1.652     1.317 -44.79  16
       344    754.4631    453.3425 307.6121513  +6.5083331     2118.356     3355.323     3511.449     78.45565     156.2292     312.5205      1.725     3.90     839.2406     55.08135     275.5131        21     1.401     0.942 -66.89   0
       345    370.7875    454.9788 307.7714370  +6.4949127     496.6791     836.6553     660.3802     78.08353     155.9804     312.3963      1.479     3.89     838.6013     55.08135     81.83862         5     0.842     0.514 -40.33   0
       346    274.0324    451.4879 307.8117347  +6.4931321     1497.861     2333.773     2699.489     78.45565     156.1671     312.4895      1.676     4.37     839.0851     55.08135     181.5106        15     1.308     0.768 -54.55   0
       347    352.2068    449.2269 307.7793455  +6.4966690     2993.637     4829.801      4838.93     77.83446     156.1671      312.303      1.714     3.75     838.6364     55.08135     372.5602        26     1.462     1.007 -43.43   0
       348    707.8694    446.9456 307.6317150  +6.5094293     1520.578     2413.262     2529.189     78.20776     156.1671     312.4273      1.613     4.52        838.6     55.08135      233.332        18     1.468     0.790 -46.44   0
       349    239.9173    445.0988 307.8261157  +6.4946333     742.8611     1126.854      1127.48     78.33181     156.7256     312.5827      1.576     3.95     839.6271     55.08135     153.4332         6     1.096     0.432 -62.72   0
       350    549.4940    439.4495 307.6977392  +6.5072669     886.0585     1312.347     1711.718     78.20776     156.1671     312.6137      1.716     5.02     837.3271     55.08135     138.1594        13     1.309     0.865 -73.27   0
       351    471.6839    438.2627 307.7300934  +6.5051708     1218.925     2042.228     1826.995     78.45565     156.3534     312.4584      1.707     4.86      837.354     55.08135     192.2078        15     1.373     0.857 -52.43   0
       352    834.3939    436.7355 307.5795072  +6.5178388     1369.824     2175.752     2219.054     77.83446     156.0427     312.2719      1.668     4.50     838.4806     55.08135     244.5859        16     1.398     0.866 -56.32   0
       353    819.8089    436.0183 307.5855885  +6.5176517     1901.648     3102.488     2536.233     78.08353     156.0427      312.303      1.713     4.66     838.5034     55.08135     240.8194        20     1.502     0.869 -66.80   0
       354    717.1720    434.2068 307.6282755  +6.5149974     13692.83     21890.89     22927.99     77.83446     156.1049      312.303      1.694     4.00     838.1422     55.08135     1869.311        48     1.642     1.114 -47.98   0
       355    638.3104    430.2066 307.6611610  +6.5140325      2427.51      3648.16     4477.553     77.83446     155.9804      312.303      1.602     3.60     837.7363     55.08135     347.2618        21     1.411     0.879 -48.32   0
       356    619.8766    435.7174 307.6686332  +6.5111453      772.296     1159.996      1055.17     78.45565     156.6016     312.6137      1.520     4.68     837.8792     55.08135     99.85156         9     0.996     0.762 -48.97   0
       357    613.4905    427.2450 307.6715677  +6.5144313     5185.005     8832.335       9164.3     78.33181     156.2292     312.6137      1.817     4.12     837.5687     55.08135     642.7603        32     1.531     1.102 -46.32   3
       358    609.6867    424.6573 307.6732337  +6.5153735     13878.05     21142.75     22532.75     78.33181     156.2913     312.6137      1.686     3.81     837.4943     55.08135     1907.165        42     1.648     1.027 -47.45   3
       359    942.4641    423.8973 307.5350497  +6.5267175      3280.33     5043.599     5490.674     78.20776     156.4155     312.5205      1.724     3.89     837.2517     55.08135     414.4893        23     1.448     0.956 -52.91   0
       360    381.5453    420.1992 307.7681310  +6.5096304     27493.16     43550.48     45871.45     77.70963     155.9804     312.1476      1.708     3.95     837.2787     55.08135     3940.744        58     1.677     1.138 -49.61   0
       361    127.5725    419.6797 307.8736212  +6.5013817     2121.409     3439.794     3659.373     78.20776     156.2292     312.4895      1.866     4.06     841.8751     55.08135     309.4377        22     1.365     0.991 -45.70   0
       362    898.4840    419.4685 307.5534630  +6.5270905     1318.952      1968.28     2427.307      78.5793     156.5396     312.5205      1.787     3.90     837.4287     55.08135     178.3849        12     1.141     0.727 -57.76   0
       363    911.3048    414.4068 307.5483063  +6.5296048     4688.854     7430.602     7881.566     78.08353     155.9804      312.303      1.718     3.87      837.241     55.08135     578.6671        28     1.439     1.028 -58.87   0
       364     61.0495    415.0456 307.9014021  +6.5010747     1370.028     2231.457     2814.412     78.33181     156.1671     312.5205      1.940     3.54      843.951     55.08135     178.7512        16     1.151     0.912 -58.65   0
       365    593.5724    415.1190 307.6802440  +6.5187765     606.3328     1025.171     1109.931     78.20776     156.1049     312.4584      1.603     3.14     836.8547     55.08135     113.4379         6     1.125     0.525  22.41   0
       366    967.1707    412.1577 307.5251781  +6.5323821     749.1511     966.0575     744.3735     77.95909     156.2292     312.3652      1.477     4.91     835.9767     55.08135     99.88367         8     1.199     0.569 -61.27   0
       367    239.0231    410.8465 307.8276326  +6.5087453     12973.23     20763.32     21688.08     77.95909     156.2913     312.3652      1.697     3.96     839.0708     55.08135     1660.645        43     1.577     1.134 -43.81   0
       368     74.5347    404.5355 307.8961541  +6.5058641     612.1909     1024.933     1284.997     78.33181     156.2913     312.4895      1.589     4.31     843.3796     55.08135     114.6786         7     1.271     0.416 -49.03   0
       369    734.5414    403.6189 307.6220797  +6.5282027     788.1346     1168.884     877.1328     77.95909     156.1671      312.303      1.451     5.11     836.7955     55.08135     96.90619         9     0.928     0.797 -28.38   0
       370    702.2892    403.6572 307.6354736  +6.5271173     745.9371      1026.26     1286.922     78.20776     156.2292     312.6137      1.362     4.13      836.641     55.08135     122.6387         7     1.168     0.416 -60.11   0
       371    962.3423    402.3068 307.5275106  +6.5362897     956.4619     1527.953     1289.392     78.20776     156.2913     312.6137      1.695     4.44      835.877     55.08135     113.7246        12     1.172     0.721 -47.13   0
       372    352.1840    400.3195 307.7809888  +6.5168609     1326.348     2174.093     1821.089     77.95909     156.0427     312.3341      1.744     4.15     836.7528     55.08135     204.4773        15     1.233     0.882 -65.00   0
       373    185.3888    400.3996 307.8502561  +6.5112704     935.4091      1426.58     1426.992     77.95909     155.9804      312.303      1.753     4.30     840.0689     55.08135     128.0167        12     1.171     0.851 -32.34   0
       374    139.3876    399.4214 307.8693928  +6.5101399     4878.696     7588.064     8068.627     78.08353     156.0427     312.3652      1.709     3.88     841.3243     55.08135      589.767        30     1.499     1.012 -49.23   0
       375    244.4047    398.2183 307.8258200  +6.5141384     1312.041      2068.86     2099.726     77.95909     155.9182      312.303      1.762     3.95     838.7772     55.08135     181.8839        13     1.127     0.804 -59.62   0
       376    436.5957    397.8156 307.7460156  +6.5207036     709.1311     1080.359     1107.743     77.95909     155.9804     312.3341      1.814     5.34     836.1248     55.08135     99.54279         7     1.264     0.638 -43.60   0
       377    161.2722    395.3410 307.8604409  +6.5125546     2371.712     4220.523     4768.819     78.45565     156.2913     312.4584      1.985     4.96     840.5897     55.08135     309.7692        27     1.710     0.972 -57.73   0
       378    825.7186    395.3188 307.5844873  +6.5346518     672.2896     1074.416       980.31     78.33181     156.5396     312.5827      1.662     3.70      836.538     55.08135     110.0167         7     0.992     0.623 -71.26   0
       379    557.0187    393.7009 307.6961393  +6.5264056     976.3214     1387.738     1398.983      78.3318     156.1671     312.2719      1.526     4.73     835.0989     55.08135     141.3447        10     1.286     0.649 -63.59   0
       380    384.9342    389.9578 307.7677335  +6.5222291     1887.046     2862.274     2681.958     78.33181     156.2292     312.5516      1.568     4.34     836.3332     55.08135      261.608        16     1.413     0.727 -58.07   0
       381    273.6379    390.2086 307.8139473  +6.5184195     793.5423     1374.435     1388.988     77.58459     156.0427     312.2408      1.757     5.28     837.9863     55.08135     117.6572         8     1.169     0.673  -9.21   0
       382    973.7411    388.5040 307.5232346  +6.5423658     916.6684     1575.927     2489.507     78.20776     156.2913     312.5827      2.302     5.41     835.2228     55.08135      114.165        11     1.166     0.815 -77.29   0
       383     35.1016    384.5475 307.9131998  +6.5127997     2955.647     4969.702     5627.068     78.20776     156.2913     312.6758      1.894     4.15     843.7682     55.08135     382.4581        30     1.652     1.028 -50.80   0
       384    438.6792    383.5419 307.7456268  +6.5266662     6917.868     10762.54     11351.91     78.33181     156.2913     312.4584      1.731     4.05     835.5662     55.08135     908.8079        33     1.538     1.032 -49.61   0
       385    771.2664    382.4798 307.6075302  +6.5381484     1812.121     2970.996     3070.829     78.45565     156.4155     312.4584      1.793     4.91      835.723     55.08135     230.5071        18     1.393     0.846 -47.08   1
       386    779.2904    380.7600 307.6042548  +6.5391244     11995.03     18961.48     20278.65     78.33181     156.2913     312.5205      1.720     4.00     835.6774     55.08135     1612.332        47     1.624     1.150 -51.12   0
       387    342.8951    379.0778 307.7855563  +6.5253218     938.4725     1435.838     1286.429     78.08353     156.4776     312.5205      1.515     5.48     836.3222     55.08135     145.6016        10     1.401     0.603 -56.40   0
       388   1023.0225    375.9011 307.5031842  +6.5491992     2907.715     4286.498     4683.164      75.1694     133.3651     245.1857      1.604     4.68     833.7427     55.08135     432.3105        20     1.457     0.861 -65.32  24
       389    187.4896    371.7491 307.8503424  +6.5231694       719.76     1012.379     983.9112     78.33181     156.1049     312.6137      1.461     3.02     839.9331     55.08135     120.5598         7     0.916     0.662 -83.79   0
       390    904.6980    370.3247 307.5525149  +6.5475871     489.8315     549.9886     304.7211     77.95909     156.4776     312.4584      1.280     4.82     835.9482     55.08135       73.487         6     0.897     0.734 -80.25   0
       391    486.8555    367.0703 307.7261679  +6.5350690     2885.086     4641.214     4654.083     78.33181     156.2292     312.4584      1.665     4.14     833.8436     55.08135     413.4449        26     1.486     1.004 -49.72   0
       392    459.0847    367.8961 307.7376742  +6.5338047     2059.867     3279.445      2724.88     78.33181     156.6636     312.5827      1.700     3.88     834.4695     55.08135     299.2255        23     1.454     0.989 -35.47   0
       393    844.6568    363.6245 307.5776754  +6.5483653     30003.07     49864.94      53705.5     77.95909     156.2913      312.303      1.804     3.96     835.6655     55.08135     4258.196        67     1.791     1.228 -55.99   0
       394     62.7973    359.7878 307.9025277  +6.5239470     570.8049      958.699     1379.283     77.95909     155.9804     312.3341      1.931     3.83     842.6454     55.08135     87.31458         5     0.991     0.426  45.20   0
       395    337.0480    359.1379 307.7886509  +6.5333598     821.9157     1228.951     893.6675     78.20776     156.2292     312.5516      1.500     4.28     835.9283     55.08135     119.5891         8     0.808     0.699 -48.83   0
       396    616.4727    356.0818 307.6727004  +6.5439123     2397.863      3841.74     4158.067      78.5793     156.6016     312.5205      1.622     3.81      832.808     55.08135     342.8927        21     1.420     0.885 -62.88   0
       397     24.9695    356.6174 307.9183437  +6.5239926     1086.756     1647.893     1844.563     77.95909     156.1049     312.3963      1.597     4.35     843.0906     55.08135     169.3267        12     1.125     0.804 -64.98   0
       398    701.1019    349.6920 307.6377635  +6.5493592     75213.19     117807.1     125316.6     78.33181     156.7875     312.4273      1.715     3.98     833.3305     55.08135     9436.746        91     1.752     1.218 -47.95   0
       399    859.6716    351.0762 307.5718562  +6.5540437     1266.251     1973.394     2175.435      78.5793     156.5396     312.4895      1.746     4.66     835.5599     55.08135     147.8054        17     1.272     0.948 -45.55   0
       400     80.6612    349.2429 307.8954621  +6.5288970     1226.432     1814.618     2149.904     78.33181     156.2913     312.6137      1.603     4.23     842.2195     55.08135     170.0534        16     1.232     0.865 -48.29   0
       401    563.5725    346.3803 307.6949951  +6.5461610     2487.722     3816.902     4107.341     77.95909     156.1049     312.3963      1.639     3.95     832.4275     55.08135     343.6061        25     1.491     0.967 -55.27   0
       402    100.7872    345.4852 307.8872296  +6.5311202     5698.159      9194.09     8902.811     77.95909     156.1671     312.3341      1.747     3.91     841.8731     55.08135     780.6417        31     1.508     1.047 -49.37   0
       403    942.9552    346.1521 307.5374279  +6.5588339     695.4458     1094.117     1234.327     78.33181     156.1671     312.4584      1.852     4.75     834.7705     55.08135     98.06567         7     0.871     0.735  58.93   0
       404    546.8777    342.6847 307.7020523  +6.5471322     6896.529     10660.79     11139.69     78.45565     156.6016     312.5827      1.646     4.13     832.3496     55.08135     1022.003        34     1.522     1.035 -49.54   0
       405    762.1535    344.1266 307.6125913  +6.5536817     551.9397     806.9789     1243.751     78.20776     156.3534     312.4895      1.706     4.29     834.0525     55.08135     87.05658         5     1.039     0.505 -53.43   0
       406    275.6984    340.3254 307.8147594  +6.5390835     2481.144     3733.209     3503.838     77.83446     156.4155     312.4584      1.603     3.91     837.0401     55.08135     316.4895        22     1.424     0.921 -46.35   0
       407    409.7048    337.8963 307.7591844  +6.5445483     24859.12     39194.79     41288.81     78.33181     156.9113     312.3341      1.686     3.86     834.3669     55.08135     3568.384        55     1.683     1.127 -47.52   0
       408    517.7470    336.1760 307.7143684  +6.5488515     1312.433     1823.311     1930.723     77.83446     156.2913      312.303      1.503     4.59      832.158     55.08135     169.1177        13     1.257     0.694 -50.79   0
       409    389.7830    335.7434 307.7675305  +6.5447742     1107.072     1806.706     2301.555     77.83446     156.2292     312.2408      1.737     4.57     834.4471     55.08135      140.629        13     1.261     0.719 -53.07   0
       410    488.9799    333.4487 307.7264074  +6.5490212      1228.04     1929.105     2017.785     77.83446     156.3534      312.303      1.618     4.61     832.1365     55.08135      153.829        13     1.241     0.707 -44.25   0
       411    640.6838    329.7839 307.6635208  +6.5555740     656.6552      1184.07     1413.919     77.95909     155.9804     312.3963      2.128     6.14     831.7418     55.08135     92.75043         9     1.297     0.818 -67.90   0
       412    498.8019    328.2500 307.7225014  +6.5514942     8239.721     12891.74     13384.69     77.70963     155.9182     312.0853      1.669     3.96     831.8409     55.08135     1110.058        39     1.612     1.055 -51.34   0
       413    804.7996    329.3635 307.5953694  +6.5611907     740.3999     1328.958     1671.455     77.45935     156.1049      312.303      1.953     5.58     833.7958     55.08135     97.90045         8     1.016     0.863  56.67   0
       414    387.3343    329.9382 307.7687414  +6.5470895      587.888     861.2947     1266.265      78.3318     156.2913     312.4895      1.336     3.44     834.2264     55.08135     116.6882         5     0.789     0.434 -73.77   0
       415    768.1431    326.8816 307.6106773  +6.5610005     3038.403     4717.224     4829.577     78.45565     156.2913     312.4895      1.631     3.73     833.6307     55.08135     448.2361        23     1.379     0.997 -54.44   0
       416    715.5098    326.3999 307.6325547  +6.5594541     873.7401     1505.425     1356.318     77.58459     155.7936     312.2097      1.879     5.99     832.9521     55.08135     113.5485        11     1.393     0.726 -60.08   0
       417    923.3295    326.4882 307.5462327  +6.5663034     667.2498     1165.404     1067.927     78.45565     156.5396     312.4895      1.636     4.56     834.3253     55.08135       89.401         7     0.942     0.627 -72.40   0
       418    325.6368    324.6157 307.7945440  +6.5472331     1023.269     1349.953     1051.772     77.95909     156.1049     312.2408      1.337     2.63     835.1615     55.08135     191.0293         8     0.880     0.614  73.12   0
       419    160.8415    318.9033 307.8631784  +6.5440989      1057.64     1576.433     1388.568      78.3318     156.2292     312.6448      1.562     4.15     840.5013     55.08135     149.8601        14     1.150     0.865 -58.73   0
       420    437.9572    318.3136 307.7481041  +6.5535734     615.5379     689.2529     474.2986      78.3318     156.1671     312.4895      1.181     3.27     832.7013     55.08135     100.6049         7     0.751     0.649 -18.70   0
       421    388.6474    312.4937 307.7687786  +6.5543356     7332.727     11269.04     11352.82     78.20776     156.2292     312.6137      1.683     4.16     833.4578     55.08135     934.5952        32     1.532     1.010 -50.21   0
       422    244.4861    313.1474 307.8286315  +6.5492644     2066.326      3319.34     3671.784     78.33181     156.2292     312.6137      1.677     3.79     837.4531     55.08135     281.7587        18     1.289     0.856 -53.70   0
       423    742.7137    311.7504 307.6217431  +6.5664048     1043.667     1611.212     1807.531     78.33181     156.2292     312.5827      1.610     4.89     833.1896     55.08135     143.5902        13     1.361     0.655 -82.37   0
       424    756.5472    308.2325 307.6161143  +6.5683159     51046.15     79693.81      84570.4     78.20776     156.2913     312.3963      1.706     4.00     833.1219     55.08135     7490.464        70     1.696     1.167 -49.02   0
       425    428.2424    307.7454 307.7524919  +6.5576136     2197.056     3474.594     3521.497     78.20776     156.2913     312.4895      1.694     4.07     832.5171     55.08135     281.1088        19     1.313     0.937 -46.15   0
       426    991.3789    305.0788 307.5186785  +6.5773945     1324.374     2260.451     2170.751     77.95909     155.9804     312.4895      1.741     4.27     833.2731     55.08135     196.5942        13     1.187     0.783 -56.51   0
       427    932.2550    304.2997 307.5432625  +6.5757601     2056.781     3347.267     3270.382     78.08353     156.2913      312.769      1.732     4.43     833.5244     55.08135     269.2065        21     1.495     0.898 -51.15   0
       428    574.4356    304.9144 307.6918656  +6.5636423     1161.376     1822.175     1474.812      78.3318     156.2292     312.4895      1.694     4.25     830.5727     55.08135     185.4275         9     1.017     0.667 -60.32   0
       429    465.1623    303.8394 307.7372879  +6.5604542     1077.923     1773.649     2256.083     78.08353     156.2292     312.3652      1.900     5.28     831.1574     55.08135     162.1614        13     1.554     0.612 -57.23   2
       430    465.2801    298.2123 307.7374268  +6.5627815     615.2288     1076.679      967.383     77.95909     155.9804     312.3341      1.863     5.18     830.8496     55.08135     81.04425         8     1.365     0.555 -71.23   3
       431    414.7440    303.3650 307.7582446  +6.5589730     1980.498     3226.375     2862.371     78.20776     156.2913     312.5205      1.769     4.33      832.652     55.08135     249.1356        21     1.372     0.991 -41.17   0
       432    294.2057    303.2423 307.8083128  +6.5550106     508.5616     911.3594     572.2111     77.70963     155.9804     312.2097      1.829     5.80     835.3455     55.08135     76.54224         8     1.375     0.689 -50.46   0
       433    835.9954    297.7439 307.5834635  +6.5752796     1042.747     1798.454     1868.671     77.70963     156.1049     312.2097      1.834     6.06     833.0735     55.08135     156.3719        14     1.367     0.831 -50.85   0
       434    445.4277    294.9901 307.7457799  +6.5634516     1181.814     1916.358     1982.213     77.95909     156.1049     312.3652      1.761     5.10     831.3359     55.08135     143.1462        14     1.152     0.939 -34.81   0
       435    191.2738    294.7470 307.8513477  +6.5550872     2321.894     3780.409     3908.921     78.20776     156.3534     312.5205      1.708     3.94     839.2129     55.08135     312.0977        20     1.352     0.862 -52.15   0
       436    755.0090    292.8259 307.6172659  +6.5746261      5675.02      9060.38     9509.607     77.95909     156.1049     312.3652      1.707     4.18     832.7302     55.08135     737.9748        34     1.595     1.026 -51.24   0
       437    227.0579    293.2842 307.8365344  +6.5568843     576.2295     665.8141     346.0883      78.3318     156.2913     312.5516      1.430     4.94     837.8402     55.08135     142.5938         6     1.030     0.672  86.12   0
       438    771.4203    290.8347 307.6105155  +6.5759923     2429.996     4022.738     4502.466     77.83446     156.1049      312.303      1.834     4.55     832.7324     55.08135     325.5349        24     1.473     1.026 -54.77   0
       439     87.3292    292.0431 307.8946091  +6.5527353     986.8423     1717.545     1308.914     78.20776     156.2913     312.5205      1.742     4.81     841.5085     55.08135     130.3817        14     1.286     0.806 -19.10   0
       440    474.5281    289.1763 307.7338872  +6.5668197     540.5667     626.0211     667.5784     77.95909     156.1671     312.4584      1.434     4.38      830.064     55.08135     79.82166         5     0.923     0.590  45.72   0
       441    313.4969    287.8093 307.8008163  +6.5620251     451.1602     845.0815     828.0053     78.08353     155.9182      312.303      1.559     5.15     834.3386     55.08135     97.34888         5     1.488     0.504 -48.08   0
       442     74.3417    286.5261 307.9001880  +6.5545795     1259.742      2002.36     1611.255     78.45565     156.2913     312.4895      1.627     5.13     841.8089     55.08135     166.1071        14     1.223     0.911 -48.12   0
       443    360.8563    285.6453 307.7812183  +6.5644955     1718.474     3255.049     4358.046      78.3318     156.2913     312.4895      2.241     6.02     832.9956     55.08135      217.007        23     1.640     1.016 -17.57   0
       444   1009.7311    281.4762 307.5118390  +6.5877467     5115.958     8426.194     8622.904     78.45565     156.4155     312.4895      1.758     4.02     832.5158     55.08135     649.3643        33     1.570     1.075 -50.44   0
       445    487.9234    281.6175 307.7285757  +6.5703860     2165.089     3394.853     3597.546     77.83446     156.0427     312.4273      1.673     3.66     829.7511     55.08135     321.2615        21     1.263     1.036 -54.30   0
       446    250.1718    277.3128 307.8274687  +6.5642489     5654.538     9155.408     10049.04     78.45565     156.0427     312.3652      1.739     4.06     836.7145     55.08135      704.157        35     1.606     1.056 -47.60   0
       447    769.7941    270.9673 307.6118521  +6.5841413     532.0554     955.6461      1158.11     77.70963     156.1049      312.303      1.591     4.20     831.6556     55.08135     77.40253         5     1.362     0.370 -82.83   0
       448    384.5410    268.0987 307.7719671  +6.5725285      1670.35     2804.214     2875.407     78.08353     156.2292     312.6137      1.783     4.02     832.0278     55.08135     255.4753        21     1.327     1.039 -48.31   0
       449    227.0916    269.5217 307.8373155  +6.5666962     551.1176     795.8664     654.9854     78.08353     156.5396     312.5516      1.650     5.73     837.7948     55.08135     89.76215         8     1.331     0.695 -33.79   0
       450    971.6273    266.5480 307.5281622  +6.5926501      896.736     1494.427     1609.137     77.95909     156.4155     312.4273      1.791     5.36     831.6515     55.08135     130.9554        10     1.099     0.737 -50.76   0
       451    306.5686    264.1823 307.8044838  +6.5715492     1103.547     1757.094     1631.268     77.95909     156.1049     312.3652      1.749     6.48     834.1578     55.08135     120.3828        18     1.348     1.107 -48.15   0
       452    154.0357    263.8677 307.8678476  +6.5665941     1766.525     2674.503     2803.924     78.20776     156.4155     312.5827      1.618     3.88      840.532     55.08135     238.3379        17     1.362     0.759 -55.35   0
       453    563.9397    259.2426 307.6977480  +6.5821505     2119.155     3232.691     3325.637      78.3318     156.2913     312.5827      1.606     4.20     828.8859     55.08135     302.9147        20     1.458     0.818 -45.20   0
       454    907.7189    258.1569 307.5549874  +6.5939997      1535.15     2493.055     2589.606     78.33181     156.2913     312.4584      1.741     3.83     831.0644     55.08135      204.856        17     1.298     0.926 -51.50   0
       455    727.4146    256.9235 307.6299228  +6.5885345     4730.028      7510.05     7853.619     77.95909     156.0427     312.3341      1.674     4.04     830.4884     55.08135     674.5479        30     1.553     0.991 -49.60   0
       456    668.3214    256.8265 307.6544717  +6.5866140     2038.041     3069.649      3607.51     78.20776     156.2292     312.4584      1.666     4.59     829.1258     55.08135     296.2242        19     1.375     0.866 -47.94   0
       457    965.4338    256.2096 307.5310782  +6.5967138     544.3539     866.2166     752.6808     77.83446     156.1049     312.3341      1.570     3.46     830.9724     55.08135     73.06769         5     0.766     0.451  70.62   0
       458    923.9028    248.8880 307.5485728  +6.5983624     968.9023     1569.998     1955.956     78.33181     156.7256     312.5205      1.769     4.03     830.5414     55.08135      170.351         9     1.080     0.731 -56.43   0
       459    226.9299    242.3318 307.8382923  +6.5779166     2249.887     3514.439     3680.062      78.3318     156.4155     312.4584      1.736     4.22     837.7967     55.08135     292.2326        21     1.381     0.882 -49.06   0
       460    869.9202    240.8840 307.5712624  +6.5998799     1534.909     2445.379     2683.343     78.20776     156.6016     312.5827      1.666     4.46     830.0517     55.08135     226.5731        15     1.361     0.749 -51.54   0
       461    760.1648    240.5625 307.6168637  +6.5963757     1628.395     2486.719     2185.416     78.08353     156.1671     312.2719      1.619     4.33     829.9113     55.08135     195.2732        16     1.334     0.786 -46.16   0
       462    248.6362    235.8749 307.8294926  +6.5813061     591.1075     659.6332     593.8189     78.20776     156.3534     312.5205      1.476     3.38     836.5804     55.08135     88.64307         5     0.757     0.437  70.95   0
       463    460.7707    232.1925 307.7415034  +6.5898894     22110.89     34891.68     36750.48     77.95909     156.1049     312.2719      1.705     3.88     829.3459     55.08135     2975.168        59     1.724     1.132 -51.69   2
       464    466.6340    226.4973 307.7392581  +6.5924358     1352.575     2090.468     2255.359     78.33181     156.1671     312.6137      1.693     4.54     829.1331     55.08135     204.1688        13     1.196     0.737 -54.12   3
       465    786.8788    231.1787 307.6060794  +6.6011357     12448.31     20116.83     21866.75     77.95909     155.9804     312.4895      1.735     3.71     829.4506     55.08135      1761.57        51     1.732     1.157 -43.04   0
       466    322.2903    233.8391 307.7989680  +6.5846006     782.1967     1098.028     947.9692     78.33181     156.2292     312.5205      1.572     4.67     833.1979     55.08135     116.9564         8     0.968     0.639 -73.51   0
       467    725.4853    226.5863 307.6317342  +6.6009962     593.5057     907.4109     1039.342     77.95909     156.1049     312.3963      1.498     3.66     828.8434     55.08135     105.9028         5     1.066     0.602 -55.21   0
       468    148.9155    225.6347 307.8712544  +6.5822083     2217.095     3447.485     3372.092      78.3318     156.2292     312.4584      1.616     4.38     840.7928     55.08135     279.7361        23     1.529     0.959 -52.12   0
       469    123.7515    224.8699 307.8817318  +6.5816844     1018.405       1583.5     1391.996     78.33181     156.2292     312.5205      1.609     4.56          841     55.08135     153.5137        14     1.257     0.884 -58.37   0
       470    176.2552    223.6277 307.8599660  +6.5839490     506.3799     907.2172     253.8012     77.95909     156.3534     312.3341      1.557     4.49     840.0444     55.08135     100.0593         7     1.352     0.424 -46.03   0
       471    779.9329    223.0046 307.6092367  +6.6042804     651.0115      1153.72     1972.951     77.83446     155.9804      312.303      1.890     4.61     829.0057     55.08135     113.3393         6     1.128     0.536  -0.25   0
       472    923.3285    221.3087 307.5497278  +6.6097305     1355.846     2017.775     2345.472     78.20776     156.4776     312.4895      1.676     4.88     828.9026     55.08135     170.6009        15     1.238     0.848 -59.89   0
       473    584.8307    217.9072 307.6904488  +6.5999109     4565.191     7098.832     7554.252     78.45565     156.1049     312.4895      1.687     3.99     827.5812     55.08135      668.161        29     1.561     0.956 -51.34   0
       474    305.0480    218.6970 307.8066360  +6.5902780     973.6798     1468.683     1017.584      78.3318     156.1671     312.6448      1.636     5.27     833.7955     55.08135     128.6899        13     1.333     0.715 -49.49   0
       475    547.5416    217.9989 307.7059348  +6.5986342      2061.71     3214.886     2692.753     77.70962     155.9182     312.1786      1.600     4.00     827.5812     55.08135     294.1937        18     1.318     0.863 -56.52   0
       476    389.2697    216.8438 307.7717152  +6.5938476     1423.134     2334.126         2437     78.33181     156.2913     312.5516      1.738     4.64     830.6281     55.08135     212.3629        14     1.452     0.655 -56.43   0
       477    891.8900    214.2946 307.5630203  +6.6115857     10503.95     16709.87     17750.03     78.33181     156.7875     312.5516      1.738     3.75     828.6474     55.08135     1313.959        41     1.633     1.078 -50.43   0
       478    945.7276    214.7239 307.5406420  +6.6131906     2473.306     4015.233     4171.297      78.5793     156.5396     312.4895      1.739     3.79     828.6293     55.08135     335.6768        22     1.374     0.946 -53.38   0
       479    319.6206    215.0721 307.8007043  +6.5922600     905.9889     1794.486      2013.07     77.95909     156.1671     312.4584      2.293     4.64     833.2174     55.08135     163.1487        10     1.323     0.551 -62.41   0
       480    978.5092    212.0967 307.5271119  +6.6153599     8697.219     14247.88     15020.69      78.3318     156.7875     312.4895      1.775     4.10     828.4884     55.08135     1152.936        42     1.655     1.129 -50.02   0
       481    567.4859    214.0215 307.6977830  +6.6009390     795.6077     959.8093     1142.898      78.3318     156.0427     312.3963      1.390     4.55     827.4698     55.08135     124.1545         7     1.113     0.529 -66.44   0
       482     17.9571    211.3414 307.9261264  +6.5837370     23794.55     38697.49     41298.88     78.20776     156.2913     312.5827      1.760     3.92     843.4634     55.08135      3077.64        57     1.703     1.194 -48.33   0
       483    690.1238    212.2542 307.6469002  +6.6057405     2680.083     4279.101     4748.511     78.45565     156.2913     312.4895      1.682     4.12     828.0828     55.08135     348.8685        24     1.511     0.962 -51.04   0
       484    264.0282    211.8731 307.8239023  +6.5917286     1151.532     1849.674      2196.98     78.20776     156.2913     312.4273      1.668     5.78     835.9938     55.08135     146.0901        12     1.234     0.762 -56.44   0
       485    498.6984    207.1146 307.7265863  +6.6015046     1991.158     2743.656     3052.971     78.33181     156.7256     312.5516      1.532     3.59      827.894     55.08135     281.4243        16     1.250     0.789 -58.20   0
       486    830.6096    203.7016 307.5888282  +6.6139297     1835.192     2788.738     2855.587     78.08353     155.9182      312.303      1.713     4.73     828.2981     55.08135     239.5355        17     1.336     0.853 -51.34   0
       487    510.6197    203.0878 307.7217688  +6.6035635     2485.839     4059.516     3834.834     78.08353     156.0427     312.3963      1.721     4.14     827.5891     55.08135     352.1803        21     1.442     0.867 -52.10   0
       488    882.8594    202.6906 307.5671573  +6.6160778     1897.831     3169.136     3733.964     78.20776     156.2913     312.5827      1.874     4.13     828.1829     55.08135     269.8112        18     1.368     0.796 -47.05   0
       489    742.0760    200.3429 307.6257163  +6.6123818     38158.25     59367.89     63150.44      78.3318     156.2292     312.4273      1.684     3.82     828.0339     55.08135     4621.391        69     1.698     1.170 -49.48   0
       490    345.1973    199.8540 307.7905892  +6.5993949     5687.809     11649.64     12951.81     77.70962     156.1049     312.1164      2.180     6.08     831.9103     55.08135      731.806        46     2.100     1.122 -68.18   0
       491    975.8947    198.8880 307.5286366  +6.6207271     2573.138     4247.225     4341.214     78.33181     156.6636     312.5516      1.701     3.77     827.9249     55.08135     354.5078        26     1.552     0.964 -52.36   0
       492    910.0141    197.4187 307.5560524  +6.6191536     6914.086      11015.9      11806.2     77.95909     155.9804     312.3963      1.745     3.79     827.8849     55.08135     910.2705        37     1.577     1.093 -53.04   0
       493    453.5058    196.6543 307.7457075  +6.6043206     4768.195     7571.844     7753.207     78.20776     156.2913     312.7069      1.729     4.15     828.4365     55.08135     626.7526        32     1.505     1.065 -54.41   0
       494   1014.3217    197.2852 307.5127271  +6.6226599     1449.503     2420.832      2911.34     78.33181     156.6016     312.6137      1.878     5.61     827.8214     55.08135     177.3518        16     1.338     0.907 -86.88   0
       495    320.1003    195.6928 307.8011529  +6.6002771     501.3045     772.9408     694.5748     78.33181     156.7875     312.4584      1.421     3.74     833.3987     55.08135     83.41827         5     1.494     0.269 -41.13   0
       496    228.5957    193.2272 307.8392434  +6.5982458     655.7505      1103.91     1042.302     77.83446     156.1049     312.3341      1.865     4.25     837.9388     55.08135     106.7426         5     1.117     0.461 -34.75   0
       497    110.7657    188.0598 307.8883585  +6.5964484     4524.899     7282.913     7315.416     78.20776     156.2913     312.4273      1.690     3.79     841.0547     55.08135     642.8629        31     1.503     1.038 -53.50   0
       498    281.1247    184.7614 307.8177077  +6.6034919     32535.44     51786.75     54690.96     78.20776     156.3534     312.5205      1.711     3.91     836.0212     55.08135     4112.507        62     1.680     1.170 -47.51   0
       499    256.4049    185.7932 307.8279411  +6.6022421     6335.876     10113.26     11067.42     77.70963     156.0427     312.3341      1.712     4.05     836.9528     55.08135     918.7089        37     1.622     1.044 -51.97   0
       500    930.2339    186.8934 307.5480028  +6.6241686     783.3754     1104.986     1848.197     78.45565     156.1671     312.5827      1.371     2.83     827.4271     55.08135     130.1643         6     0.732     0.571 -45.57   0
       501    607.3210    185.7336 307.6821792  +6.6139417     592.7716     1181.363     1238.905     78.45565     156.4155     312.4584      2.282     5.87     826.6902     55.08135     88.25885         8     1.368     0.709 -81.82   0
       502    710.3632    183.7076 307.6394436  +6.6181983     892.4802     1373.916     1868.205     78.45565     156.1671     312.5516      1.618     4.88     827.6174     55.08135      142.903         9     1.119     0.602 -62.25   0
       503    405.1744    180.2012 307.7663328  +6.6095056     47246.59     75931.72     80240.53     77.95909     155.9804     312.2719      1.722     3.92     829.5366     55.08135      6420.08        71     1.722     1.181 -47.40   0
       504    161.0806    181.5873 307.8676764  +6.6007998     3878.644     5964.597     6256.408     77.95909     155.9804     312.3341      1.676     4.14     840.4344     55.08135     497.1929        26     1.428     0.983 -50.78   0
       505    422.7395    180.5862 307.7590237  +6.6099311      1521.89     2109.499     1990.162     77.83446     156.1671     312.2408      1.521     4.16     828.9975     55.08135     198.1669        14     1.134     0.818 -58.23   0
       506    309.2001    177.9433 307.8062740  +6.6072422     17364.45     27880.78     30274.87     77.58459     155.9182     312.1476      1.691     3.87     834.4243     55.08135     2438.022        54     1.623     1.192 -45.72   2
       507    316.8890    177.3625 307.8030996  +6.6077381     1974.185     3562.432     5070.877      78.3318     156.2292     312.5205      2.246     5.60     833.8156     55.08135     306.2543        28     2.087     0.930 -69.82   2
       508    744.5209    176.2616 307.6255024  +6.6224056     31867.94     49268.98     52308.39     78.45565     156.3535     312.4895      1.692     3.95     827.1796     55.08135     4501.506        66     1.677     1.178 -50.95   0
       509    692.8143    177.8961 307.6469269  +6.6200155      964.597      1415.65     1024.001     78.08353     156.0427     312.2719      1.592     5.26     827.6366     55.08135     137.2312        10     1.170     0.667 -54.46   0
       510    792.9855    176.6577 307.6053569  +6.6238488     1147.449     1754.308     1913.333     77.70962     156.1671     312.1476      1.597     4.64     827.2645     55.08135      162.126        14     1.320     0.817 -66.11   0
       511     32.0455    176.3444 307.9214482  +6.5986565     616.1644     888.6249     1161.162      78.3318     156.2913     312.4895      1.595     4.30     843.6968     55.08135     97.50586         6     1.076     0.489 -51.43   0
       512     61.2440    173.8021 307.9094056  +6.6006814     8493.972     14034.24     14941.12     77.70963     155.8559     312.1476      1.779     3.85     842.6108     55.08135     1162.873        42     1.602     1.150 -45.22   0
       513     95.1432    171.7341 307.8953945  +6.6026671      1453.21     2483.498     2185.883     78.45565     156.2292     312.4895      1.681     4.07     841.2965     55.08135     183.1458        17     1.325     0.863 -57.31   0
       514   1003.1955    170.1821 307.5182489  +6.6334824     1019.391     1619.419     1848.075     77.95909     155.9182     312.3341      1.867     6.25     826.6487     55.08135     135.6972        14     1.389     0.790 -54.28   0
       515    729.3950    164.4990 307.6321773  +6.6267604     580.5083     770.0702     435.7864     78.08353     155.9804     312.1476      1.566     3.90     826.8738     55.08135     95.30298         5     1.044     0.418 -74.61   0
       516    578.4453    160.2497 307.6950237  +6.6235042     743.2341     1080.976     1009.293     78.33181     156.1671     312.5205      1.471     3.91     825.9859     55.08135     114.8007         7     0.969     0.475 -80.03   0
       517   1004.0344    156.6772 307.5183488  +6.6390861     2033.237      3343.31      4217.36     78.20776     156.3534     312.4584      1.979     3.77     826.2507     55.08135      297.732        20     1.302     1.028 -79.96   0
       518    586.9637    154.7564 307.6916683  +6.6260553     879.4019     1651.339     2146.392     78.08353     156.2292     312.3341      1.959     5.19     825.9442     55.08135     132.4213        11     1.255     0.607 -66.66   0
       519    279.9599    151.0612 307.8193187  +6.6173667     28764.37     46757.47     50662.99     78.33181     156.2913     312.5827      1.748     4.02     837.0054     55.08135     3618.646        72     1.837     1.212 -42.77   0
       520    595.1203    152.6547 307.6883502  +6.6271939     1757.986     2770.674     2564.757     78.45565     156.2913     312.5205      1.654     4.62     825.9265     55.08135     269.4755        16     1.518     0.715 -48.10   0
       521    339.3487    153.1760 307.7945788  +6.6184720     974.4275     1648.137     1277.219     77.95909     156.2913     312.3963      1.726     5.62     832.2576     55.08135     156.0985        13     1.426     0.736 -54.06   0
       522     25.2847    149.6871 307.9251501  +6.6094363     4235.632      6804.43     7338.926     78.08353     156.4776     312.5516      1.752     4.14     844.0582     55.08135     552.2343        30     1.555     0.994 -59.39   0
       523    189.1496    148.6184 307.8571212  +6.6153477     845.0305      1349.54     1528.223     77.83446     156.3534     312.2408      1.665     4.65     839.2163     55.08135     118.4267        10     1.106     0.755  75.33   0
       524    711.7225    147.3943 307.6400882  +6.6332364     7722.934     11858.22     12849.76     77.95909     155.7936     312.3341      1.691     3.93      826.716     55.08135     1050.642        36     1.579     1.029 -48.20   0
       525    265.3098    146.1463 307.8255685  +6.6189077     776.6011     1246.679     1127.906     78.20776     156.1049     312.6137      1.661     6.17     837.4166     55.08135     113.2399         9     1.427     0.751 -45.69   0
       526    122.3293    144.8190 307.8850039  +6.6146868     4692.665     7814.561     7828.964     77.95909     156.1671     312.4273      1.737     4.05      840.562     55.08135     623.6296        30     1.585     0.981 -46.67   0
       527    461.5342    141.7275 307.7442063  +6.6272654     1437.341     2376.925     2272.157     78.33181     156.3535     312.4895      1.669     4.54      826.832     55.08135     245.0461        19     1.577     0.855 -67.38   0
       528    393.1461    140.7817 307.7726461  +6.6253804     3645.569     6485.319     6968.685     77.83446     156.2913     312.2719      1.907     3.91     829.6783     55.08135     498.2748        34     1.626     1.176 -64.64   0
       529    650.2749    141.2358 307.6658193  +6.6337399     917.5629     1457.804     1841.293     78.20776     156.3534     312.5205      1.832     5.08     826.5933     55.08135     122.4775        10     1.312     0.557 -67.09   0
       530    584.5372    142.0540 307.6930998  +6.6312192     686.0966     1048.498     1137.483      78.3318     156.2292     312.4584      1.793     4.78     825.8366     55.08135     83.89233         7     0.890     0.727  26.52   0
       531    357.6099    139.4400 307.7874524  +6.6247513     3197.555     4994.453     5162.176     77.70963     156.1049     312.2408      1.720     3.86     831.3336     55.08135     431.9327        27     1.448     0.984 -47.84   0
       532    111.8290    139.6572 307.8895384  +6.6164674     1679.771     2599.479     2521.593     77.95909     156.3534     312.3963      1.639     5.13     840.6791     55.08135     205.3352        18     1.346     0.894 -40.00   0
       533    569.4640    139.8033 307.6994364  +6.6316477     587.2809     999.1205     778.7911     77.70963     156.1049     312.2719      1.721     4.32     825.8253     55.08135     109.3492         7     1.098     0.485 -43.09   0
       534    673.4709    137.1329 307.6563201  +6.6362038     728.7424     1016.435     865.9967     78.33181     156.4155     312.4895      1.530     6.05     826.8823     55.08135      84.8299        10     1.225     0.839 -49.88   0
       535    748.4216    136.8068 307.6251955  +6.6388250     543.9724     579.4427     113.7295     77.83446     156.1049      312.303      1.213     3.41     826.1771     55.08135      74.9408         5     0.751     0.449 -70.00   0
       536   1004.4539    133.4952 307.5189443  +6.6486715      1336.53     2114.286     2323.049     78.20776     156.2292     312.7379      1.746     4.90      826.222     55.08135     186.6487        15     1.307     0.827 -41.95   0
       537    730.7614    133.9957 307.6326254  +6.6393999       565.09      877.661     989.7719     77.45935     156.0427     312.2408      1.354     3.49     826.1942     55.08135     83.76666         5     0.800     0.496 -32.96   0
       538    209.4258    128.6218 307.8493682  +6.6242799     5323.418     8623.196     8840.583     77.83446     156.1049     312.4273      1.767     4.08     838.5511     55.08135      672.197        34     1.591     1.029 -55.40   0
       539    671.2824    127.2179 307.6575596  +6.6402249     5806.574      9104.27      9014.91     77.95909     155.9804     312.4584      1.659     3.89      826.496     55.08135     791.7384        33     1.581     0.979 -54.02   0
       540     92.0252    128.4799 307.8981389  +6.6204210     1956.735     3263.583     3469.777     78.08353     156.1049     312.4584      1.819     4.59      841.061     55.08135     256.0348        23     1.559     0.913 -53.15   0
       541    819.6120    126.7088 307.5959577  +6.6453542     1077.962      1336.11     1345.097     78.08353     156.0427      312.303      1.346     3.66     825.8439     55.08135      154.923        11     1.020     0.761 -60.45   0
       542    623.4323    124.4785 307.6775284  +6.6397674     9104.652     14303.12     15213.13     78.20776     156.2913     312.4584      1.733     4.01     825.8354     55.08135     1158.243        40     1.591     1.105 -48.75   3
       543    626.9274    115.9976 307.6763592  +6.6433850     50554.98      80346.3     85408.87     77.83446     155.8559     312.3341      1.690     3.91     825.7507     55.08135     6906.403        73     1.722     1.170 -49.29   3
       544    257.7155    125.0435 307.8294290  +6.6273672     750.5075     1178.259     1371.901      78.3318     156.2292     312.4584      1.750     6.04     837.7721     55.08135     99.53662        11     1.313     0.782 -50.81   0
       545    561.1226    124.6153 307.7034080  +6.6376413     506.8644     1039.866     682.7842     77.95909     155.9804     312.3341      2.071     5.33     825.7092     55.08135     73.18762         7     1.447     0.555 -31.96   0
       546     22.2700    123.5607 307.9272783  +6.6201220     1056.069       1844.3     1697.635     78.20776     156.2913     312.5516      1.858     4.50     843.6877     55.08135     182.2379        13     1.352     0.768 -45.49   0
       547    350.6808    120.2114 307.7909734  +6.6324594     3654.198      5922.68     6416.057     77.95909     156.0427     312.3341      1.725     4.57     832.4998     55.08135     484.4407        29     1.734     0.894 -56.43   0
       548    997.3043    119.1086 307.5223922  +6.6543750      718.783     1285.457     1268.475     78.33181     156.7875     312.4584      2.086     6.35     826.1445     55.08135     102.0825        12     1.340     0.845 -69.19   0
       549     58.9859    120.4543 307.9121316  +6.6226311     423.0201     391.6649     387.8198     77.70962     156.2292     312.2408      1.169     4.62     842.2163     55.08135      68.8371         5     1.035     0.586 -73.05   0
       550    532.2776    119.4451 307.7155629  +6.6388173     1667.576     2545.674     3028.159     78.20776     156.3535     312.4895      1.797     4.17      825.736     55.08135     235.8479        15     1.263     0.774 -57.04   0
       551    305.9740    109.9319 307.8098881  +6.6352144     3501.839     5845.949     5982.396     77.95909     156.1671     312.3963      1.788     4.20     836.2778     55.08135     448.1941        29     1.527     1.029 -47.96   0
       552    501.7729    106.6589 307.7286616  +6.6430823     605.3787     815.5676     765.8291     77.95909     156.3534     312.3341      1.693     5.11     825.8193     55.08135     77.52173         8     1.234     0.599  76.41   0
       553    705.7658    104.1053 307.6440044  +6.6509118     896.8378     1514.654      1434.36     78.45565     156.1671     312.5827      1.771     5.68     825.6298     55.08135     115.7223        12     1.244     0.731 -63.19   0
       554    959.1036   1016.0771 307.5084847  +6.2827617     4464.899     9658.165     10809.98     78.08353     156.4776     312.5516      2.186     4.89     849.0578     55.08135     499.7566        46     1.779     1.454 -63.21  16
       555    677.3740    103.1000 307.6558326  +6.6503848      1189.55      1867.49     1601.063      78.3318     156.0427     312.3963      1.716     5.09     825.6497     55.08135     169.1381        14     1.283     0.791 -67.81   0
       556    691.3427     99.8554 307.6501377  +6.6521880     3043.761     4792.511     5069.697     78.45565     156.3534     312.5205      1.712     4.23     825.5334     55.08135     385.0257        23     1.432     0.973 -47.07   0
       557    433.0169     91.0547 307.7577447  +6.6472380       3913.1     6237.391     6209.326     77.83446     156.2292     312.2408      1.653     3.90     827.5519     55.08135     493.6927        29     1.521     1.051 -49.48   0
       558    887.5662     87.1769 307.5690423  +6.6639272     2051.616     3141.884     3387.788     77.83446     156.0427     312.2719      1.640     4.24     824.8654     55.08135     288.0006        19     1.379     0.898 -60.12   0
       559    585.8928     86.7570 307.6943807  +6.6540949     685.9118     1003.276      985.337      78.3318     156.2913     312.6137      1.614     4.32      825.325     55.08135     107.2627         6     0.948     0.561 -59.03   0
       560    597.7874     84.7518 307.6895063  +6.6553179     1851.135     2597.599      2251.11     77.70963     156.1671     312.2097      1.527     4.02     825.2775     55.08135     246.3914        17     1.239     0.901 -80.10   0
       561    243.9137     84.1447 307.8365306  +6.6437928     782.5497     1239.391     2172.654     78.33181     156.2292     312.6448      2.049     4.78     838.0782     55.08135     126.5501         8     1.110     0.583 -65.81   0
       562    396.4472     82.9523 307.7732069  +6.6493662     1794.227     3012.346      2834.94      78.3318     156.1671     312.5205      1.786     5.05     830.0852     55.08135     227.3726        19     1.505     0.853 -45.67   0
       563    144.3216     79.8839 307.8780438  +6.6422299     3035.565     4713.705     5069.469     78.45565     156.6016     312.6137      1.717     3.86     838.6375     55.08135     425.4573        23     1.414     0.922 -49.37   0
       564     26.1404     77.8586 307.9272032  +6.6391197     11672.96     19058.89     20958.56      78.3318     156.2913     312.5205      1.781     4.02     842.1824     55.08135     1543.497        48     1.689     1.156 -50.87   0
       565    292.6537     78.3232 307.8164785  +6.6478207     1375.864     2090.271     2804.619     78.45565     156.2913     312.4895      1.896     4.65      837.544     55.08135     184.8717        16     1.228     0.930 -52.49   0
       566    566.0182     76.9816 307.7029631  +6.6574706      660.011     1011.387     880.0297     78.08353     156.0427     312.4273      1.607     5.37     825.2295     55.08135     116.6047         8     1.317     0.618 -58.26   0
       567    761.0820     76.4535 307.6219452  +6.6641634     639.4236     1253.174     2000.462      78.3318     156.2913     312.5516      2.024     5.08     824.6459     55.08135     97.54034         8     1.413     0.516 -56.09   0
       568    553.4039     76.5680 307.7082172  +6.6572222     746.0706     1363.258     1124.908     77.70963     156.1671     312.2719      1.805     4.72     825.2568     55.08135      107.943         7     0.908     0.696 -78.80   0
       569    827.9480     72.0752 307.5943122  +6.6681875     5701.831     9204.763     10292.07     78.33181     156.3534     312.4895      1.738     4.18     824.4266     55.08135     738.6389        35     1.621     1.085 -56.52   0
       570    905.7207     86.1919 307.5615329  +6.6649350     3495.092     5672.769     5608.453     77.95909     155.8559     312.3341      1.704     3.85     824.8359     55.08135     478.1579        26     1.470     0.993 -57.06   0
       571    773.0513     72.2727 307.6171119  +6.6662864     3104.468     4858.099     5474.125      78.3318     156.3534     312.5205      1.700     3.85     824.4858     55.08135      399.479        26     1.455     1.023 -55.90   0
       572    418.0907     72.6939 307.7645585  +6.6543219     1011.124     1644.931     1577.564     78.33181     156.7875     312.4895      1.702     4.23     828.6226     55.08135     148.4299        11     1.034     0.860 -65.59   0
       573    535.5685     70.0182 307.7158450  +6.6593337     1075.421     1563.922     1261.678     77.95909     156.1049     312.3652      1.461     5.31     825.3209     55.08135     183.9355        11     1.435     0.556 -39.94   0
       574     66.4616     69.5319 307.9107333  +6.6439044     3180.303     5191.906     5558.835     78.33181     156.2292     312.4895      1.824     4.22      840.564     55.08135     447.4432        27     1.542     0.993 -48.77   0
       575     50.9857     70.4770 307.9171302  +6.6429973     837.0787     1341.693     1156.044     77.95909     155.9804     312.3341      1.581     5.73     841.0363     55.08135      124.558        12     1.403     0.659 -44.07   0
       576    655.3939     69.9651 307.6660678  +6.6633358       559.56     762.4571     1170.547     77.58459     156.0427     312.2719      1.425     3.92     824.8163     55.08135     78.22601         5     0.905     0.487  87.23   0
       577    427.7852     69.0145 307.7606541  +6.6561636     1024.171     1562.726     2102.435     78.08353     155.9804     312.4273      1.607     4.91     828.3297     55.08135     140.5628        11     1.107     0.793 -39.59   0
       578    590.3988     65.9423 307.6932029  +6.6628384     1240.187     1963.466     1905.028     77.70962     155.9804     312.1786      1.685     3.93      825.025     55.08135     181.4912        12     1.172     0.705 -57.55   0
       579      9.1400     65.0602 307.9346942  +6.6438355      2331.98     3796.789     4798.239     78.33181     156.2913     312.5205      1.931     4.85     842.1233     55.08135     306.8841        25     1.614     0.953 -46.12  16
       580    408.5332     60.1512 307.7689479  +6.6591823     1050.154     1464.433     1641.372     78.20776     156.2292     312.5205      1.367     4.22     829.7251     55.08135     153.8692        12     1.226     0.718 -72.51   0
       581     81.2486     60.8875 307.9048806  +6.6479672     745.7062     1023.352     622.3548     78.33181     156.1671     312.5516      1.498     5.44     839.7549     55.08135     124.0679         9     1.131     0.796 -74.92   0
       582    767.6454     59.7837 307.6197734  +6.6712636     1972.837     3210.706     3478.601     77.83446     156.1671     312.2719      1.672     4.07     824.0913     55.08135     315.1923        18     1.318     0.937 -55.39   0
       583    105.0171     59.0779 307.8950678  +6.6495079     880.7098     1536.419     1377.672     77.83446     156.0427     312.4273      1.665     4.87     839.0501     55.08135     114.9272        12     1.100     0.967 -48.79   0
       584     94.2189     53.9576 307.8997250  +6.6512613     8632.284     14206.21     15364.39     77.83446     156.1049     312.2719      1.743     3.85     839.1119     55.08135     1105.463        41     1.652     1.143 -41.24   0
       585    423.3781     53.2982 307.7630099  +6.6625057     2537.848     3817.606     4290.886     78.20776     156.0427     312.2719      1.663     3.86     829.0129     55.08135     348.1045        19     1.350     0.854 -52.45   0
       586    244.6428     52.9283 307.8372723  +6.6567052     655.8698     1095.347     1404.964     78.20776     156.2913     312.5205      1.563     4.44     837.9035     55.08135     89.74207         6     0.866     0.649  60.10   0
       587    261.0833     47.8042 307.8306141  +6.6593687     1411.637     2399.088     3739.259     77.83446     155.9182     312.2097      1.979     4.51     837.8467     55.08135     229.5441        17     1.412     0.834 -44.33   0
       588    637.0345     45.6676 307.6745047  +6.6727581     17625.94     27378.72     28969.06     78.20776     156.3534     312.5827      1.681     3.84     824.4227     55.08135     2249.671        51     1.658     1.102 -48.24   0
       589    666.7896     46.4270 307.6621180  +6.6734324     590.7964     805.2173     515.8306     77.95909     156.1049     312.3652      1.537     4.79     824.1551     55.08135     78.19189         6     0.972     0.670  79.60   0
       590    536.8190     41.8191 307.7162664  +6.6710178     4983.282     7836.316     8140.614     78.08353     156.2292     312.4273      1.669     3.91     825.0519     55.08135     700.8445        29     1.540     0.973 -50.95   0
       591    255.0364     42.1144 307.8333165  +6.6615163     1851.791     3046.028     4254.606     78.33181     156.2292     312.4895      1.793     3.88     837.8326     55.08135     251.0457        19     1.298     0.945 -54.12   1
       592    692.9971     40.9338 307.6514133  +6.6765702     538.5981     968.8652     1621.568     77.58459     155.9804     312.2719      1.427     3.77      823.812     55.08135     85.63379         5     1.021     0.400 -59.78   0
       593    262.9542     37.9089 307.8301680  +6.6635165     8834.189     14333.07     15999.77     78.33181     156.2292     312.6137      1.761     3.86     837.8109     55.08135     1117.249        45     1.669     1.145 -48.50   0
       594      4.6069     40.2412 307.9374097  +6.6539306     1136.947     1685.664     1910.701     77.70963     155.9804     281.3617      1.611     5.12     841.0543     55.08135     161.7871        11     1.129     0.727 -64.42  16
       595    623.5591     36.2465 307.6804170  +6.6762004     2783.574      5627.46     6541.006     78.20776     156.2913     312.3341      2.208     5.92     824.3621     55.08135     390.3511        37     1.974     1.269  75.65   0
       596    442.3438     37.4720 307.7556596  +6.6696709     22510.91     34766.59     36646.98     78.20776     156.2292     312.4584      1.709     3.95     828.4607     55.08135     2828.054        54     1.658     1.140 -49.12   0
       597    322.8497     38.0647 307.8052809  +6.6654481     879.7361     1464.381     1275.974     78.20776     156.2292     312.5205      1.764     5.42     836.2254     55.08135     124.0629        11     1.409     0.589 -49.56   0
       598     28.2971     37.5181 307.9276601  +6.6558465     2310.129     3695.841      3768.09     78.20776     156.6636     312.5516      1.753     3.57     840.3342     55.08135     345.1576        23     1.333     0.984 -47.59   0
       599    920.1944     37.1975 307.5571484  +6.6856430     1848.227     3032.353      2876.23     77.70962     155.9804      312.303      1.749     4.24     823.3876     55.08135     241.8274        18     1.291     0.916 -46.81   0
       600    555.6738     37.1437 307.7085894  +6.6735748     637.4259     1047.942     893.6096     78.20776     156.1671     312.4584      1.746     4.25     824.7662     55.08135     114.1567         5     1.057     0.585 -27.52   0
       601    251.0320     34.5967 307.8352315  +6.6644866      2930.46     4700.647     5358.162     77.58459     156.1049     312.2408      1.721     4.08     837.8042     55.08135     384.4435        25     1.432     1.005 -61.28   0
       602    304.2432     32.6551 307.8131914  +6.6670616     938.8819     1491.595     1805.564     78.33181     156.2913     312.4895      1.662     4.56     837.1334     55.08135      131.631        11     1.264     0.610 -58.49   0
       603    940.8371     27.6162 307.5488907  +6.6902822     809.5477     1327.985     1119.147     77.95909     156.1049     312.2408      1.886     4.80     822.6587     55.08135     146.3779         8     1.253     0.589 -50.58   0
       604    692.3625     26.8004 307.6521478  +6.6823844     1631.325     2516.501     2578.897     77.33391     156.1049      312.303      1.647     4.14      823.415     55.08135     230.3625        17     1.301     0.911 -42.43   0
       605     97.0087     27.1628 307.8994640  +6.6624169     570.1275      866.965     691.1627     77.58459     156.0427     312.2408      1.621     4.58     838.0726     55.08135     86.45776         7     0.866     0.689  57.24   0
       606    257.7676     21.5917 307.8328686  +6.6700804     631.8314      1164.43     1770.136     77.83446     156.1671      312.303      2.010     5.17     837.7527     55.08135      106.611         6     1.244     0.606 -77.28   0
       607    243.2172   1015.8824 307.8056659  +6.2590818     1091.241     1808.469      1803.26     77.95909     155.9804     312.4273      1.746     4.46     857.3628     55.08135     144.6413        13     1.139     0.822 -61.73   0
       608    717.9837   1014.4701 307.6086333  +6.2754411     2027.359     4521.333      5879.14     77.83446     156.1671     312.3963      2.640     9.30     854.2349     55.08135     235.3384        35     2.294     1.146 -27.73  16
       609    441.5341   1014.9885 307.7233743  +6.2660498          858     1671.017     1996.353     77.83446     156.1049     312.3652      2.339     6.97     857.0673     55.08135     117.6988        13     1.370     0.995 -42.93  16
       610    734.5027   1013.2159 307.6018177  +6.2765066     908.2726     1486.243     1604.111     78.33181     156.0427     312.3341      1.854     6.24     853.8936     55.08135     122.9039        12     1.233     0.886 -46.57   0
       611    365.7498   1011.6601 307.7549438  +6.2649039     1712.945     3020.412     2958.711     78.33181     156.2292     312.5205      1.921     3.82     856.8411     55.08135     237.8033        19     1.226     1.003 -63.51   0
       612    976.4261   1008.3521 307.5015498  +6.2865241     467.9772     629.1342      715.627     77.95909     156.3535     312.3963      1.191     3.47     848.0929     55.08135     70.50061         5     1.102     0.316 -68.91   0
       613    752.3624   1001.2303 307.5948021  +6.2820472      6372.43     11824.45     12568.81     77.95909     156.0427     312.3652      1.980     4.33     853.6107     55.08135     711.9424        47     1.775     1.298 -55.99   0
       614    517.9915   1003.0671 307.6920334  +6.2735126      959.923     1818.012     1698.599     77.83446     156.0427     312.3963      2.004     6.15      857.562     55.08135     174.9506        16     1.468     1.074 -46.62   0
       615    547.7720   1001.8679 307.6797109  +6.2749968     3544.422      6253.25     7263.498     78.08353     156.2292     312.4273      1.951     4.35     857.8127     55.08135     363.2957        31     1.612     1.104 -50.72   0
       616    298.0232   1000.6530 307.7834247  +6.2671946     12975.58     22813.09     25826.11     77.83446     156.2913      312.303      1.956     4.07     856.7349     55.08135     1484.475        64     2.022     1.291 -40.26   0
       617    423.0313   1000.8509 307.7315264  +6.2712718     832.0633     1459.591     1676.247     78.20776     156.4155     312.4273      1.897     4.67     856.8704     55.08135     142.0554        11     1.289     0.705 -57.13   0
       618    813.3677   1000.3922 307.5695049  +6.2844145     940.8495     1705.241     1899.436     77.83446     156.1671      312.303      2.042     6.22     852.7676     55.08135     117.7673        13     1.170     0.928  47.19   0
       619    913.6735    994.6277 307.5280560  +6.2901151     6416.744     13014.63      14310.7     78.20776     156.2292     312.4273      2.145     4.74     851.0959     55.08135      656.283        51     1.780     1.467 -50.95   0
       620    269.3407    998.1761 307.7954136  +6.2672623     734.1118     1282.493     1160.571     77.95909     156.2913     312.3341      1.682     5.30     856.6643     55.08135     130.2877         9     1.184     0.669 -32.54   0
       621    544.9100    994.1477 307.6811562  +6.2780893     6780.632     12446.37     13570.16      78.3318     156.1049     312.6137      1.944     4.41        857.6     55.08135     797.2502        48     1.767     1.268 -45.88   0
       622    887.1846    990.7659 307.5391807  +6.2908330     9095.449     18465.28     21100.15     77.95909     156.0427     312.3652      2.191     4.66     851.6772     55.08135     1027.597        63     1.931     1.471 -45.48   0
